"view_history","rt","trial_type","trial_index","time_elapsed","internal_node_id","subject","trial_stimulus","key_press","task_type","task_target_stimulus","task_background_stimulus","task_deviant_stimuli","task_order_number","block_order_number","trial_order_number","minimum_viewing_duration","trial_looking_time","trial_pressed_space_bar","trial_space_bar_rt","stimulus","trial_stimulus_type","responses","question_order"
"[{""page_index"":0,""viewing_time"":8594.000000040978}]","8594.99999973923","instructions","0","8624","0.0-0.0","SS1604514419166","","","","","","","","","","","","","","","","",""
"[{""page_index"":0,""viewing_time"":4708.999999798834},{""page_index"":1,""viewing_time"":3997.0000004395843},{""page_index"":2,""viewing_time"":2679.999999701977},{""page_index"":3,""viewing_time"":3416.0000002011657},{""page_index"":4,""viewing_time"":2910.999999847263},{""page_index"":5,""viewing_time"":3327.000000048429},{""page_index"":6,""viewing_time"":2615.999999921769},{""page_index"":7,""viewing_time"":3958.000000100583},{""page_index"":8,""viewing_time"":2513.9999999664724}]","30129.00000018999","instructions","1","38756","0.0-1.0","SS1604514419166","","","","","","","","","","","","","","","","",""
"[{""page_index"":0,""viewing_time"":2066.0000001080334},{""page_index"":1,""viewing_time"":4886.999999638647},{""page_index"":2,""viewing_time"":3810.0000000558794}]","10763.999999966472","instructions","2","49528","0.0-2.0","SS1604514419166","","","","","","","","","","","","","","","","",""
"","5975.000000093132","practice-block","3","55707","0.0-3.0","SS1604514419166","<img src='images/practice/practice_background.jpeg' width ='500' height = '500' style='border:5px solid black'>","40","null","images/practice/practice_target.jpg","null","null","null","null","","200","6175.000000093132","","","","","",""
"","null","html-keyboard-response","4","56974","0.0-4.0","SS1604514419166","","null","","","","","","","","","","","","<img src=images/blank.png width =""500"" height = ""500"" style=""border:5px solid black"">","","",""
"","1027.9999999329448","practice-block","5","58217","0.0-5.0","SS1604514419166","<img src='images/practice/practice_background.jpeg' width ='500' height = '500' style='border:5px solid black'>","40","null","images/practice/practice_target.jpg","null","null","null","null","","200","1227.9999999329448","","","","","",""
"","null","html-keyboard-response","6","59177","0.0-6.0","SS1604514419166","","null","","","","","","","","","","","","<img src=images/blank.png width =""500"" height = ""500"" style=""border:5px solid black"">","","",""
"","598.000000230968","practice-block","7","60008","0.0-7.0","SS1604514419166","<img src='images/practice/practice_deviant.jpeg' width ='500' height = '500' style='border:5px solid black'>","40","null","images/practice/practice_target.jpg","null","null","null","null","","200","798.000000230968","","","","","",""
"","null","html-keyboard-response","8","60852","0.0-8.0","SS1604514419166","","null","","","","","","","","","","","","<img src=images/blank.png width =""500"" height = ""500"" style=""border:5px solid black"">","","",""
"","6402.999999932945","practice-block","9","67466","0.0-9.0-0.0","SS1604514419166","<img src='images/practice/practice_target.jpg' width ='500' height = '500' style='border:5px solid black'>","40","null","images/practice/practice_target.jpg","null","null","null","null","","200","6602.999999932945","yes","802.9999998398125","","","",""
"","null","html-keyboard-response","10","68371","0.0-10.0","SS1604514419166","","null","","","","","","","","","","","","<img src=images/blank.png width =""500"" height = ""500"" style=""border:5px solid black"">","","",""
"","636.9999996386468","practice-block","11","69217","0.0-11.0","SS1604514419166","<img src='images/practice/practice_background.jpeg' width ='500' height = '500' style='border:5px solid black'>","40","null","images/practice/practice_target.jpg","null","null","null","null","","200","836.9999996386468","","","","","",""
"[{""page_index"":0,""viewing_time"":2552}]","2554","task-instructions","12","71775","0.0-12.0","SS1604514419166","","","","","","","","","","","","","","","","",""
"[{""page_index"":0,""viewing_time"":8424.000000115484},{""page_index"":1,""viewing_time"":3765.000000130385},{""page_index"":2,""viewing_time"":2574.9999997206032}]","14765.000000130385","instructions","13","86544","0.0-13.0","SS1604514419166","","","","","","","","","","","","","","","","",""
"","null","html-keyboard-response","14","87386","0.0-14.0-0.0","SS1604514419166","","null","","","","","","","","","","","","<img src=images/blank.png width =""500"" height = ""500"" style=""border:5px solid black"">","","",""
"","1083.0000001005828","stimulus-presentation","15","88697","0.0-14.0-1.0","SS1604514419166","<img src='images/complex/3.png' width ='500' height = '500' style='border:5px solid black'>","40","all_complex","images/complex/10.png","images/complex/4.png","images/complex/12.png,images/complex/1.png,images/complex/3.png,images/complex/17.png,images/complex/15.png,images/complex/16.png,images/complex/7.png","0","null","","200","1283.0000001005828","","","","deviant","",""
"","null","html-keyboard-response","16","89958","0.0-14.0-0.1","SS1604514419166","","null","","","","","","","","","","","","<img src=images/blank.png width =""500"" height = ""500"" style=""border:5px solid black"">","","",""
"","594.0000000409782","stimulus-presentation","17","90790","0.0-14.0-1.1","SS1604514419166","<img src='images/complex/4.png' width ='500' height = '500' style='border:5px solid black'>","40","all_complex","images/complex/10.png","images/complex/4.png","images/complex/12.png,images/complex/1.png,images/complex/3.png,images/complex/17.png,images/complex/15.png,images/complex/16.png,images/complex/7.png","0","null","","200","794.0000000409782","","","","background","",""
"","null","html-keyboard-response","18","91762","0.0-14.0-0.2","SS1604514419166","","null","","","","","","","","","","","","<img src=images/blank.png width =""500"" height = ""500"" style=""border:5px solid black"">","","",""
"","541.9999998994172","stimulus-presentation","19","92515","0.0-14.0-1.2","SS1604514419166","<img src='images/complex/10.png' width ='500' height = '500' style='border:5px solid black'>","40","all_complex","images/complex/10.png","images/complex/4.png","images/complex/12.png,images/complex/1.png,images/complex/3.png,images/complex/17.png,images/complex/15.png,images/complex/16.png,images/complex/7.png","0","null","","200","741.9999998994172","","","","target","",""
"","null","html-keyboard-response","20","93420","0.0-14.0-0.3","SS1604514419166","","null","","","","","","","","","","","","<img src=images/blank.png width =""500"" height = ""500"" style=""border:5px solid black"">","","",""
"","603.0000001192093","stimulus-presentation","21","94233","0.0-14.0-1.3","SS1604514419166","<img src='images/complex/4.png' width ='500' height = '500' style='border:5px solid black'>","40","all_complex","images/complex/10.png","images/complex/4.png","images/complex/12.png,images/complex/1.png,images/complex/3.png,images/complex/17.png,images/complex/15.png,images/complex/16.png,images/complex/7.png","0","null","","200","803.0000001192093","","","","background","",""
"","null","html-keyboard-response","22","95395","0.0-14.0-0.4","SS1604514419166","","null","","","","","","","","","","","","<img src=images/blank.png width =""500"" height = ""500"" style=""border:5px solid black"">","","",""
"","682.9999997280538","stimulus-presentation","23","96306","0.0-14.0-1.4","SS1604514419166","<img src='images/complex/4.png' width ='500' height = '500' style='border:5px solid black'>","40","all_complex","images/complex/10.png","images/complex/4.png","images/complex/12.png,images/complex/1.png,images/complex/3.png,images/complex/17.png,images/complex/15.png,images/complex/16.png,images/complex/7.png","0","null","","200","882.9999997280538","","","","background","",""
"","null","html-keyboard-response","24","97598","0.0-14.0-0.5","SS1604514419166","","null","","","","","","","","","","","","<img src=images/blank.png width =""500"" height = ""500"" style=""border:5px solid black"">","","",""
"","641.9999999925494","stimulus-presentation","25","98474","0.0-14.0-1.5","SS1604514419166","<img src='images/complex/4.png' width ='500' height = '500' style='border:5px solid black'>","40","all_complex","images/complex/10.png","images/complex/4.png","images/complex/12.png,images/complex/1.png,images/complex/3.png,images/complex/17.png,images/complex/15.png,images/complex/16.png,images/complex/7.png","0","null","","200","841.9999999925494","","","","background","",""
"","null","html-keyboard-response","26","99433","0.0-14.0-0.6","SS1604514419166","","null","","","","","","","","","","","","<img src=images/blank.png width =""500"" height = ""500"" style=""border:5px solid black"">","","",""
"","1334.0000002644956","stimulus-presentation","27","100977","0.0-14.0-1.6","SS1604514419166","<img src='images/complex/10.png' width ='500' height = '500' style='border:5px solid black'>","40","all_complex","images/complex/10.png","images/complex/4.png","images/complex/12.png,images/complex/1.png,images/complex/3.png,images/complex/17.png,images/complex/15.png,images/complex/16.png,images/complex/7.png","0","null","","200","1534.0000002644956","yes","727.0000004209578","","target","",""
"","null","html-keyboard-response","28","101870","0.0-14.0-0.7","SS1604514419166","","null","","","","","","","","","","","","<img src=images/blank.png width =""500"" height = ""500"" style=""border:5px solid black"">","","",""
"","920.9999996237457","stimulus-presentation","29","103002","0.0-14.0-1.7","SS1604514419166","<img src='images/complex/16.png' width ='500' height = '500' style='border:5px solid black'>","40","all_complex","images/complex/10.png","images/complex/4.png","images/complex/12.png,images/complex/1.png,images/complex/3.png,images/complex/17.png,images/complex/15.png,images/complex/16.png,images/complex/7.png","0","null","","200","1120.9999996237457","","","","deviant","",""
"","null","html-keyboard-response","30","103973","0.0-14.0-0.8","SS1604514419166","","null","","","","","","","","","","","","<img src=images/blank.png width =""500"" height = ""500"" style=""border:5px solid black"">","","",""
"","714.0000001527369","stimulus-presentation","31","104898","0.0-14.0-1.8","SS1604514419166","<img src='images/complex/4.png' width ='500' height = '500' style='border:5px solid black'>","40","all_complex","images/complex/10.png","images/complex/4.png","images/complex/12.png,images/complex/1.png,images/complex/3.png,images/complex/17.png,images/complex/15.png,images/complex/16.png,images/complex/7.png","0","null","","200","914.0000001527369","","","","background","",""
"","null","html-keyboard-response","32","106102","0.0-14.0-0.9","SS1604514419166","","null","","","","","","","","","","","","<img src=images/blank.png width =""500"" height = ""500"" style=""border:5px solid black"">","","",""
"","540.0000000372529","stimulus-presentation","33","106876","0.0-14.0-1.9","SS1604514419166","<img src='images/complex/4.png' width ='500' height = '500' style='border:5px solid black'>","40","all_complex","images/complex/10.png","images/complex/4.png","images/complex/12.png,images/complex/1.png,images/complex/3.png,images/complex/17.png,images/complex/15.png,images/complex/16.png,images/complex/7.png","0","null","","200","740.0000000372529","","","","background","",""
"","null","html-keyboard-response","34","107961","0.0-14.0-0.10","SS1604514419166","","null","","","","","","","","","","","","<img src=images/blank.png width =""500"" height = ""500"" style=""border:5px solid black"">","","",""
"","616.0000003874302","stimulus-presentation","35","108790","0.0-14.0-1.10","SS1604514419166","<img src='images/complex/4.png' width ='500' height = '500' style='border:5px solid black'>","40","all_complex","images/complex/10.png","images/complex/4.png","images/complex/12.png,images/complex/1.png,images/complex/3.png,images/complex/17.png,images/complex/15.png,images/complex/16.png,images/complex/7.png","0","null","","200","816.0000003874302","","","","background","",""
"","null","html-keyboard-response","36","109844","0.0-14.0-0.11","SS1604514419166","","null","","","","","","","","","","","","<img src=images/blank.png width =""500"" height = ""500"" style=""border:5px solid black"">","","",""
"","655.0000002607703","stimulus-presentation","37","110713","0.0-14.0-1.11","SS1604514419166","<img src='images/complex/4.png' width ='500' height = '500' style='border:5px solid black'>","40","all_complex","images/complex/10.png","images/complex/4.png","images/complex/12.png,images/complex/1.png,images/complex/3.png,images/complex/17.png,images/complex/15.png,images/complex/16.png,images/complex/7.png","0","null","","200","855.0000002607703","","","","background","",""
"","null","html-keyboard-response","38","111684","0.0-14.0-0.12","SS1604514419166","","null","","","","","","","","","","","","<img src=images/blank.png width =""500"" height = ""500"" style=""border:5px solid black"">","","",""
"","972.0000000670552","stimulus-presentation","39","112868","0.0-14.0-1.12","SS1604514419166","<img src='images/complex/17.png' width ='500' height = '500' style='border:5px solid black'>","40","all_complex","images/complex/10.png","images/complex/4.png","images/complex/12.png,images/complex/1.png,images/complex/3.png,images/complex/17.png,images/complex/15.png,images/complex/16.png,images/complex/7.png","0","null","","200","1172.0000000670552","","","","deviant","",""
"","null","html-keyboard-response","40","114079","0.0-14.0-0.13","SS1604514419166","","null","","","","","","","","","","","","<img src=images/blank.png width =""500"" height = ""500"" style=""border:5px solid black"">","","",""
"","1862.0000001974404","stimulus-presentation","41","116154","0.0-14.0-1.13","SS1604514419166","<img src='images/complex/4.png' width ='500' height = '500' style='border:5px solid black'>","40","all_complex","images/complex/10.png","images/complex/4.png","images/complex/12.png,images/complex/1.png,images/complex/3.png,images/complex/17.png,images/complex/15.png,images/complex/16.png,images/complex/7.png","0","null","","200","2062.0000001974404","","","","background","",""
"","null","html-keyboard-response","42","116982","0.0-14.0-0.14","SS1604514419166","","null","","","","","","","","","","","","<img src=images/blank.png width =""500"" height = ""500"" style=""border:5px solid black"">","","",""
"","636.0000004060566","stimulus-presentation","43","117834","0.0-14.0-1.14","SS1604514419166","<img src='images/complex/4.png' width ='500' height = '500' style='border:5px solid black'>","40","all_complex","images/complex/10.png","images/complex/4.png","images/complex/12.png,images/complex/1.png,images/complex/3.png,images/complex/17.png,images/complex/15.png,images/complex/16.png,images/complex/7.png","0","null","","200","836.0000004060566","","","","background","",""
"","null","html-keyboard-response","44","119027","0.0-14.0-0.15","SS1604514419166","","null","","","","","","","","","","","","<img src=images/blank.png width =""500"" height = ""500"" style=""border:5px solid black"">","","",""
"","739.0000000596046","stimulus-presentation","45","119978","0.0-14.0-1.15","SS1604514419166","<img src='images/complex/4.png' width ='500' height = '500' style='border:5px solid black'>","40","all_complex","images/complex/10.png","images/complex/4.png","images/complex/12.png,images/complex/1.png,images/complex/3.png,images/complex/17.png,images/complex/15.png,images/complex/16.png,images/complex/7.png","0","null","","200","939.0000000596046","","","","background","",""
"","null","html-keyboard-response","46","120926","0.0-14.0-0.16","SS1604514419166","","null","","","","","","","","","","","","<img src=images/blank.png width =""500"" height = ""500"" style=""border:5px solid black"">","","",""
"","598.9999999292195","stimulus-presentation","47","121735","0.0-14.0-1.16","SS1604514419166","<img src='images/complex/4.png' width ='500' height = '500' style='border:5px solid black'>","40","all_complex","images/complex/10.png","images/complex/4.png","images/complex/12.png,images/complex/1.png,images/complex/3.png,images/complex/17.png,images/complex/15.png,images/complex/16.png,images/complex/7.png","0","null","","200","798.9999999292195","","","","background","",""
"","null","html-keyboard-response","48","122636","0.0-14.0-0.17","SS1604514419166","","null","","","","","","","","","","","","<img src=images/blank.png width =""500"" height = ""500"" style=""border:5px solid black"">","","",""
"","1306.0000003315508","stimulus-presentation","49","124152","0.0-14.0-1.17","SS1604514419166","<img src='images/complex/1.png' width ='500' height = '500' style='border:5px solid black'>","40","all_complex","images/complex/10.png","images/complex/4.png","images/complex/12.png,images/complex/1.png,images/complex/3.png,images/complex/17.png,images/complex/15.png,images/complex/16.png,images/complex/7.png","0","null","","200","1506.0000003315508","","","","deviant","",""
"","null","html-keyboard-response","50","125286","0.0-14.0-0.18","SS1604514419166","","null","","","","","","","","","","","","<img src=images/blank.png width =""500"" height = ""500"" style=""border:5px solid black"">","","",""
"","626.0000001639128","stimulus-presentation","51","126157","0.0-14.0-1.18","SS1604514419166","<img src='images/complex/4.png' width ='500' height = '500' style='border:5px solid black'>","40","all_complex","images/complex/10.png","images/complex/4.png","images/complex/12.png,images/complex/1.png,images/complex/3.png,images/complex/17.png,images/complex/15.png,images/complex/16.png,images/complex/7.png","0","null","","200","826.0000001639128","","","","background","",""
"","null","html-keyboard-response","52","127248","0.0-14.0-0.19","SS1604514419166","","null","","","","","","","","","","","","<img src=images/blank.png width =""500"" height = ""500"" style=""border:5px solid black"">","","",""
"","4714.000000152737","stimulus-presentation","53","132210","0.0-14.0-1.19","SS1604514419166","<img src='images/complex/4.png' width ='500' height = '500' style='border:5px solid black'>","40","all_complex","images/complex/10.png","images/complex/4.png","images/complex/12.png,images/complex/1.png,images/complex/3.png,images/complex/17.png,images/complex/15.png,images/complex/16.png,images/complex/7.png","0","null","","200","4914.000000152737","","","","background","",""
"","null","html-keyboard-response","54","133067","0.0-14.0-0.20","SS1604514419166","","null","","","","","","","","","","","","<img src=images/blank.png width =""500"" height = ""500"" style=""border:5px solid black"">","","",""
"","5938.999999780208","stimulus-presentation","55","139239","0.0-14.0-1.20","SS1604514419166","<img src='images/complex/10.png' width ='500' height = '500' style='border:5px solid black'>","40","all_complex","images/complex/10.png","images/complex/4.png","images/complex/12.png,images/complex/1.png,images/complex/3.png,images/complex/17.png,images/complex/15.png,images/complex/16.png,images/complex/7.png","0","null","","200","6138.999999780208","yes","4354.999999981374","","target","",""
"","null","html-keyboard-response","56","140436","0.0-14.0-0.21","SS1604514419166","","null","","","","","","","","","","","","<img src=images/blank.png width =""500"" height = ""500"" style=""border:5px solid black"">","","",""
"","7435.000000055879","stimulus-presentation","57","148103","0.0-14.0-1.21","SS1604514419166","<img src='images/complex/4.png' width ='500' height = '500' style='border:5px solid black'>","40","all_complex","images/complex/10.png","images/complex/4.png","images/complex/12.png,images/complex/1.png,images/complex/3.png,images/complex/17.png,images/complex/15.png,images/complex/16.png,images/complex/7.png","0","null","","200","7635.000000055879","","","","background","",""
"","null","html-keyboard-response","58","149435","0.0-14.0-0.22","SS1604514419166","","null","","","","","","","","","","","","<img src=images/blank.png width =""500"" height = ""500"" style=""border:5px solid black"">","","",""
"","3949.0000000223517","stimulus-presentation","59","153666","0.0-14.0-1.22","SS1604514419166","<img src='images/complex/4.png' width ='500' height = '500' style='border:5px solid black'>","40","all_complex","images/complex/10.png","images/complex/4.png","images/complex/12.png,images/complex/1.png,images/complex/3.png,images/complex/17.png,images/complex/15.png,images/complex/16.png,images/complex/7.png","0","null","","200","4149.000000022352","","","","background","",""
"","null","html-keyboard-response","60","154507","0.0-14.0-0.23","SS1604514419166","","null","","","","","","","","","","","","<img src=images/blank.png width =""500"" height = ""500"" style=""border:5px solid black"">","","",""
"","1346.0000003688037","stimulus-presentation","61","156067","0.0-14.0-1.23","SS1604514419166","<img src='images/complex/7.png' width ='500' height = '500' style='border:5px solid black'>","40","all_complex","images/complex/10.png","images/complex/4.png","images/complex/12.png,images/complex/1.png,images/complex/3.png,images/complex/17.png,images/complex/15.png,images/complex/16.png,images/complex/7.png","0","null","","200","1546.0000003688037","","","","deviant","",""
"","null","html-keyboard-response","62","157024","0.0-14.0-0.24","SS1604514419166","","null","","","","","","","","","","","","<img src=images/blank.png width =""500"" height = ""500"" style=""border:5px solid black"">","","",""
"","729.9999999813735","stimulus-presentation","63","157968","0.0-14.0-1.24","SS1604514419166","<img src='images/complex/4.png' width ='500' height = '500' style='border:5px solid black'>","40","all_complex","images/complex/10.png","images/complex/4.png","images/complex/12.png,images/complex/1.png,images/complex/3.png,images/complex/17.png,images/complex/15.png,images/complex/16.png,images/complex/7.png","0","null","","200","929.9999999813735","","","","background","",""
"","null","html-keyboard-response","64","158913","0.0-14.0-0.25","SS1604514419166","","null","","","","","","","","","","","","<img src=images/blank.png width =""500"" height = ""500"" style=""border:5px solid black"">","","",""
"","550.9999999776483","stimulus-presentation","65","159675","0.0-14.0-1.25","SS1604514419166","<img src='images/complex/4.png' width ='500' height = '500' style='border:5px solid black'>","40","all_complex","images/complex/10.png","images/complex/4.png","images/complex/12.png,images/complex/1.png,images/complex/3.png,images/complex/17.png,images/complex/15.png,images/complex/16.png,images/complex/7.png","0","null","","200","750.9999999776483","","","","background","",""
"","null","html-keyboard-response","66","160886","0.0-14.0-0.26","SS1604514419166","","null","","","","","","","","","","","","<img src=images/blank.png width =""500"" height = ""500"" style=""border:5px solid black"">","","",""
"","804.9999997019768","stimulus-presentation","67","162002","0.0-14.0-1.26","SS1604514419166","<img src='images/complex/4.png' width ='500' height = '500' style='border:5px solid black'>","40","all_complex","images/complex/10.png","images/complex/4.png","images/complex/12.png,images/complex/1.png,images/complex/3.png,images/complex/17.png,images/complex/15.png,images/complex/16.png,images/complex/7.png","0","null","","200","1004.9999997019768","","","","background","",""
"","null","html-keyboard-response","68","163075","0.0-14.0-0.27","SS1604514419166","","null","","","","","","","","","","","","<img src=images/blank.png width =""500"" height = ""500"" style=""border:5px solid black"">","","",""
"","617.0000000856817","stimulus-presentation","69","163927","0.0-14.0-1.27","SS1604514419166","<img src='images/complex/4.png' width ='500' height = '500' style='border:5px solid black'>","40","all_complex","images/complex/10.png","images/complex/4.png","images/complex/12.png,images/complex/1.png,images/complex/3.png,images/complex/17.png,images/complex/15.png,images/complex/16.png,images/complex/7.png","0","null","","200","817.0000000856817","","","","background","",""
"","null","html-keyboard-response","70","165202","0.0-14.0-0.28","SS1604514419166","","null","","","","","","","","","","","","<img src=images/blank.png width =""500"" height = ""500"" style=""border:5px solid black"">","","",""
"","2029.999999795109","stimulus-presentation","71","167466","0.0-14.0-1.28","SS1604514419166","<img src='images/complex/10.png' width ='500' height = '500' style='border:5px solid black'>","40","all_complex","images/complex/10.png","images/complex/4.png","images/complex/12.png,images/complex/1.png,images/complex/3.png,images/complex/17.png,images/complex/15.png,images/complex/16.png,images/complex/7.png","0","null","","200","2229.999999795109","yes","741.9999996200204","","target","",""
"","null","html-keyboard-response","72","168623","0.0-14.0-0.29","SS1604514419166","","null","","","","","","","","","","","","<img src=images/blank.png width =""500"" height = ""500"" style=""border:5px solid black"">","","",""
"","597.9999997653067","stimulus-presentation","73","169435","0.0-14.0-1.29","SS1604514419166","<img src='images/complex/4.png' width ='500' height = '500' style='border:5px solid black'>","40","all_complex","images/complex/10.png","images/complex/4.png","images/complex/12.png,images/complex/1.png,images/complex/3.png,images/complex/17.png,images/complex/15.png,images/complex/16.png,images/complex/7.png","0","null","","200","797.9999997653067","","","","background","",""
"","null","html-keyboard-response","74","170281","0.0-14.0-0.30","SS1604514419166","","null","","","","","","","","","","","","<img src=images/blank.png width =""500"" height = ""500"" style=""border:5px solid black"">","","",""
"","615.0000002235174","stimulus-presentation","75","171110","0.0-14.0-1.30","SS1604514419166","<img src='images/complex/4.png' width ='500' height = '500' style='border:5px solid black'>","40","all_complex","images/complex/10.png","images/complex/4.png","images/complex/12.png,images/complex/1.png,images/complex/3.png,images/complex/17.png,images/complex/15.png,images/complex/16.png,images/complex/7.png","0","null","","200","815.0000002235174","","","","background","",""
"","null","html-keyboard-response","76","172055","0.0-14.0-0.31","SS1604514419166","","null","","","","","","","","","","","","<img src=images/blank.png width =""500"" height = ""500"" style=""border:5px solid black"">","","",""
"","512.0000001043081","stimulus-presentation","77","172778","0.0-14.0-1.31","SS1604514419166","<img src='images/complex/10.png' width ='500' height = '500' style='border:5px solid black'>","40","all_complex","images/complex/10.png","images/complex/4.png","images/complex/12.png,images/complex/1.png,images/complex/3.png,images/complex/17.png,images/complex/15.png,images/complex/16.png,images/complex/7.png","0","null","","200","712.0000001043081","","","","target","",""
"","null","html-keyboard-response","78","173736","0.0-14.0-0.32","SS1604514419166","","null","","","","","","","","","","","","<img src=images/blank.png width =""500"" height = ""500"" style=""border:5px solid black"">","","",""
"","1788.9999998733401","stimulus-presentation","79","175738","0.0-14.0-1.32","SS1604514419166","<img src='images/complex/10.png' width ='500' height = '500' style='border:5px solid black'>","40","all_complex","images/complex/10.png","images/complex/4.png","images/complex/12.png,images/complex/1.png,images/complex/3.png,images/complex/17.png,images/complex/15.png,images/complex/16.png,images/complex/7.png","0","null","","200","1988.9999998733401","yes","797.9999999515712","","target","",""
"","null","html-keyboard-response","80","177036","0.0-14.0-0.33","SS1604514419166","","null","","","","","","","","","","","","<img src=images/blank.png width =""500"" height = ""500"" style=""border:5px solid black"">","","",""
"","1263.000000268221","stimulus-presentation","81","178513","0.0-14.0-1.33","SS1604514419166","<img src='images/complex/4.png' width ='500' height = '500' style='border:5px solid black'>","40","all_complex","images/complex/10.png","images/complex/4.png","images/complex/12.png,images/complex/1.png,images/complex/3.png,images/complex/17.png,images/complex/15.png,images/complex/16.png,images/complex/7.png","0","null","","200","1463.000000268221","","","","background","",""
"","null","html-keyboard-response","82","179503","0.0-14.0-0.34","SS1604514419166","","null","","","","","","","","","","","","<img src=images/blank.png width =""500"" height = ""500"" style=""border:5px solid black"">","","",""
"","581.9999999366701","stimulus-presentation","83","180305","0.0-14.0-1.34","SS1604514419166","<img src='images/complex/4.png' width ='500' height = '500' style='border:5px solid black'>","40","all_complex","images/complex/10.png","images/complex/4.png","images/complex/12.png,images/complex/1.png,images/complex/3.png,images/complex/17.png,images/complex/15.png,images/complex/16.png,images/complex/7.png","0","null","","200","781.9999999366701","","","","background","",""
"","null","html-keyboard-response","84","181488","0.0-14.0-0.35","SS1604514419166","","null","","","","","","","","","","","","<img src=images/blank.png width =""500"" height = ""500"" style=""border:5px solid black"">","","",""
"","694.0000001341105","stimulus-presentation","85","182398","0.0-14.0-1.35","SS1604514419166","<img src='images/complex/4.png' width ='500' height = '500' style='border:5px solid black'>","40","all_complex","images/complex/10.png","images/complex/4.png","images/complex/12.png,images/complex/1.png,images/complex/3.png,images/complex/17.png,images/complex/15.png,images/complex/16.png,images/complex/7.png","0","null","","200","894.0000001341105","","","","background","",""
"","null","html-keyboard-response","86","183570","0.0-14.0-0.36","SS1604514419166","","null","","","","","","","","","","","","<img src=images/blank.png width =""500"" height = ""500"" style=""border:5px solid black"">","","",""
"","844.0000000409782","stimulus-presentation","87","184631","0.0-14.0-1.36","SS1604514419166","<img src='images/complex/4.png' width ='500' height = '500' style='border:5px solid black'>","40","all_complex","images/complex/10.png","images/complex/4.png","images/complex/12.png,images/complex/1.png,images/complex/3.png,images/complex/17.png,images/complex/15.png,images/complex/16.png,images/complex/7.png","0","null","","200","1044.0000000409782","","","","background","",""
"","null","html-keyboard-response","88","185792","0.0-14.0-0.37","SS1604514419166","","null","","","","","","","","","","","","<img src=images/blank.png width =""500"" height = ""500"" style=""border:5px solid black"">","","",""
"","669.9999999254942","stimulus-presentation","89","186720","0.0-14.0-1.37","SS1604514419166","<img src='images/complex/4.png' width ='500' height = '500' style='border:5px solid black'>","40","all_complex","images/complex/10.png","images/complex/4.png","images/complex/12.png,images/complex/1.png,images/complex/3.png,images/complex/17.png,images/complex/15.png,images/complex/16.png,images/complex/7.png","0","null","","200","869.9999999254942","","","","background","",""
"","null","html-keyboard-response","90","187625","0.0-14.0-0.38","SS1604514419166","","null","","","","","","","","","","","","<img src=images/blank.png width =""500"" height = ""500"" style=""border:5px solid black"">","","",""
"","693.000000435859","stimulus-presentation","91","188529","0.0-14.0-1.38","SS1604514419166","<img src='images/complex/4.png' width ='500' height = '500' style='border:5px solid black'>","40","all_complex","images/complex/10.png","images/complex/4.png","images/complex/12.png,images/complex/1.png,images/complex/3.png,images/complex/17.png,images/complex/15.png,images/complex/16.png,images/complex/7.png","0","null","","200","893.000000435859","","","","background","",""
"","null","html-keyboard-response","92","189427","0.0-14.0-0.39","SS1604514419166","","null","","","","","","","","","","","","<img src=images/blank.png width =""500"" height = ""500"" style=""border:5px solid black"">","","",""
"","1611.0000000335276","stimulus-presentation","93","191252","0.0-14.0-1.39","SS1604514419166","<img src='images/complex/15.png' width ='500' height = '500' style='border:5px solid black'>","40","all_complex","images/complex/10.png","images/complex/4.png","images/complex/12.png,images/complex/1.png,images/complex/3.png,images/complex/17.png,images/complex/15.png,images/complex/16.png,images/complex/7.png","0","null","","200","1811.0000000335276","","","","deviant","",""
"","null","html-keyboard-response","94","192554","0.0-14.0-0.40","SS1604514419166","","null","","","","","","","","","","","","<img src=images/blank.png width =""500"" height = ""500"" style=""border:5px solid black"">","","",""
"","583.9999997988343","stimulus-presentation","95","193410","0.0-14.0-1.40","SS1604514419166","<img src='images/complex/4.png' width ='500' height = '500' style='border:5px solid black'>","40","all_complex","images/complex/10.png","images/complex/4.png","images/complex/12.png,images/complex/1.png,images/complex/3.png,images/complex/17.png,images/complex/15.png,images/complex/16.png,images/complex/7.png","0","null","","200","783.9999997988343","","","","background","",""
"","null","html-keyboard-response","96","194517","0.0-14.0-0.41","SS1604514419166","","null","","","","","","","","","","","","<img src=images/blank.png width =""500"" height = ""500"" style=""border:5px solid black"">","","",""
"","30490.99999992177","stimulus-presentation","97","225258","0.0-14.0-1.41","SS1604514419166","<img src='images/complex/10.png' width ='500' height = '500' style='border:5px solid black'>","40","all_complex","images/complex/10.png","images/complex/4.png","images/complex/12.png,images/complex/1.png,images/complex/3.png,images/complex/17.png,images/complex/15.png,images/complex/16.png,images/complex/7.png","0","null","","200","30690.99999992177","yes","799.9999998137355","","target","",""
"","null","html-keyboard-response","98","226583","0.0-14.0-0.42","SS1604514419166","","null","","","","","","","","","","","","<img src=images/blank.png width =""500"" height = ""500"" style=""border:5px solid black"">","","",""
"","2717.9999998770654","stimulus-presentation","99","229545","0.0-14.0-1.42","SS1604514419166","<img src='images/complex/4.png' width ='500' height = '500' style='border:5px solid black'>","40","all_complex","images/complex/10.png","images/complex/4.png","images/complex/12.png,images/complex/1.png,images/complex/3.png,images/complex/17.png,images/complex/15.png,images/complex/16.png,images/complex/7.png","0","null","","200","2917.9999998770654","","","","background","",""
"","null","html-keyboard-response","100","230816","0.0-14.0-0.43","SS1604514419166","","null","","","","","","","","","","","","<img src=images/blank.png width =""500"" height = ""500"" style=""border:5px solid black"">","","",""
"","2083.9999997988343","stimulus-presentation","101","233164","0.0-14.0-1.43","SS1604514419166","<img src='images/complex/12.png' width ='500' height = '500' style='border:5px solid black'>","40","all_complex","images/complex/10.png","images/complex/4.png","images/complex/12.png,images/complex/1.png,images/complex/3.png,images/complex/17.png,images/complex/15.png,images/complex/16.png,images/complex/7.png","0","null","","200","2283.9999997988343","","","","deviant","",""
"","null","html-keyboard-response","102","234234","0.0-14.0-0.44","SS1604514419166","","null","","","","","","","","","","","","<img src=images/blank.png width =""500"" height = ""500"" style=""border:5px solid black"">","","",""
"","1036.0000003129244","stimulus-presentation","103","235509","0.0-14.0-1.44","SS1604514419166","<img src='images/complex/4.png' width ='500' height = '500' style='border:5px solid black'>","40","all_complex","images/complex/10.png","images/complex/4.png","images/complex/12.png,images/complex/1.png,images/complex/3.png,images/complex/17.png,images/complex/15.png,images/complex/16.png,images/complex/7.png","0","null","","200","1236.0000003129244","","","","background","",""
"","null","html-keyboard-response","104","236593","0.0-14.0-0.45","SS1604514419166","","null","","","","","","","","","","","","<img src=images/blank.png width =""500"" height = ""500"" style=""border:5px solid black"">","","",""
"","1442.0000002719462","stimulus-presentation","105","238279","0.0-14.0-1.45","SS1604514419166","<img src='images/complex/4.png' width ='500' height = '500' style='border:5px solid black'>","40","all_complex","images/complex/10.png","images/complex/4.png","images/complex/12.png,images/complex/1.png,images/complex/3.png,images/complex/17.png,images/complex/15.png,images/complex/16.png,images/complex/7.png","0","null","","200","1642.0000002719462","","","","background","",""
"","null","html-keyboard-response","106","239642","0.0-14.0-0.46","SS1604514419166","","null","","","","","","","","","","","","<img src=images/blank.png width =""500"" height = ""500"" style=""border:5px solid black"">","","",""
"","750.9999996982515","stimulus-presentation","107","240602","0.0-14.0-1.46","SS1604514419166","<img src='images/complex/4.png' width ='500' height = '500' style='border:5px solid black'>","40","all_complex","images/complex/10.png","images/complex/4.png","images/complex/12.png,images/complex/1.png,images/complex/3.png,images/complex/17.png,images/complex/15.png,images/complex/16.png,images/complex/7.png","0","null","","200","950.9999996982515","","","","background","",""
"","null","html-keyboard-response","108","241484","0.0-14.0-0.47","SS1604514419166","","null","","","","","","","","","","","","<img src=images/blank.png width =""500"" height = ""500"" style=""border:5px solid black"">","","",""
"","522.000000346452","stimulus-presentation","109","242225","0.0-14.0-1.47","SS1604514419166","<img src='images/complex/4.png' width ='500' height = '500' style='border:5px solid black'>","40","all_complex","images/complex/10.png","images/complex/4.png","images/complex/12.png,images/complex/1.png,images/complex/3.png,images/complex/17.png,images/complex/15.png,images/complex/16.png,images/complex/7.png","0","null","","200","722.000000346452","","","","background","",""
"","null","html-keyboard-response","110","243088","0.0-14.0-0.48","SS1604514419166","","null","","","","","","","","","","","","<img src=images/blank.png width =""500"" height = ""500"" style=""border:5px solid black"">","","",""
"","533.9999999850988","stimulus-presentation","111","243846","0.0-14.0-1.48","SS1604514419166","<img src='images/complex/4.png' width ='500' height = '500' style='border:5px solid black'>","40","all_complex","images/complex/10.png","images/complex/4.png","images/complex/12.png,images/complex/1.png,images/complex/3.png,images/complex/17.png,images/complex/15.png,images/complex/16.png,images/complex/7.png","0","null","","200","733.9999999850988","","","","background","",""
"[{""page_index"":0,""viewing_time"":2437}]","2438","task-instructions","112","246289","0.0-15.0","SS1604514419166","","","","","","","","","","","","","","","","",""
"[{""page_index"":0,""viewing_time"":26731.000000145286},{""page_index"":1,""viewing_time"":73688.99999978021},{""page_index"":2,""viewing_time"":2038.0000001750886}]","102458.99999979883","instructions","113","348756","0.0-16.0","SS1604514419166","","","","","","","","","","","","","","","","",""
"","null","html-keyboard-response","114","349714","0.0-17.0-0.0","SS1604514419166","","null","","","","","","","","","","","","<img src=images/blank.png width =""500"" height = ""500"" style=""border:5px solid black"">","","",""
"","25530.99999995902","stimulus-presentation","115","375462","0.0-17.0-1.0","SS1604514419166","<img src='images/simple/15.png' width ='500' height = '500' style='border:5px solid black'>","40","all_simple","images/simple/18.png","images/simple/15.png","images/simple/5.png,images/simple/14.png,images/simple/6.png,images/simple/17.png,images/simple/11.png,images/simple/8.png,images/simple/9.png","1","null","","200","25730.99999995902","","","","background","",""
"","null","html-keyboard-response","116","376406","0.0-17.0-0.1","SS1604514419166","","null","","","","","","","","","","","","<img src=images/blank.png width =""500"" height = ""500"" style=""border:5px solid black"">","","",""
"","831.9999999366701","stimulus-presentation","117","377453","0.0-17.0-1.1","SS1604514419166","<img src='images/simple/15.png' width ='500' height = '500' style='border:5px solid black'>","40","all_simple","images/simple/18.png","images/simple/15.png","images/simple/5.png,images/simple/14.png,images/simple/6.png,images/simple/17.png,images/simple/11.png,images/simple/8.png,images/simple/9.png","1","null","","200","1031.99999993667","","","","background","",""
"","null","html-keyboard-response","118","378513","0.0-17.0-0.2","SS1604514419166","","null","","","","","","","","","","","","<img src=images/blank.png width =""500"" height = ""500"" style=""border:5px solid black"">","","",""
"","617.0000000856817","stimulus-presentation","119","379345","0.0-17.0-1.2","SS1604514419166","<img src='images/simple/15.png' width ='500' height = '500' style='border:5px solid black'>","40","all_simple","images/simple/18.png","images/simple/15.png","images/simple/5.png,images/simple/14.png,images/simple/6.png,images/simple/17.png,images/simple/11.png,images/simple/8.png,images/simple/9.png","1","null","","200","817.0000000856817","","","","background","",""
"","null","html-keyboard-response","120","380203","0.0-17.0-0.3","SS1604514419166","","null","","","","","","","","","","","","<img src=images/blank.png width =""500"" height = ""500"" style=""border:5px solid black"">","","",""
"","1574.0000000223517","stimulus-presentation","121","381993","0.0-17.0-1.3","SS1604514419166","<img src='images/simple/18.png' width ='500' height = '500' style='border:5px solid black'>","40","all_simple","images/simple/18.png","images/simple/15.png","images/simple/5.png,images/simple/14.png,images/simple/6.png,images/simple/17.png,images/simple/11.png,images/simple/8.png,images/simple/9.png","1","null","","200","1774.0000000223517","yes","870.0000001117587","","target","",""
"","null","html-keyboard-response","122","383284","0.0-17.0-0.4","SS1604514419166","","null","","","","","","","","","","","","<img src=images/blank.png width =""500"" height = ""500"" style=""border:5px solid black"">","","",""
"","911.0000003129244","stimulus-presentation","123","384409","0.0-17.0-1.4","SS1604514419166","<img src='images/simple/15.png' width ='500' height = '500' style='border:5px solid black'>","40","all_simple","images/simple/18.png","images/simple/15.png","images/simple/5.png,images/simple/14.png,images/simple/6.png,images/simple/17.png,images/simple/11.png,images/simple/8.png,images/simple/9.png","1","null","","200","1111.0000003129244","","","","background","",""
"","null","html-keyboard-response","124","385498","0.0-17.0-0.5","SS1604514419166","","null","","","","","","","","","","","","<img src=images/blank.png width =""500"" height = ""500"" style=""border:5px solid black"">","","",""
"","535.9999998472631","stimulus-presentation","125","386249","0.0-17.0-1.5","SS1604514419166","<img src='images/simple/15.png' width ='500' height = '500' style='border:5px solid black'>","40","all_simple","images/simple/18.png","images/simple/15.png","images/simple/5.png,images/simple/14.png,images/simple/6.png,images/simple/17.png,images/simple/11.png,images/simple/8.png,images/simple/9.png","1","null","","200","735.9999998472631","","","","background","",""
"","null","html-keyboard-response","126","387437","0.0-17.0-0.6","SS1604514419166","","null","","","","","","","","","","","","<img src=images/blank.png width =""500"" height = ""500"" style=""border:5px solid black"">","","",""
"","499.0000003017485","stimulus-presentation","127","388176","0.0-17.0-1.6","SS1604514419166","<img src='images/simple/15.png' width ='500' height = '500' style='border:5px solid black'>","40","all_simple","images/simple/18.png","images/simple/15.png","images/simple/5.png,images/simple/14.png,images/simple/6.png,images/simple/17.png,images/simple/11.png,images/simple/8.png,images/simple/9.png","1","null","","200","699.0000003017485","","","","background","",""
"","null","html-keyboard-response","128","389192","0.0-17.0-0.7","SS1604514419166","","null","","","","","","","","","","","","<img src=images/blank.png width =""500"" height = ""500"" style=""border:5px solid black"">","","",""
"","569.0000001341105","stimulus-presentation","129","389976","0.0-17.0-1.7","SS1604514419166","<img src='images/simple/15.png' width ='500' height = '500' style='border:5px solid black'>","40","all_simple","images/simple/18.png","images/simple/15.png","images/simple/5.png,images/simple/14.png,images/simple/6.png,images/simple/17.png,images/simple/11.png,images/simple/8.png,images/simple/9.png","1","null","","200","769.0000001341105","","","","background","",""
"","null","html-keyboard-response","130","391406","0.0-17.0-0.8","SS1604514419166","","null","","","","","","","","","","","","<img src=images/blank.png width =""500"" height = ""500"" style=""border:5px solid black"">","","",""
"","1017.9999996908009","stimulus-presentation","131","392633","0.0-17.0-1.8","SS1604514419166","<img src='images/simple/17.png' width ='500' height = '500' style='border:5px solid black'>","40","all_simple","images/simple/18.png","images/simple/15.png","images/simple/5.png,images/simple/14.png,images/simple/6.png,images/simple/17.png,images/simple/11.png,images/simple/8.png,images/simple/9.png","1","null","","200","1217.999999690801","","","","deviant","",""
"","null","html-keyboard-response","132","393649","0.0-17.0-0.9","SS1604514419166","","null","","","","","","","","","","","","<img src=images/blank.png width =""500"" height = ""500"" style=""border:5px solid black"">","","",""
"","642.9999996908009","stimulus-presentation","133","394513","0.0-17.0-1.9","SS1604514419166","<img src='images/simple/15.png' width ='500' height = '500' style='border:5px solid black'>","40","all_simple","images/simple/18.png","images/simple/15.png","images/simple/5.png,images/simple/14.png,images/simple/6.png,images/simple/17.png,images/simple/11.png,images/simple/8.png,images/simple/9.png","1","null","","200","842.9999996908009","","","","background","",""
"","null","html-keyboard-response","134","395489","0.0-17.0-0.10","SS1604514419166","","null","","","","","","","","","","","","<img src=images/blank.png width =""500"" height = ""500"" style=""border:5px solid black"">","","",""
"","526.0000000707805","stimulus-presentation","135","396233","0.0-17.0-1.10","SS1604514419166","<img src='images/simple/15.png' width ='500' height = '500' style='border:5px solid black'>","40","all_simple","images/simple/18.png","images/simple/15.png","images/simple/5.png,images/simple/14.png,images/simple/6.png,images/simple/17.png,images/simple/11.png,images/simple/8.png,images/simple/9.png","1","null","","200","726.0000000707805","","","","background","",""
"","null","html-keyboard-response","136","397147","0.0-17.0-0.11","SS1604514419166","","null","","","","","","","","","","","","<img src=images/blank.png width =""500"" height = ""500"" style=""border:5px solid black"">","","",""
"","543.9999997615814","stimulus-presentation","137","397905","0.0-17.0-1.11","SS1604514419166","<img src='images/simple/15.png' width ='500' height = '500' style='border:5px solid black'>","40","all_simple","images/simple/18.png","images/simple/15.png","images/simple/5.png,images/simple/14.png,images/simple/6.png,images/simple/17.png,images/simple/11.png,images/simple/8.png,images/simple/9.png","1","null","","200","743.9999997615814","","","","background","",""
"","null","html-keyboard-response","138","398722","0.0-17.0-0.12","SS1604514419166","","null","","","","","","","","","","","","<img src=images/blank.png width =""500"" height = ""500"" style=""border:5px solid black"">","","",""
"","552.000000141561","stimulus-presentation","139","399489","0.0-17.0-1.12","SS1604514419166","<img src='images/simple/15.png' width ='500' height = '500' style='border:5px solid black'>","40","all_simple","images/simple/18.png","images/simple/15.png","images/simple/5.png,images/simple/14.png,images/simple/6.png,images/simple/17.png,images/simple/11.png,images/simple/8.png,images/simple/9.png","1","null","","200","752.000000141561","","","","background","",""
"","null","html-keyboard-response","140","400660","0.0-17.0-0.13","SS1604514419166","","null","","","","","","","","","","","","<img src=images/blank.png width =""500"" height = ""500"" style=""border:5px solid black"">","","",""
"","1309.0000003576279","stimulus-presentation","141","402186","0.0-17.0-1.13","SS1604514419166","<img src='images/simple/18.png' width ='500' height = '500' style='border:5px solid black'>","40","all_simple","images/simple/18.png","images/simple/15.png","images/simple/5.png,images/simple/14.png,images/simple/6.png,images/simple/17.png,images/simple/11.png,images/simple/8.png,images/simple/9.png","1","null","","200","1509.0000003576279","yes","643.0000001564622","","target","",""
"","null","html-keyboard-response","142","403193","0.0-17.0-0.14","SS1604514419166","","null","","","","","","","","","","","","<img src=images/blank.png width =""500"" height = ""500"" style=""border:5px solid black"">","","",""
"","552.000000141561","stimulus-presentation","143","403962","0.0-17.0-1.14","SS1604514419166","<img src='images/simple/18.png' width ='500' height = '500' style='border:5px solid black'>","40","all_simple","images/simple/18.png","images/simple/15.png","images/simple/5.png,images/simple/14.png,images/simple/6.png,images/simple/17.png,images/simple/11.png,images/simple/8.png,images/simple/9.png","1","null","","200","752.000000141561","","","","target","",""
"","null","html-keyboard-response","144","405235","0.0-17.0-0.15","SS1604514419166","","null","","","","","","","","","","","","<img src=images/blank.png width =""500"" height = ""500"" style=""border:5px solid black"">","","",""
"","560.9999997541308","stimulus-presentation","145","406004","0.0-17.0-1.15","SS1604514419166","<img src='images/simple/15.png' width ='500' height = '500' style='border:5px solid black'>","40","all_simple","images/simple/18.png","images/simple/15.png","images/simple/5.png,images/simple/14.png,images/simple/6.png,images/simple/17.png,images/simple/11.png,images/simple/8.png,images/simple/9.png","1","null","","200","760.9999997541308","","","","background","",""
"","null","html-keyboard-response","146","407231","0.0-17.0-0.16","SS1604514419166","","null","","","","","","","","","","","","<img src=images/blank.png width =""500"" height = ""500"" style=""border:5px solid black"">","","",""
"","567.0000002719462","stimulus-presentation","147","408017","0.0-17.0-1.16","SS1604514419166","<img src='images/simple/15.png' width ='500' height = '500' style='border:5px solid black'>","40","all_simple","images/simple/18.png","images/simple/15.png","images/simple/5.png,images/simple/14.png,images/simple/6.png,images/simple/17.png,images/simple/11.png,images/simple/8.png,images/simple/9.png","1","null","","200","767.0000002719462","","","","background","",""
"","null","html-keyboard-response","148","409068","0.0-17.0-0.17","SS1604514419166","","null","","","","","","","","","","","","<img src=images/blank.png width =""500"" height = ""500"" style=""border:5px solid black"">","","",""
"","763.9999999664724","stimulus-presentation","149","410050","0.0-17.0-1.17","SS1604514419166","<img src='images/simple/6.png' width ='500' height = '500' style='border:5px solid black'>","40","all_simple","images/simple/18.png","images/simple/15.png","images/simple/5.png,images/simple/14.png,images/simple/6.png,images/simple/17.png,images/simple/11.png,images/simple/8.png,images/simple/9.png","1","null","","200","963.9999999664724","","","","deviant","",""
"","null","html-keyboard-response","150","410878","0.0-17.0-0.18","SS1604514419166","","null","","","","","","","","","","","","<img src=images/blank.png width =""500"" height = ""500"" style=""border:5px solid black"">","","",""
"","729.9999999813735","stimulus-presentation","151","411826","0.0-17.0-1.18","SS1604514419166","<img src='images/simple/15.png' width ='500' height = '500' style='border:5px solid black'>","40","all_simple","images/simple/18.png","images/simple/15.png","images/simple/5.png,images/simple/14.png,images/simple/6.png,images/simple/17.png,images/simple/11.png,images/simple/8.png,images/simple/9.png","1","null","","200","929.9999999813735","","","","background","",""
"","null","html-keyboard-response","152","412995","0.0-17.0-0.19","SS1604514419166","","null","","","","","","","","","","","","<img src=images/blank.png width =""500"" height = ""500"" style=""border:5px solid black"">","","",""
"","490.9999999217689","stimulus-presentation","153","413729","0.0-17.0-1.19","SS1604514419166","<img src='images/simple/15.png' width ='500' height = '500' style='border:5px solid black'>","40","all_simple","images/simple/18.png","images/simple/15.png","images/simple/5.png,images/simple/14.png,images/simple/6.png,images/simple/17.png,images/simple/11.png,images/simple/8.png,images/simple/9.png","1","null","","200","690.9999999217689","","","","background","",""
"","null","html-keyboard-response","154","414865","0.0-17.0-0.20","SS1604514419166","","null","","","","","","","","","","","","<img src=images/blank.png width =""500"" height = ""500"" style=""border:5px solid black"">","","",""
"","547.0000002533197","stimulus-presentation","155","415651","0.0-17.0-1.20","SS1604514419166","<img src='images/simple/14.png' width ='500' height = '500' style='border:5px solid black'>","40","all_simple","images/simple/18.png","images/simple/15.png","images/simple/5.png,images/simple/14.png,images/simple/6.png,images/simple/17.png,images/simple/11.png,images/simple/8.png,images/simple/9.png","1","null","","200","747.0000002533197","","","","deviant","",""
"","null","html-keyboard-response","156","416598","0.0-17.0-0.21","SS1604514419166","","null","","","","","","","","","","","","<img src=images/blank.png width =""500"" height = ""500"" style=""border:5px solid black"">","","",""
"","1193.9999996684492","stimulus-presentation","157","418001","0.0-17.0-1.21","SS1604514419166","<img src='images/simple/15.png' width ='500' height = '500' style='border:5px solid black'>","40","all_simple","images/simple/18.png","images/simple/15.png","images/simple/5.png,images/simple/14.png,images/simple/6.png,images/simple/17.png,images/simple/11.png,images/simple/8.png,images/simple/9.png","1","null","","200","1393.9999996684492","","","","background","",""
"","null","html-keyboard-response","158","418917","0.0-17.0-0.22","SS1604514419166","","null","","","","","","","","","","","","<img src=images/blank.png width =""500"" height = ""500"" style=""border:5px solid black"">","","",""
"","449.9999997206032","stimulus-presentation","159","419650","0.0-17.0-1.22","SS1604514419166","<img src='images/simple/15.png' width ='500' height = '500' style='border:5px solid black'>","40","all_simple","images/simple/18.png","images/simple/15.png","images/simple/5.png,images/simple/14.png,images/simple/6.png,images/simple/17.png,images/simple/11.png,images/simple/8.png,images/simple/9.png","1","null","","200","649.9999997206032","","","","background","",""
"","null","html-keyboard-response","160","420618","0.0-17.0-0.23","SS1604514419166","","null","","","","","","","","","","","","<img src=images/blank.png width =""500"" height = ""500"" style=""border:5px solid black"">","","",""
"","518.0000001564622","stimulus-presentation","161","421352","0.0-17.0-1.23","SS1604514419166","<img src='images/simple/15.png' width ='500' height = '500' style='border:5px solid black'>","40","all_simple","images/simple/18.png","images/simple/15.png","images/simple/5.png,images/simple/14.png,images/simple/6.png,images/simple/17.png,images/simple/11.png,images/simple/8.png,images/simple/9.png","1","null","","200","718.0000001564622","","","","background","",""
"","null","html-keyboard-response","162","422331","0.0-17.0-0.24","SS1604514419166","","null","","","","","","","","","","","","<img src=images/blank.png width =""500"" height = ""500"" style=""border:5px solid black"">","","",""
"","525.9999996051192","stimulus-presentation","163","423073","0.0-17.0-1.24","SS1604514419166","<img src='images/simple/15.png' width ='500' height = '500' style='border:5px solid black'>","40","all_simple","images/simple/18.png","images/simple/15.png","images/simple/5.png,images/simple/14.png,images/simple/6.png,images/simple/17.png,images/simple/11.png,images/simple/8.png,images/simple/9.png","1","null","","200","725.9999996051192","","","","background","",""
"","null","html-keyboard-response","164","424144","0.0-17.0-0.25","SS1604514419166","","null","","","","","","","","","","","","<img src=images/blank.png width =""500"" height = ""500"" style=""border:5px solid black"">","","",""
"","842.9999998770654","stimulus-presentation","165","425287","0.0-17.0-1.25","SS1604514419166","<img src='images/simple/8.png' width ='500' height = '500' style='border:5px solid black'>","40","all_simple","images/simple/18.png","images/simple/15.png","images/simple/5.png,images/simple/14.png,images/simple/6.png,images/simple/17.png,images/simple/11.png,images/simple/8.png,images/simple/9.png","1","null","","200","1042.9999998770654","","","","deviant","",""
"","null","html-keyboard-response","166","426368","0.0-17.0-0.26","SS1604514419166","","null","","","","","","","","","","","","<img src=images/blank.png width =""500"" height = ""500"" style=""border:5px solid black"">","","",""
"","1942.9999999701977","stimulus-presentation","167","428553","0.0-17.0-1.26","SS1604514419166","<img src='images/simple/18.png' width ='500' height = '500' style='border:5px solid black'>","40","all_simple","images/simple/18.png","images/simple/15.png","images/simple/5.png,images/simple/14.png,images/simple/6.png,images/simple/17.png,images/simple/11.png,images/simple/8.png,images/simple/9.png","1","null","","200","2142.9999999701977","yes","1046.000000089407","","target","",""
"","null","html-keyboard-response","168","429628","0.0-17.0-0.27","SS1604514419166","","null","","","","","","","","","","","","<img src=images/blank.png width =""500"" height = ""500"" style=""border:5px solid black"">","","",""
"","620.0000001117587","stimulus-presentation","169","430489","0.0-17.0-1.27","SS1604514419166","<img src='images/simple/15.png' width ='500' height = '500' style='border:5px solid black'>","40","all_simple","images/simple/18.png","images/simple/15.png","images/simple/5.png,images/simple/14.png,images/simple/6.png,images/simple/17.png,images/simple/11.png,images/simple/8.png,images/simple/9.png","1","null","","200","820.0000001117587","","","","background","",""
"","null","html-keyboard-response","170","431610","0.0-17.0-0.28","SS1604514419166","","null","","","","","","","","","","","","<img src=images/blank.png width =""500"" height = ""500"" style=""border:5px solid black"">","","",""
"","621.999999973923","stimulus-presentation","171","432466","0.0-17.0-1.28","SS1604514419166","<img src='images/simple/15.png' width ='500' height = '500' style='border:5px solid black'>","40","all_simple","images/simple/18.png","images/simple/15.png","images/simple/5.png,images/simple/14.png,images/simple/6.png,images/simple/17.png,images/simple/11.png,images/simple/8.png,images/simple/9.png","1","null","","200","821.999999973923","","","","background","",""
"","null","html-keyboard-response","172","433768","0.0-17.0-0.29","SS1604514419166","","null","","","","","","","","","","","","<img src=images/blank.png width =""500"" height = ""500"" style=""border:5px solid black"">","","",""
"","822.0000001601875","stimulus-presentation","173","434823","0.0-17.0-1.29","SS1604514419166","<img src='images/simple/15.png' width ='500' height = '500' style='border:5px solid black'>","40","all_simple","images/simple/18.png","images/simple/15.png","images/simple/5.png,images/simple/14.png,images/simple/6.png,images/simple/17.png,images/simple/11.png,images/simple/8.png,images/simple/9.png","1","null","","200","1022.0000001601875","","","","background","",""
"","null","html-keyboard-response","174","436078","0.0-17.0-0.30","SS1604514419166","","null","","","","","","","","","","","","<img src=images/blank.png width =""500"" height = ""500"" style=""border:5px solid black"">","","",""
"","632.0000002160668","stimulus-presentation","175","436941","0.0-17.0-1.30","SS1604514419166","<img src='images/simple/15.png' width ='500' height = '500' style='border:5px solid black'>","40","all_simple","images/simple/18.png","images/simple/15.png","images/simple/5.png,images/simple/14.png,images/simple/6.png,images/simple/17.png,images/simple/11.png,images/simple/8.png,images/simple/9.png","1","null","","200","832.0000002160668","","","","background","",""
"","null","html-keyboard-response","176","438213","0.0-17.0-0.31","SS1604514419166","","null","","","","","","","","","","","","<img src=images/blank.png width =""500"" height = ""500"" style=""border:5px solid black"">","","",""
"","546.9999997876585","stimulus-presentation","177","438974","0.0-17.0-1.31","SS1604514419166","<img src='images/simple/15.png' width ='500' height = '500' style='border:5px solid black'>","40","all_simple","images/simple/18.png","images/simple/15.png","images/simple/5.png,images/simple/14.png,images/simple/6.png,images/simple/17.png,images/simple/11.png,images/simple/8.png,images/simple/9.png","1","null","","200","746.9999997876585","","","","background","",""
"","null","html-keyboard-response","178","439849","0.0-17.0-0.32","SS1604514419166","","null","","","","","","","","","","","","<img src=images/blank.png width =""500"" height = ""500"" style=""border:5px solid black"">","","",""
"","1276.999999769032","stimulus-presentation","179","441343","0.0-17.0-1.32","SS1604514419166","<img src='images/simple/15.png' width ='500' height = '500' style='border:5px solid black'>","40","all_simple","images/simple/18.png","images/simple/15.png","images/simple/5.png,images/simple/14.png,images/simple/6.png,images/simple/17.png,images/simple/11.png,images/simple/8.png,images/simple/9.png","1","null","","200","1476.999999769032","","","","background","",""
"","null","html-keyboard-response","180","442679","0.0-17.0-0.33","SS1604514419166","","null","","","","","","","","","","","","<img src=images/blank.png width =""500"" height = ""500"" style=""border:5px solid black"">","","",""
"","1976.9999999552965","stimulus-presentation","181","444866","0.0-17.0-1.33","SS1604514419166","<img src='images/simple/15.png' width ='500' height = '500' style='border:5px solid black'>","40","all_simple","images/simple/18.png","images/simple/15.png","images/simple/5.png,images/simple/14.png,images/simple/6.png,images/simple/17.png,images/simple/11.png,images/simple/8.png,images/simple/9.png","1","null","","200","2176.9999999552965","","","","background","",""
"","null","html-keyboard-response","182","445785","0.0-17.0-0.34","SS1604514419166","","null","","","","","","","","","","","","<img src=images/blank.png width =""500"" height = ""500"" style=""border:5px solid black"">","","",""
"","1409.9999996833503","stimulus-presentation","183","447410","0.0-17.0-1.34","SS1604514419166","<img src='images/simple/5.png' width ='500' height = '500' style='border:5px solid black'>","40","all_simple","images/simple/18.png","images/simple/15.png","images/simple/5.png,images/simple/14.png,images/simple/6.png,images/simple/17.png,images/simple/11.png,images/simple/8.png,images/simple/9.png","1","null","","200","1609.9999996833503","","","","deviant","",""
"","null","html-keyboard-response","184","448638","0.0-17.0-0.35","SS1604514419166","","null","","","","","","","","","","","","<img src=images/blank.png width =""500"" height = ""500"" style=""border:5px solid black"">","","",""
"","619.0000004135072","stimulus-presentation","185","449473","0.0-17.0-1.35","SS1604514419166","<img src='images/simple/15.png' width ='500' height = '500' style='border:5px solid black'>","40","all_simple","images/simple/18.png","images/simple/15.png","images/simple/5.png,images/simple/14.png,images/simple/6.png,images/simple/17.png,images/simple/11.png,images/simple/8.png,images/simple/9.png","1","null","","200","819.0000004135072","","","","background","",""
"","null","html-keyboard-response","186","450524","0.0-17.0-0.36","SS1604514419166","","null","","","","","","","","","","","","<img src=images/blank.png width =""500"" height = ""500"" style=""border:5px solid black"">","","",""
"","559.0000003576279","stimulus-presentation","187","451296","0.0-17.0-1.36","SS1604514419166","<img src='images/simple/15.png' width ='500' height = '500' style='border:5px solid black'>","40","all_simple","images/simple/18.png","images/simple/15.png","images/simple/5.png,images/simple/14.png,images/simple/6.png,images/simple/17.png,images/simple/11.png,images/simple/8.png,images/simple/9.png","1","null","","200","759.0000003576279","","","","background","",""
"","null","html-keyboard-response","188","452465","0.0-17.0-0.37","SS1604514419166","","null","","","","","","","","","","","","<img src=images/blank.png width =""500"" height = ""500"" style=""border:5px solid black"">","","",""
"","891.0000002942979","stimulus-presentation","189","453575","0.0-17.0-1.37","SS1604514419166","<img src='images/simple/15.png' width ='500' height = '500' style='border:5px solid black'>","40","all_simple","images/simple/18.png","images/simple/15.png","images/simple/5.png,images/simple/14.png,images/simple/6.png,images/simple/17.png,images/simple/11.png,images/simple/8.png,images/simple/9.png","1","null","","200","1091.000000294298","","","","background","",""
"","null","html-keyboard-response","190","454479","0.0-17.0-0.38","SS1604514419166","","null","","","","","","","","","","","","<img src=images/blank.png width =""500"" height = ""500"" style=""border:5px solid black"">","","",""
"","657.9999998211861","stimulus-presentation","191","455353","0.0-17.0-1.38","SS1604514419166","<img src='images/simple/15.png' width ='500' height = '500' style='border:5px solid black'>","40","all_simple","images/simple/18.png","images/simple/15.png","images/simple/5.png,images/simple/14.png,images/simple/6.png,images/simple/17.png,images/simple/11.png,images/simple/8.png,images/simple/9.png","1","null","","200","857.9999998211861","","","","background","",""
"","null","html-keyboard-response","192","456261","0.0-17.0-0.39","SS1604514419166","","null","","","","","","","","","","","","<img src=images/blank.png width =""500"" height = ""500"" style=""border:5px solid black"">","","",""
"","4091.000000014901","stimulus-presentation","193","460566","0.0-17.0-1.39","SS1604514419166","<img src='images/simple/18.png' width ='500' height = '500' style='border:5px solid black'>","40","all_simple","images/simple/18.png","images/simple/15.png","images/simple/5.png,images/simple/14.png,images/simple/6.png,images/simple/17.png,images/simple/11.png,images/simple/8.png,images/simple/9.png","1","null","","200","4291.000000014901","yes","907.9999998211861","","target","",""
"","null","html-keyboard-response","194","461458","0.0-17.0-0.40","SS1604514419166","","null","","","","","","","","","","","","<img src=images/blank.png width =""500"" height = ""500"" style=""border:5px solid black"">","","",""
"","1321.9999996945262","stimulus-presentation","195","462998","0.0-17.0-1.40","SS1604514419166","<img src='images/simple/15.png' width ='500' height = '500' style='border:5px solid black'>","40","all_simple","images/simple/18.png","images/simple/15.png","images/simple/5.png,images/simple/14.png,images/simple/6.png,images/simple/17.png,images/simple/11.png,images/simple/8.png,images/simple/9.png","1","null","","200","1521.9999996945262","","","","background","",""
"","null","html-keyboard-response","196","464103","0.0-17.0-0.41","SS1604514419166","","null","","","","","","","","","","","","<img src=images/blank.png width =""500"" height = ""500"" style=""border:5px solid black"">","","",""
"","643.9999998547137","stimulus-presentation","197","464972","0.0-17.0-1.41","SS1604514419166","<img src='images/simple/15.png' width ='500' height = '500' style='border:5px solid black'>","40","all_simple","images/simple/18.png","images/simple/15.png","images/simple/5.png,images/simple/14.png,images/simple/6.png,images/simple/17.png,images/simple/11.png,images/simple/8.png,images/simple/9.png","1","null","","200","843.9999998547137","","","","background","",""
"","null","html-keyboard-response","198","466279","0.0-17.0-0.42","SS1604514419166","","null","","","","","","","","","","","","<img src=images/blank.png width =""500"" height = ""500"" style=""border:5px solid black"">","","",""
"","1097.0000000670552","stimulus-presentation","199","467594","0.0-17.0-1.42","SS1604514419166","<img src='images/simple/11.png' width ='500' height = '500' style='border:5px solid black'>","40","all_simple","images/simple/18.png","images/simple/15.png","images/simple/5.png,images/simple/14.png,images/simple/6.png,images/simple/17.png,images/simple/11.png,images/simple/8.png,images/simple/9.png","1","null","","200","1297.0000000670552","","","","deviant","",""
"","null","html-keyboard-response","200","468760","0.0-17.0-0.43","SS1604514419166","","null","","","","","","","","","","","","<img src=images/blank.png width =""500"" height = ""500"" style=""border:5px solid black"">","","",""
"","1760.9999999403954","stimulus-presentation","201","470738","0.0-17.0-1.43","SS1604514419166","<img src='images/simple/15.png' width ='500' height = '500' style='border:5px solid black'>","40","all_simple","images/simple/18.png","images/simple/15.png","images/simple/5.png,images/simple/14.png,images/simple/6.png,images/simple/17.png,images/simple/11.png,images/simple/8.png,images/simple/9.png","1","null","","200","1960.9999999403954","","","","background","",""
"","null","html-keyboard-response","202","471662","0.0-17.0-0.44","SS1604514419166","","null","","","","","","","","","","","","<img src=images/blank.png width =""500"" height = ""500"" style=""border:5px solid black"">","","",""
"","1836.0000001266599","stimulus-presentation","203","473712","0.0-17.0-1.44","SS1604514419166","<img src='images/simple/18.png' width ='500' height = '500' style='border:5px solid black'>","40","all_simple","images/simple/18.png","images/simple/15.png","images/simple/5.png,images/simple/14.png,images/simple/6.png,images/simple/17.png,images/simple/11.png,images/simple/8.png,images/simple/9.png","1","null","","200","2036.0000001266599","yes","1030.9999999590218","","target","",""
"","null","html-keyboard-response","204","474876","0.0-17.0-0.45","SS1604514419166","","null","","","","","","","","","","","","<img src=images/blank.png width =""500"" height = ""500"" style=""border:5px solid black"">","","",""
"","555.9999998658895","stimulus-presentation","205","475667","0.0-17.0-1.45","SS1604514419166","<img src='images/simple/9.png' width ='500' height = '500' style='border:5px solid black'>","40","all_simple","images/simple/18.png","images/simple/15.png","images/simple/5.png,images/simple/14.png,images/simple/6.png,images/simple/17.png,images/simple/11.png,images/simple/8.png,images/simple/9.png","1","null","","200","755.9999998658895","","","","deviant","",""
"","null","html-keyboard-response","206","476539","0.0-17.0-0.46","SS1604514419166","","null","","","","","","","","","","","","<img src=images/blank.png width =""500"" height = ""500"" style=""border:5px solid black"">","","",""
"","743.0000002495944","stimulus-presentation","207","477513","0.0-17.0-1.46","SS1604514419166","<img src='images/simple/15.png' width ='500' height = '500' style='border:5px solid black'>","40","all_simple","images/simple/18.png","images/simple/15.png","images/simple/5.png,images/simple/14.png,images/simple/6.png,images/simple/17.png,images/simple/11.png,images/simple/8.png,images/simple/9.png","1","null","","200","943.0000002495944","","","","background","",""
"","null","html-keyboard-response","208","478447","0.0-17.0-0.47","SS1604514419166","","null","","","","","","","","","","","","<img src=images/blank.png width =""500"" height = ""500"" style=""border:5px solid black"">","","",""
"","575.0000001862645","stimulus-presentation","209","479256","0.0-17.0-1.47","SS1604514419166","<img src='images/simple/15.png' width ='500' height = '500' style='border:5px solid black'>","40","all_simple","images/simple/18.png","images/simple/15.png","images/simple/5.png,images/simple/14.png,images/simple/6.png,images/simple/17.png,images/simple/11.png,images/simple/8.png,images/simple/9.png","1","null","","200","775.0000001862645","","","","background","",""
"","null","html-keyboard-response","210","480290","0.0-17.0-0.48","SS1604514419166","","null","","","","","","","","","","","","<img src=images/blank.png width =""500"" height = ""500"" style=""border:5px solid black"">","","",""
"","1290.000000037253","stimulus-presentation","211","481801","0.0-17.0-1.48","SS1604514419166","<img src='images/simple/18.png' width ='500' height = '500' style='border:5px solid black'>","40","all_simple","images/simple/18.png","images/simple/15.png","images/simple/5.png,images/simple/14.png,images/simple/6.png,images/simple/17.png,images/simple/11.png,images/simple/8.png,images/simple/9.png","1","null","","200","1490.000000037253","yes","794.9999999254942","","target","",""
"[{""page_index"":0,""viewing_time"":4528}]","4530","task-instructions","212","486337","0.0-18.0","SS1604514419166","","","","","","","","","","","","","","","","",""
"[{""page_index"":0,""viewing_time"":2406.9999996572733},{""page_index"":1,""viewing_time"":4360.000000335276},{""page_index"":2,""viewing_time"":2597.9999997653067}]","9365.999999921769","instructions","213","495715","0.0-19.0","SS1604514419166","","","","","","","","","","","","","","","","",""
"","null","html-keyboard-response","214","496649","0.0-20.0-0.0","SS1604514419166","","null","","","","","","","","","","","","<img src=images/blank.png width =""500"" height = ""500"" style=""border:5px solid black"">","","",""
"","2228.999999817461","stimulus-presentation","215","499093","0.0-20.0-1.0","SS1604514419166","<img src='images/simple/10.png' width ='500' height = '500' style='border:5px solid black'>","40","mixed_complex_deviant","images/simple/16.png","images/simple/10.png","images/complex/9.png,images/complex/14.png,images/complex/8.png,images/complex/6.png,images/complex/13.png,images/complex/2.png,images/complex/11.png","2","null","","200","2428.999999817461","","","","background","",""
"","null","html-keyboard-response","216","500388","0.0-20.0-0.1","SS1604514419166","","null","","","","","","","","","","","","<img src=images/blank.png width =""500"" height = ""500"" style=""border:5px solid black"">","","",""
"","978.0000001192093","stimulus-presentation","217","501586","0.0-20.0-1.1","SS1604514419166","<img src='images/complex/8.png' width ='500' height = '500' style='border:5px solid black'>","40","mixed_complex_deviant","images/simple/16.png","images/simple/10.png","images/complex/9.png,images/complex/14.png,images/complex/8.png,images/complex/6.png,images/complex/13.png,images/complex/2.png,images/complex/11.png","2","null","","200","1178.0000001192093","","","","deviant","",""
"","null","html-keyboard-response","218","502411","0.0-20.0-0.2","SS1604514419166","","null","","","","","","","","","","","","<img src=images/blank.png width =""500"" height = ""500"" style=""border:5px solid black"">","","",""
"","973.9999999292195","stimulus-presentation","219","503602","0.0-20.0-1.2","SS1604514419166","<img src='images/simple/10.png' width ='500' height = '500' style='border:5px solid black'>","40","mixed_complex_deviant","images/simple/16.png","images/simple/10.png","images/complex/9.png,images/complex/14.png,images/complex/8.png,images/complex/6.png,images/complex/13.png,images/complex/2.png,images/complex/11.png","2","null","","200","1173.9999999292195","","","","background","",""
"","null","html-keyboard-response","220","504608","0.0-20.0-0.3","SS1604514419166","","null","","","","","","","","","","","","<img src=images/blank.png width =""500"" height = ""500"" style=""border:5px solid black"">","","",""
"","890.9999998286366","stimulus-presentation","221","505712","0.0-20.0-1.3","SS1604514419166","<img src='images/simple/10.png' width ='500' height = '500' style='border:5px solid black'>","40","mixed_complex_deviant","images/simple/16.png","images/simple/10.png","images/complex/9.png,images/complex/14.png,images/complex/8.png,images/complex/6.png,images/complex/13.png,images/complex/2.png,images/complex/11.png","2","null","","200","1090.9999998286366","","","","background","",""
"","null","html-keyboard-response","222","506985","0.0-20.0-0.4","SS1604514419166","","null","","","","","","","","","","","","<img src=images/blank.png width =""500"" height = ""500"" style=""border:5px solid black"">","","",""
"","2162.000000011176","stimulus-presentation","223","509357","0.0-20.0-1.4","SS1604514419166","<img src='images/simple/16.png' width ='500' height = '500' style='border:5px solid black'>","40","mixed_complex_deviant","images/simple/16.png","images/simple/10.png","images/complex/9.png,images/complex/14.png,images/complex/8.png,images/complex/6.png,images/complex/13.png,images/complex/2.png,images/complex/11.png","2","null","","200","2362.000000011176","yes","1134.000000078231","","target","",""
"","null","html-keyboard-response","224","510535","0.0-20.0-0.5","SS1604514419166","","null","","","","","","","","","","","","<img src=images/blank.png width =""500"" height = ""500"" style=""border:5px solid black"">","","",""
"","657.9999998211861","stimulus-presentation","225","511409","0.0-20.0-1.5","SS1604514419166","<img src='images/simple/10.png' width ='500' height = '500' style='border:5px solid black'>","40","mixed_complex_deviant","images/simple/16.png","images/simple/10.png","images/complex/9.png,images/complex/14.png,images/complex/8.png,images/complex/6.png,images/complex/13.png,images/complex/2.png,images/complex/11.png","2","null","","200","857.9999998211861","","","","background","",""
"","null","html-keyboard-response","226","512600","0.0-20.0-0.6","SS1604514419166","","null","","","","","","","","","","","","<img src=images/blank.png width =""500"" height = ""500"" style=""border:5px solid black"">","","",""
"","534.9999996833503","stimulus-presentation","227","513361","0.0-20.0-1.6","SS1604514419166","<img src='images/simple/10.png' width ='500' height = '500' style='border:5px solid black'>","40","mixed_complex_deviant","images/simple/16.png","images/simple/10.png","images/complex/9.png,images/complex/14.png,images/complex/8.png,images/complex/6.png,images/complex/13.png,images/complex/2.png,images/complex/11.png","2","null","","200","734.9999996833503","","","","background","",""
"","null","html-keyboard-response","228","514222","0.0-20.0-0.7","SS1604514419166","","null","","","","","","","","","","","","<img src=images/blank.png width =""500"" height = ""500"" style=""border:5px solid black"">","","",""
"","3308.9999998919666","stimulus-presentation","229","517746","0.0-20.0-1.7","SS1604514419166","<img src='images/complex/6.png' width ='500' height = '500' style='border:5px solid black'>","40","mixed_complex_deviant","images/simple/16.png","images/simple/10.png","images/complex/9.png,images/complex/14.png,images/complex/8.png,images/complex/6.png,images/complex/13.png,images/complex/2.png,images/complex/11.png","2","null","","200","3508.9999998919666","","","","deviant","",""
"","null","html-keyboard-response","230","518946","0.0-20.0-0.8","SS1604514419166","","null","","","","","","","","","","","","<img src=images/blank.png width =""500"" height = ""500"" style=""border:5px solid black"">","","",""
"","543.9999997615814","stimulus-presentation","231","519729","0.0-20.0-1.8","SS1604514419166","<img src='images/simple/10.png' width ='500' height = '500' style='border:5px solid black'>","40","mixed_complex_deviant","images/simple/16.png","images/simple/10.png","images/complex/9.png,images/complex/14.png,images/complex/8.png,images/complex/6.png,images/complex/13.png,images/complex/2.png,images/complex/11.png","2","null","","200","743.9999997615814","","","","background","",""
"","null","html-keyboard-response","232","520936","0.0-20.0-0.9","SS1604514419166","","null","","","","","","","","","","","","<img src=images/blank.png width =""500"" height = ""500"" style=""border:5px solid black"">","","",""
"","572.0000001601875","stimulus-presentation","233","521729","0.0-20.0-1.9","SS1604514419166","<img src='images/simple/10.png' width ='500' height = '500' style='border:5px solid black'>","40","mixed_complex_deviant","images/simple/16.png","images/simple/10.png","images/complex/9.png,images/complex/14.png,images/complex/8.png,images/complex/6.png,images/complex/13.png,images/complex/2.png,images/complex/11.png","2","null","","200","772.0000001601875","","","","background","",""
"","null","html-keyboard-response","234","522911","0.0-20.0-0.10","SS1604514419166","","null","","","","","","","","","","","","<img src=images/blank.png width =""500"" height = ""500"" style=""border:5px solid black"">","","",""
"","547.9999999515712","stimulus-presentation","235","523736","0.0-20.0-1.10","SS1604514419166","<img src='images/simple/10.png' width ='500' height = '500' style='border:5px solid black'>","40","mixed_complex_deviant","images/simple/16.png","images/simple/10.png","images/complex/9.png,images/complex/14.png,images/complex/8.png,images/complex/6.png,images/complex/13.png,images/complex/2.png,images/complex/11.png","2","null","","200","747.9999999515712","","","","background","",""
"","null","html-keyboard-response","236","524813","0.0-20.0-0.11","SS1604514419166","","null","","","","","","","","","","","","<img src=images/blank.png width =""500"" height = ""500"" style=""border:5px solid black"">","","",""
"","641.9999999925494","stimulus-presentation","237","525723","0.0-20.0-1.11","SS1604514419166","<img src='images/simple/10.png' width ='500' height = '500' style='border:5px solid black'>","40","mixed_complex_deviant","images/simple/16.png","images/simple/10.png","images/complex/9.png,images/complex/14.png,images/complex/8.png,images/complex/6.png,images/complex/13.png,images/complex/2.png,images/complex/11.png","2","null","","200","841.9999999925494","","","","background","",""
"","null","html-keyboard-response","238","526830","0.0-20.0-0.12","SS1604514419166","","null","","","","","","","","","","","","<img src=images/blank.png width =""500"" height = ""500"" style=""border:5px solid black"">","","",""
"","645.0000000186265","stimulus-presentation","239","527719","0.0-20.0-1.12","SS1604514419166","<img src='images/simple/10.png' width ='500' height = '500' style='border:5px solid black'>","40","mixed_complex_deviant","images/simple/16.png","images/simple/10.png","images/complex/9.png,images/complex/14.png,images/complex/8.png,images/complex/6.png,images/complex/13.png,images/complex/2.png,images/complex/11.png","2","null","","200","845.0000000186265","","","","background","",""
"","null","html-keyboard-response","240","528810","0.0-20.0-0.13","SS1604514419166","","null","","","","","","","","","","","","<img src=images/blank.png width =""500"" height = ""500"" style=""border:5px solid black"">","","",""
"","637.9999998025596","stimulus-presentation","241","529694","0.0-20.0-1.13","SS1604514419166","<img src='images/simple/10.png' width ='500' height = '500' style='border:5px solid black'>","40","mixed_complex_deviant","images/simple/16.png","images/simple/10.png","images/complex/9.png,images/complex/14.png,images/complex/8.png,images/complex/6.png,images/complex/13.png,images/complex/2.png,images/complex/11.png","2","null","","200","837.9999998025596","","","","background","",""
"","null","html-keyboard-response","242","530794","0.0-20.0-0.14","SS1604514419166","","null","","","","","","","","","","","","<img src=images/blank.png width =""500"" height = ""500"" style=""border:5px solid black"">","","",""
"","643.0000001564622","stimulus-presentation","243","531689","0.0-20.0-1.14","SS1604514419166","<img src='images/simple/10.png' width ='500' height = '500' style='border:5px solid black'>","40","mixed_complex_deviant","images/simple/16.png","images/simple/10.png","images/complex/9.png,images/complex/14.png,images/complex/8.png,images/complex/6.png,images/complex/13.png,images/complex/2.png,images/complex/11.png","2","null","","200","843.0000001564622","","","","background","",""
"","null","html-keyboard-response","244","532584","0.0-20.0-0.15","SS1604514419166","","null","","","","","","","","","","","","<img src=images/blank.png width =""500"" height = ""500"" style=""border:5px solid black"">","","",""
"","864.9999997578561","stimulus-presentation","245","533727","0.0-20.0-1.15","SS1604514419166","<img src='images/complex/11.png' width ='500' height = '500' style='border:5px solid black'>","40","mixed_complex_deviant","images/simple/16.png","images/simple/10.png","images/complex/9.png,images/complex/14.png,images/complex/8.png,images/complex/6.png,images/complex/13.png,images/complex/2.png,images/complex/11.png","2","null","","200","1064.9999997578561","","","","deviant","",""
"","null","html-keyboard-response","246","534813","0.0-20.0-0.16","SS1604514419166","","null","","","","","","","","","","","","<img src=images/blank.png width =""500"" height = ""500"" style=""border:5px solid black"">","","",""
"","620.0000001117587","stimulus-presentation","247","535682","0.0-20.0-1.16","SS1604514419166","<img src='images/simple/10.png' width ='500' height = '500' style='border:5px solid black'>","40","mixed_complex_deviant","images/simple/16.png","images/simple/10.png","images/complex/9.png,images/complex/14.png,images/complex/8.png,images/complex/6.png,images/complex/13.png,images/complex/2.png,images/complex/11.png","2","null","","200","820.0000001117587","","","","background","",""
"","null","html-keyboard-response","248","537003","0.0-20.0-0.17","SS1604514419166","","null","","","","","","","","","","","","<img src=images/blank.png width =""500"" height = ""500"" style=""border:5px solid black"">","","",""
"","1567.9999999701977","stimulus-presentation","249","538814","0.0-20.0-1.17","SS1604514419166","<img src='images/simple/16.png' width ='500' height = '500' style='border:5px solid black'>","40","mixed_complex_deviant","images/simple/16.png","images/simple/10.png","images/complex/9.png,images/complex/14.png,images/complex/8.png,images/complex/6.png,images/complex/13.png,images/complex/2.png,images/complex/11.png","2","null","","200","1767.9999999701977","yes","853.0000001192093","","target","",""
"","null","html-keyboard-response","250","539690","0.0-20.0-0.18","SS1604514419166","","null","","","","","","","","","","","","<img src=images/blank.png width =""500"" height = ""500"" style=""border:5px solid black"">","","",""
"","652.9999999329448","stimulus-presentation","251","540586","0.0-20.0-1.18","SS1604514419166","<img src='images/simple/10.png' width ='500' height = '500' style='border:5px solid black'>","40","mixed_complex_deviant","images/simple/16.png","images/simple/10.png","images/complex/9.png,images/complex/14.png,images/complex/8.png,images/complex/6.png,images/complex/13.png,images/complex/2.png,images/complex/11.png","2","null","","200","852.9999999329448","","","","background","",""
"","null","html-keyboard-response","252","541467","0.0-20.0-0.19","SS1604514419166","","null","","","","","","","","","","","","<img src=images/blank.png width =""500"" height = ""500"" style=""border:5px solid black"">","","",""
"","533.9999999850988","stimulus-presentation","253","542219","0.0-20.0-1.19","SS1604514419166","<img src='images/simple/10.png' width ='500' height = '500' style='border:5px solid black'>","40","mixed_complex_deviant","images/simple/16.png","images/simple/10.png","images/complex/9.png,images/complex/14.png,images/complex/8.png,images/complex/6.png,images/complex/13.png,images/complex/2.png,images/complex/11.png","2","null","","200","733.9999999850988","","","","background","",""
"","null","html-keyboard-response","254","543360","0.0-20.0-0.20","SS1604514419166","","null","","","","","","","","","","","","<img src=images/blank.png width =""500"" height = ""500"" style=""border:5px solid black"">","","",""
"","1070.9999999962747","stimulus-presentation","255","544649","0.0-20.0-1.20","SS1604514419166","<img src='images/complex/14.png' width ='500' height = '500' style='border:5px solid black'>","40","mixed_complex_deviant","images/simple/16.png","images/simple/10.png","images/complex/9.png,images/complex/14.png,images/complex/8.png,images/complex/6.png,images/complex/13.png,images/complex/2.png,images/complex/11.png","2","null","","200","1270.9999999962747","","","","deviant","",""
"","null","html-keyboard-response","256","545463","0.0-20.0-0.21","SS1604514419166","","null","","","","","","","","","","","","<img src=images/blank.png width =""500"" height = ""500"" style=""border:5px solid black"">","","",""
"","605.999999679625","stimulus-presentation","257","546289","0.0-20.0-1.21","SS1604514419166","<img src='images/simple/10.png' width ='500' height = '500' style='border:5px solid black'>","40","mixed_complex_deviant","images/simple/16.png","images/simple/10.png","images/complex/9.png,images/complex/14.png,images/complex/8.png,images/complex/6.png,images/complex/13.png,images/complex/2.png,images/complex/11.png","2","null","","200","805.999999679625","","","","background","",""
"","null","html-keyboard-response","258","547284","0.0-20.0-0.22","SS1604514419166","","null","","","","","","","","","","","","<img src=images/blank.png width =""500"" height = ""500"" style=""border:5px solid black"">","","",""
"","506.00000005215406","stimulus-presentation","259","548028","0.0-20.0-1.22","SS1604514419166","<img src='images/simple/10.png' width ='500' height = '500' style='border:5px solid black'>","40","mixed_complex_deviant","images/simple/16.png","images/simple/10.png","images/complex/9.png,images/complex/14.png,images/complex/8.png,images/complex/6.png,images/complex/13.png,images/complex/2.png,images/complex/11.png","2","null","","200","706.0000000521541","","","","background","",""
"","null","html-keyboard-response","260","549210","0.0-20.0-0.23","SS1604514419166","","null","","","","","","","","","","","","<img src=images/blank.png width =""500"" height = ""500"" style=""border:5px solid black"">","","",""
"","555.9999998658895","stimulus-presentation","261","549984","0.0-20.0-1.23","SS1604514419166","<img src='images/simple/16.png' width ='500' height = '500' style='border:5px solid black'>","40","mixed_complex_deviant","images/simple/16.png","images/simple/10.png","images/complex/9.png,images/complex/14.png,images/complex/8.png,images/complex/6.png,images/complex/13.png,images/complex/2.png,images/complex/11.png","2","null","","200","755.9999998658895","","","","target","",""
"","null","html-keyboard-response","262","551284","0.0-20.0-0.24","SS1604514419166","","null","","","","","","","","","","","","<img src=images/blank.png width =""500"" height = ""500"" style=""border:5px solid black"">","","",""
"","1631.000000052154","stimulus-presentation","263","553128","0.0-20.0-1.24","SS1604514419166","<img src='images/simple/16.png' width ='500' height = '500' style='border:5px solid black'>","40","mixed_complex_deviant","images/simple/16.png","images/simple/10.png","images/complex/9.png,images/complex/14.png,images/complex/8.png,images/complex/6.png,images/complex/13.png,images/complex/2.png,images/complex/11.png","2","null","","200","1831.000000052154","yes","729.9999999813735","","target","",""
"","null","html-keyboard-response","264","554251","0.0-20.0-0.25","SS1604514419166","","null","","","","","","","","","","","","<img src=images/blank.png width =""500"" height = ""500"" style=""border:5px solid black"">","","",""
"","1400.9999996051192","stimulus-presentation","265","555873","0.0-20.0-1.25","SS1604514419166","<img src='images/complex/9.png' width ='500' height = '500' style='border:5px solid black'>","40","mixed_complex_deviant","images/simple/16.png","images/simple/10.png","images/complex/9.png,images/complex/14.png,images/complex/8.png,images/complex/6.png,images/complex/13.png,images/complex/2.png,images/complex/11.png","2","null","","200","1600.9999996051192","","","","deviant","",""
"","null","html-keyboard-response","266","556977","0.0-20.0-0.26","SS1604514419166","","null","","","","","","","","","","","","<img src=images/blank.png width =""500"" height = ""500"" style=""border:5px solid black"">","","",""
"","560.0000000558794","stimulus-presentation","267","557785","0.0-20.0-1.26","SS1604514419166","<img src='images/simple/10.png' width ='500' height = '500' style='border:5px solid black'>","40","mixed_complex_deviant","images/simple/16.png","images/simple/10.png","images/complex/9.png,images/complex/14.png,images/complex/8.png,images/complex/6.png,images/complex/13.png,images/complex/2.png,images/complex/11.png","2","null","","200","760.0000000558794","","","","background","",""
"","null","html-keyboard-response","268","558891","0.0-20.0-0.27","SS1604514419166","","null","","","","","","","","","","","","<img src=images/blank.png width =""500"" height = ""500"" style=""border:5px solid black"">","","",""
"","1371.999999973923","stimulus-presentation","269","560481","0.0-20.0-1.27","SS1604514419166","<img src='images/simple/16.png' width ='500' height = '500' style='border:5px solid black'>","40","mixed_complex_deviant","images/simple/16.png","images/simple/10.png","images/complex/9.png,images/complex/14.png,images/complex/8.png,images/complex/6.png,images/complex/13.png,images/complex/2.png,images/complex/11.png","2","null","","200","1571.999999973923","yes","796.000000089407","","target","",""
"","null","html-keyboard-response","270","561639","0.0-20.0-0.28","SS1604514419166","","null","","","","","","","","","","","","<img src=images/blank.png width =""500"" height = ""500"" style=""border:5px solid black"">","","",""
"","546.9999997876585","stimulus-presentation","271","562434","0.0-20.0-1.28","SS1604514419166","<img src='images/simple/10.png' width ='500' height = '500' style='border:5px solid black'>","40","mixed_complex_deviant","images/simple/16.png","images/simple/10.png","images/complex/9.png,images/complex/14.png,images/complex/8.png,images/complex/6.png,images/complex/13.png,images/complex/2.png,images/complex/11.png","2","null","","200","746.9999997876585","","","","background","",""
"","null","html-keyboard-response","272","563441","0.0-20.0-0.29","SS1604514419166","","null","","","","","","","","","","","","<img src=images/blank.png width =""500"" height = ""500"" style=""border:5px solid black"">","","",""
"","555.0000001676381","stimulus-presentation","273","564217","0.0-20.0-1.29","SS1604514419166","<img src='images/complex/2.png' width ='500' height = '500' style='border:5px solid black'>","40","mixed_complex_deviant","images/simple/16.png","images/simple/10.png","images/complex/9.png,images/complex/14.png,images/complex/8.png,images/complex/6.png,images/complex/13.png,images/complex/2.png,images/complex/11.png","2","null","","200","755.0000001676381","","","","deviant","",""
"","null","html-keyboard-response","274","565391","0.0-20.0-0.30","SS1604514419166","","null","","","","","","","","","","","","<img src=images/blank.png width =""500"" height = ""500"" style=""border:5px solid black"">","","",""
"","540.9999997355044","stimulus-presentation","275","566154","0.0-20.0-1.30","SS1604514419166","<img src='images/simple/10.png' width ='500' height = '500' style='border:5px solid black'>","40","mixed_complex_deviant","images/simple/16.png","images/simple/10.png","images/complex/9.png,images/complex/14.png,images/complex/8.png,images/complex/6.png,images/complex/13.png,images/complex/2.png,images/complex/11.png","2","null","","200","740.9999997355044","","","","background","",""
"","null","html-keyboard-response","276","567017","0.0-20.0-0.31","SS1604514419166","","null","","","","","","","","","","","","<img src=images/blank.png width =""500"" height = ""500"" style=""border:5px solid black"">","","",""
"","594.0000000409782","stimulus-presentation","277","567833","0.0-20.0-1.31","SS1604514419166","<img src='images/simple/10.png' width ='500' height = '500' style='border:5px solid black'>","40","mixed_complex_deviant","images/simple/16.png","images/simple/10.png","images/complex/9.png,images/complex/14.png,images/complex/8.png,images/complex/6.png,images/complex/13.png,images/complex/2.png,images/complex/11.png","2","null","","200","794.0000000409782","","","","background","",""
"","null","html-keyboard-response","278","568712","0.0-20.0-0.32","SS1604514419166","","null","","","","","","","","","","","","<img src=images/blank.png width =""500"" height = ""500"" style=""border:5px solid black"">","","",""
"","455.0000000745058","stimulus-presentation","279","569556","0.0-20.0-1.32","SS1604514419166","<img src='images/simple/10.png' width ='500' height = '500' style='border:5px solid black'>","40","mixed_complex_deviant","images/simple/16.png","images/simple/10.png","images/complex/9.png,images/complex/14.png,images/complex/8.png,images/complex/6.png,images/complex/13.png,images/complex/2.png,images/complex/11.png","2","null","","200","655.0000000745058","","","","background","",""
"","null","html-keyboard-response","280","570698","0.0-20.0-0.33","SS1604514419166","","null","","","","","","","","","","","","<img src=images/blank.png width =""500"" height = ""500"" style=""border:5px solid black"">","","",""
"","524.0000002086163","stimulus-presentation","281","571441","0.0-20.0-1.33","SS1604514419166","<img src='images/simple/10.png' width ='500' height = '500' style='border:5px solid black'>","40","mixed_complex_deviant","images/simple/16.png","images/simple/10.png","images/complex/9.png,images/complex/14.png,images/complex/8.png,images/complex/6.png,images/complex/13.png,images/complex/2.png,images/complex/11.png","2","null","","200","724.0000002086163","","","","background","",""
"","null","html-keyboard-response","282","572408","0.0-20.0-0.34","SS1604514419166","","null","","","","","","","","","","","","<img src=images/blank.png width =""500"" height = ""500"" style=""border:5px solid black"">","","",""
"","820.9999999962747","stimulus-presentation","283","573466","0.0-20.0-1.34","SS1604514419166","<img src='images/complex/13.png' width ='500' height = '500' style='border:5px solid black'>","40","mixed_complex_deviant","images/simple/16.png","images/simple/10.png","images/complex/9.png,images/complex/14.png,images/complex/8.png,images/complex/6.png,images/complex/13.png,images/complex/2.png,images/complex/11.png","2","null","","200","1020.9999999962747","","","","deviant","",""
"","null","html-keyboard-response","284","574366","0.0-20.0-0.35","SS1604514419166","","null","","","","","","","","","","","","<img src=images/blank.png width =""500"" height = ""500"" style=""border:5px solid black"">","","",""
