"view_history","rt","trial_type","trial_index","time_elapsed","internal_node_id","subject","trial_stimulus","key_press","task_type","task_target_stimulus","task_background_stimulus","task_deviant_stimuli","task_order_number","block_order_number","trial_order_number","minimum_viewing_duration","trial_looking_time","trial_pressed_space_bar","trial_space_bar_rt","stimulus","trial_stimulus_type","responses","question_order"
"[{""page_index"":0,""viewing_time"":2121.000000042841}]","2121.000000042841","instructions","0","2136","0.0-0.0","SS1604513671340","","","","","","","","","","","","","","","","",""
"[{""page_index"":0,""viewing_time"":11984.000000054948},{""page_index"":1,""viewing_time"":6918.999999994412},{""page_index"":2,""viewing_time"":8633.000000030734},{""page_index"":3,""viewing_time"":45577.99999997951},{""page_index"":4,""viewing_time"":7846.99999995064},{""page_index"":5,""viewing_time"":9832.000000053085},{""page_index"":6,""viewing_time"":5486.99999996461},{""page_index"":7,""viewing_time"":5611.000000033528},{""page_index"":8,""viewing_time"":4834.999999962747}]","106727.00000007171","instructions","1","108870","0.0-1.0","SS1604513671340","","","","","","","","","","","","","","","","",""
"[{""page_index"":0,""viewing_time"":13069.000000017695},{""page_index"":1,""viewing_time"":20755.000000004657},{""page_index"":2,""viewing_time"":2768.999999971129}]","36594.00000004098","instructions","2","145468","0.0-2.0","SS1604513671340","","","","","","","","","","","","","","","","",""
"","20270.000000018626","practice-block","3","165941","0.0-3.0","SS1604513671340","<img src='images/practice/practice_background.jpeg' width ='500' height = '500' style='border:5px solid black'>","40","null","images/practice/practice_target.jpg","null","null","null","null","","200","20470.000000018626","yes","10491.000000038184","","","",""
"","null","html-keyboard-response","4","167227","0.0-4.0","SS1604513671340","","null","","","","","","","","","","","","<img src=images/blank.png width =""500"" height = ""500"" style=""border:5px solid black"">","","",""
"","1276.0000000707805","practice-block","5","168708","0.0-5.0","SS1604513671340","<img src='images/practice/practice_background.jpeg' width ='500' height = '500' style='border:5px solid black'>","40","null","images/practice/practice_target.jpg","null","null","null","null","","200","1476.0000000707805","","","","","",""
"","null","html-keyboard-response","6","169546","0.0-6.0","SS1604513671340","","null","","","","","","","","","","","","<img src=images/blank.png width =""500"" height = ""500"" style=""border:5px solid black"">","","",""
"","902.0000000018626","practice-block","7","170653","0.0-7.0","SS1604513671340","<img src='images/practice/practice_deviant.jpeg' width ='500' height = '500' style='border:5px solid black'>","40","null","images/practice/practice_target.jpg","null","null","null","null","","200","1102.0000000018626","","","","","",""
"","null","html-keyboard-response","8","171892","0.0-8.0","SS1604513671340","","null","","","","","","","","","","","","<img src=images/blank.png width =""500"" height = ""500"" style=""border:5px solid black"">","","",""
"","12043.00000006333","practice-block","9","184138","0.0-9.0-0.0","SS1604513671340","<img src='images/practice/practice_target.jpg' width ='500' height = '500' style='border:5px solid black'>","40","null","images/practice/practice_target.jpg","null","null","null","null","","200","12243.00000006333","yes","3604.9999999813735","","","",""
"","null","html-keyboard-response","10","185363","0.0-10.0","SS1604513671340","","null","","","","","","","","","","","","<img src=images/blank.png width =""500"" height = ""500"" style=""border:5px solid black"">","","",""
"","718.9999999245629","practice-block","11","186287","0.0-11.0","SS1604513671340","<img src='images/practice/practice_background.jpeg' width ='500' height = '500' style='border:5px solid black'>","40","null","images/practice/practice_target.jpg","null","null","null","null","","200","918.9999999245629","","","","","",""
"[{""page_index"":0,""viewing_time"":3355}]","3355","task-instructions","12","189645","0.0-12.0","SS1604513671340","","","","","","","","","","","","","","","","",""
"[{""page_index"":0,""viewing_time"":2045.9999999729916},{""page_index"":1,""viewing_time"":17565.000000060536},{""page_index"":2,""viewing_time"":2158.999999985099}]","21770.000000018626","instructions","13","211417","0.0-13.0","SS1604513671340","","","","","","","","","","","","","","","","",""
"","null","html-keyboard-response","14","212256","0.0-14.0-0.0","SS1604513671340","","null","","","","","","","","","","","","<img src=images/blank.png width =""500"" height = ""500"" style=""border:5px solid black"">","","",""
"","1689.9999999441206","stimulus-presentation","15","214152","0.0-14.0-1.0","SS1604513671340","<img src='images/complex/8.png' width ='500' height = '500' style='border:5px solid black'>","40","mixed_complex_deviant","images/simple/16.png","images/simple/10.png","images/complex/17.png,images/complex/3.png,images/complex/2.png,images/complex/12.png,images/complex/9.png,images/complex/8.png,images/complex/16.png","0","null","","200","1889.9999999441206","","","","deviant","",""
"","null","html-keyboard-response","16","215366","0.0-14.0-0.1","SS1604513671340","","null","","","","","","","","","","","","<img src=images/blank.png width =""500"" height = ""500"" style=""border:5px solid black"">","","",""
"","650.0000000232831","stimulus-presentation","17","216221","0.0-14.0-1.1","SS1604513671340","<img src='images/simple/10.png' width ='500' height = '500' style='border:5px solid black'>","40","mixed_complex_deviant","images/simple/16.png","images/simple/10.png","images/complex/17.png,images/complex/3.png,images/complex/2.png,images/complex/12.png,images/complex/9.png,images/complex/8.png,images/complex/16.png","0","null","","200","850.0000000232831","","","","background","",""
"","null","html-keyboard-response","18","217107","0.0-14.0-0.2","SS1604513671340","","null","","","","","","","","","","","","<img src=images/blank.png width =""500"" height = ""500"" style=""border:5px solid black"">","","",""
"","577.0000000484288","stimulus-presentation","19","217888","0.0-14.0-1.2","SS1604513671340","<img src='images/simple/10.png' width ='500' height = '500' style='border:5px solid black'>","40","mixed_complex_deviant","images/simple/16.png","images/simple/10.png","images/complex/17.png,images/complex/3.png,images/complex/2.png,images/complex/12.png,images/complex/9.png,images/complex/8.png,images/complex/16.png","0","null","","200","777.0000000484288","","","","background","",""
"","null","html-keyboard-response","20","219094","0.0-14.0-0.3","SS1604513671340","","null","","","","","","","","","","","","<img src=images/blank.png width =""500"" height = ""500"" style=""border:5px solid black"">","","",""
"","507.9999999143183","stimulus-presentation","21","219809","0.0-14.0-1.3","SS1604513671340","<img src='images/simple/10.png' width ='500' height = '500' style='border:5px solid black'>","40","mixed_complex_deviant","images/simple/16.png","images/simple/10.png","images/complex/17.png,images/complex/3.png,images/complex/2.png,images/complex/12.png,images/complex/9.png,images/complex/8.png,images/complex/16.png","0","null","","200","707.9999999143183","","","","background","",""
"","null","html-keyboard-response","22","220895","0.0-14.0-0.4","SS1604513671340","","null","","","","","","","","","","","","<img src=images/blank.png width =""500"" height = ""500"" style=""border:5px solid black"">","","",""
"","2731.000000028871","stimulus-presentation","23","223832","0.0-14.0-1.4","SS1604513671340","<img src='images/complex/16.png' width ='500' height = '500' style='border:5px solid black'>","40","mixed_complex_deviant","images/simple/16.png","images/simple/10.png","images/complex/17.png,images/complex/3.png,images/complex/2.png,images/complex/12.png,images/complex/9.png,images/complex/8.png,images/complex/16.png","0","null","","200","2931.000000028871","","","","deviant","",""
"","null","html-keyboard-response","24","224660","0.0-14.0-0.5","SS1604513671340","","null","","","","","","","","","","","","<img src=images/blank.png width =""500"" height = ""500"" style=""border:5px solid black"">","","",""
"","1590.000000083819","stimulus-presentation","25","226458","0.0-14.0-1.5","SS1604513671340","<img src='images/simple/10.png' width ='500' height = '500' style='border:5px solid black'>","40","mixed_complex_deviant","images/simple/16.png","images/simple/10.png","images/complex/17.png,images/complex/3.png,images/complex/2.png,images/complex/12.png,images/complex/9.png,images/complex/8.png,images/complex/16.png","0","null","","200","1790.000000083819","","","","background","",""
"","null","html-keyboard-response","26","227723","0.0-14.0-0.6","SS1604513671340","","null","","","","","","","","","","","","<img src=images/blank.png width =""500"" height = ""500"" style=""border:5px solid black"">","","",""
"","596.0000000195578","stimulus-presentation","27","228523","0.0-14.0-1.6","SS1604513671340","<img src='images/simple/10.png' width ='500' height = '500' style='border:5px solid black'>","40","mixed_complex_deviant","images/simple/16.png","images/simple/10.png","images/complex/17.png,images/complex/3.png,images/complex/2.png,images/complex/12.png,images/complex/9.png,images/complex/8.png,images/complex/16.png","0","null","","200","796.0000000195578","","","","background","",""
"","null","html-keyboard-response","28","229359","0.0-14.0-0.7","SS1604513671340","","null","","","","","","","","","","","","<img src=images/blank.png width =""500"" height = ""500"" style=""border:5px solid black"">","","",""
"","559.0000000083819","stimulus-presentation","29","230123","0.0-14.0-1.7","SS1604513671340","<img src='images/simple/10.png' width ='500' height = '500' style='border:5px solid black'>","40","mixed_complex_deviant","images/simple/16.png","images/simple/10.png","images/complex/17.png,images/complex/3.png,images/complex/2.png,images/complex/12.png,images/complex/9.png,images/complex/8.png,images/complex/16.png","0","null","","200","759.0000000083819","","","","background","",""
"","null","html-keyboard-response","30","231045","0.0-14.0-0.8","SS1604513671340","","null","","","","","","","","","","","","<img src=images/blank.png width =""500"" height = ""500"" style=""border:5px solid black"">","","",""
"","9049.99999993015","stimulus-presentation","31","240301","0.0-14.0-1.8","SS1604513671340","<img src='images/simple/16.png' width ='500' height = '500' style='border:5px solid black'>","40","mixed_complex_deviant","images/simple/16.png","images/simple/10.png","images/complex/17.png,images/complex/3.png,images/complex/2.png,images/complex/12.png,images/complex/9.png,images/complex/8.png,images/complex/16.png","0","null","","200","9249.99999993015","yes","3141.9999999925494","","target","",""
"","null","html-keyboard-response","32","241421","0.0-14.0-0.9","SS1604513671340","","null","","","","","","","","","","","","<img src=images/blank.png width =""500"" height = ""500"" style=""border:5px solid black"">","","",""
"","806.999999913387","stimulus-presentation","33","242434","0.0-14.0-1.9","SS1604513671340","<img src='images/simple/10.png' width ='500' height = '500' style='border:5px solid black'>","40","mixed_complex_deviant","images/simple/16.png","images/simple/10.png","images/complex/17.png,images/complex/3.png,images/complex/2.png,images/complex/12.png,images/complex/9.png,images/complex/8.png,images/complex/16.png","0","null","","200","1006.999999913387","","","","background","",""
"","null","html-keyboard-response","34","243473","0.0-14.0-0.10","SS1604513671340","","null","","","","","","","","","","","","<img src=images/blank.png width =""500"" height = ""500"" style=""border:5px solid black"">","","",""
"","498.0000000214204","stimulus-presentation","35","244173","0.0-14.0-1.10","SS1604513671340","<img src='images/simple/10.png' width ='500' height = '500' style='border:5px solid black'>","40","mixed_complex_deviant","images/simple/16.png","images/simple/10.png","images/complex/17.png,images/complex/3.png,images/complex/2.png,images/complex/12.png,images/complex/9.png,images/complex/8.png,images/complex/16.png","0","null","","200","698.0000000214204","","","","background","",""
"","null","html-keyboard-response","36","245190","0.0-14.0-0.11","SS1604513671340","","null","","","","","","","","","","","","<img src=images/blank.png width =""500"" height = ""500"" style=""border:5px solid black"">","","",""
"","501.00000004749745","stimulus-presentation","37","245892","0.0-14.0-1.11","SS1604513671340","<img src='images/complex/12.png' width ='500' height = '500' style='border:5px solid black'>","40","mixed_complex_deviant","images/simple/16.png","images/simple/10.png","images/complex/17.png,images/complex/3.png,images/complex/2.png,images/complex/12.png,images/complex/9.png,images/complex/8.png,images/complex/16.png","0","null","","200","701.0000000474975","","","","deviant","",""
"","null","html-keyboard-response","38","247167","0.0-14.0-0.12","SS1604513671340","","null","","","","","","","","","","","","<img src=images/blank.png width =""500"" height = ""500"" style=""border:5px solid black"">","","",""
"","508.00000003073364","stimulus-presentation","39","247881","0.0-14.0-1.12","SS1604513671340","<img src='images/simple/10.png' width ='500' height = '500' style='border:5px solid black'>","40","mixed_complex_deviant","images/simple/16.png","images/simple/10.png","images/complex/17.png,images/complex/3.png,images/complex/2.png,images/complex/12.png,images/complex/9.png,images/complex/8.png,images/complex/16.png","0","null","","200","708.0000000307336","","","","background","",""
"","null","html-keyboard-response","40","248687","0.0-14.0-0.13","SS1604513671340","","null","","","","","","","","","","","","<img src=images/blank.png width =""500"" height = ""500"" style=""border:5px solid black"">","","",""
"","971.9999999506399","stimulus-presentation","41","249865","0.0-14.0-1.13","SS1604513671340","<img src='images/simple/10.png' width ='500' height = '500' style='border:5px solid black'>","40","mixed_complex_deviant","images/simple/16.png","images/simple/10.png","images/complex/17.png,images/complex/3.png,images/complex/2.png,images/complex/12.png,images/complex/9.png,images/complex/8.png,images/complex/16.png","0","null","","200","1171.99999995064","","","","background","",""
"","null","html-keyboard-response","42","250685","0.0-14.0-0.14","SS1604513671340","","null","","","","","","","","","","","","<img src=images/blank.png width =""500"" height = ""500"" style=""border:5px solid black"">","","",""
"","578.0000000959262","stimulus-presentation","43","251468","0.0-14.0-1.14","SS1604513671340","<img src='images/simple/10.png' width ='500' height = '500' style='border:5px solid black'>","40","mixed_complex_deviant","images/simple/16.png","images/simple/10.png","images/complex/17.png,images/complex/3.png,images/complex/2.png,images/complex/12.png,images/complex/9.png,images/complex/8.png,images/complex/16.png","0","null","","200","778.0000000959262","","","","background","",""
"","null","html-keyboard-response","44","252756","0.0-14.0-0.15","SS1604513671340","","null","","","","","","","","","","","","<img src=images/blank.png width =""500"" height = ""500"" style=""border:5px solid black"">","","",""
"","2214.9999999674037","stimulus-presentation","45","255175","0.0-14.0-1.15","SS1604513671340","<img src='images/simple/16.png' width ='500' height = '500' style='border:5px solid black'>","40","mixed_complex_deviant","images/simple/16.png","images/simple/10.png","images/complex/17.png,images/complex/3.png,images/complex/2.png,images/complex/12.png,images/complex/9.png,images/complex/8.png,images/complex/16.png","0","null","","200","2414.9999999674037","yes","770.9999999497086","","target","",""
"","null","html-keyboard-response","46","256049","0.0-14.0-0.16","SS1604513671340","","null","","","","","","","","","","","","<img src=images/blank.png width =""500"" height = ""500"" style=""border:5px solid black"">","","",""
"","929.0000000037253","stimulus-presentation","47","257182","0.0-14.0-1.16","SS1604513671340","<img src='images/complex/9.png' width ='500' height = '500' style='border:5px solid black'>","40","mixed_complex_deviant","images/simple/16.png","images/simple/10.png","images/complex/17.png,images/complex/3.png,images/complex/2.png,images/complex/12.png,images/complex/9.png,images/complex/8.png,images/complex/16.png","0","null","","200","1129.0000000037253","","","","deviant","",""
"","null","html-keyboard-response","48","258120","0.0-14.0-0.17","SS1604513671340","","null","","","","","","","","","","","","<img src=images/blank.png width =""500"" height = ""500"" style=""border:5px solid black"">","","",""
"","500","stimulus-presentation","49","258824","0.0-14.0-1.17","SS1604513671340","<img src='images/simple/10.png' width ='500' height = '500' style='border:5px solid black'>","40","mixed_complex_deviant","images/simple/16.png","images/simple/10.png","images/complex/17.png,images/complex/3.png,images/complex/2.png,images/complex/12.png,images/complex/9.png,images/complex/8.png,images/complex/16.png","0","null","","200","700","","","","background","",""
"","null","html-keyboard-response","50","259688","0.0-14.0-0.18","SS1604513671340","","null","","","","","","","","","","","","<img src=images/blank.png width =""500"" height = ""500"" style=""border:5px solid black"">","","",""
"","484.99999998603016","stimulus-presentation","51","260382","0.0-14.0-1.18","SS1604513671340","<img src='images/simple/16.png' width ='500' height = '500' style='border:5px solid black'>","40","mixed_complex_deviant","images/simple/16.png","images/simple/10.png","images/complex/17.png,images/complex/3.png,images/complex/2.png,images/complex/12.png,images/complex/9.png,images/complex/8.png,images/complex/16.png","0","null","","200","684.9999999860302","","","","target","",""
"","null","html-keyboard-response","52","261585","0.0-14.0-0.19","SS1604513671340","","null","","","","","","","","","","","","<img src=images/blank.png width =""500"" height = ""500"" style=""border:5px solid black"">","","",""
"","811.9999999180436","stimulus-presentation","53","262602","0.0-14.0-1.19","SS1604513671340","<img src='images/simple/10.png' width ='500' height = '500' style='border:5px solid black'>","40","mixed_complex_deviant","images/simple/16.png","images/simple/10.png","images/complex/17.png,images/complex/3.png,images/complex/2.png,images/complex/12.png,images/complex/9.png,images/complex/8.png,images/complex/16.png","0","null","","200","1011.9999999180436","","","","background","",""
"","null","html-keyboard-response","54","263516","0.0-14.0-0.20","SS1604513671340","","null","","","","","","","","","","","","<img src=images/blank.png width =""500"" height = ""500"" style=""border:5px solid black"">","","",""
"","555.9999999823049","stimulus-presentation","55","264280","0.0-14.0-1.20","SS1604513671340","<img src='images/simple/10.png' width ='500' height = '500' style='border:5px solid black'>","40","mixed_complex_deviant","images/simple/16.png","images/simple/10.png","images/complex/17.png,images/complex/3.png,images/complex/2.png,images/complex/12.png,images/complex/9.png,images/complex/8.png,images/complex/16.png","0","null","","200","755.9999999823049","","","","background","",""
"","null","html-keyboard-response","56","265159","0.0-14.0-0.21","SS1604513671340","","null","","","","","","","","","","","","<img src=images/blank.png width =""500"" height = ""500"" style=""border:5px solid black"">","","",""
"","544.0000001108274","stimulus-presentation","57","265908","0.0-14.0-1.21","SS1604513671340","<img src='images/simple/10.png' width ='500' height = '500' style='border:5px solid black'>","40","mixed_complex_deviant","images/simple/16.png","images/simple/10.png","images/complex/17.png,images/complex/3.png,images/complex/2.png,images/complex/12.png,images/complex/9.png,images/complex/8.png,images/complex/16.png","0","null","","200","744.0000001108274","","","","background","",""
"","null","html-keyboard-response","58","267037","0.0-14.0-0.22","SS1604513671340","","null","","","","","","","","","","","","<img src=images/blank.png width =""500"" height = ""500"" style=""border:5px solid black"">","","",""
"","569.0000000176951","stimulus-presentation","59","267812","0.0-14.0-1.22","SS1604513671340","<img src='images/simple/10.png' width ='500' height = '500' style='border:5px solid black'>","40","mixed_complex_deviant","images/simple/16.png","images/simple/10.png","images/complex/17.png,images/complex/3.png,images/complex/2.png,images/complex/12.png,images/complex/9.png,images/complex/8.png,images/complex/16.png","0","null","","200","769.0000000176951","","","","background","",""
"","null","html-keyboard-response","60","268807","0.0-14.0-0.23","SS1604513671340","","null","","","","","","","","","","","","<img src=images/blank.png width =""500"" height = ""500"" style=""border:5px solid black"">","","",""
"","623.0000000214204","stimulus-presentation","61","269637","0.0-14.0-1.23","SS1604513671340","<img src='images/simple/10.png' width ='500' height = '500' style='border:5px solid black'>","40","mixed_complex_deviant","images/simple/16.png","images/simple/10.png","images/complex/17.png,images/complex/3.png,images/complex/2.png,images/complex/12.png,images/complex/9.png,images/complex/8.png,images/complex/16.png","0","null","","200","823.0000000214204","","","","background","",""
"","null","html-keyboard-response","62","270805","0.0-14.0-0.24","SS1604513671340","","null","","","","","","","","","","","","<img src=images/blank.png width =""500"" height = ""500"" style=""border:5px solid black"">","","",""
"","661.0000000800937","stimulus-presentation","63","271672","0.0-14.0-1.24","SS1604513671340","<img src='images/simple/10.png' width ='500' height = '500' style='border:5px solid black'>","40","mixed_complex_deviant","images/simple/16.png","images/simple/10.png","images/complex/17.png,images/complex/3.png,images/complex/2.png,images/complex/12.png,images/complex/9.png,images/complex/8.png,images/complex/16.png","0","null","","200","861.0000000800937","","","","background","",""
"","null","html-keyboard-response","64","272613","0.0-14.0-0.25","SS1604513671340","","null","","","","","","","","","","","","<img src=images/blank.png width =""500"" height = ""500"" style=""border:5px solid black"">","","",""
"","520.0000000186265","stimulus-presentation","65","273342","0.0-14.0-1.25","SS1604513671340","<img src='images/simple/10.png' width ='500' height = '500' style='border:5px solid black'>","40","mixed_complex_deviant","images/simple/16.png","images/simple/10.png","images/complex/17.png,images/complex/3.png,images/complex/2.png,images/complex/12.png,images/complex/9.png,images/complex/8.png,images/complex/16.png","0","null","","200","720.0000000186265","","","","background","",""
"","null","html-keyboard-response","66","274605","0.0-14.0-0.26","SS1604513671340","","null","","","","","","","","","","","","<img src=images/blank.png width =""500"" height = ""500"" style=""border:5px solid black"">","","",""
"","1944.0000000176951","stimulus-presentation","67","276753","0.0-14.0-1.26","SS1604513671340","<img src='images/simple/16.png' width ='500' height = '500' style='border:5px solid black'>","40","mixed_complex_deviant","images/simple/16.png","images/simple/10.png","images/complex/17.png,images/complex/3.png,images/complex/2.png,images/complex/12.png,images/complex/9.png,images/complex/8.png,images/complex/16.png","0","null","","200","2144.000000017695","yes","658.0000000540167","","target","",""
"","null","html-keyboard-response","68","277678","0.0-14.0-0.27","SS1604513671340","","null","","","","","","","","","","","","<img src=images/blank.png width =""500"" height = ""500"" style=""border:5px solid black"">","","",""
"","538.9999999897555","stimulus-presentation","69","278432","0.0-14.0-1.27","SS1604513671340","<img src='images/simple/10.png' width ='500' height = '500' style='border:5px solid black'>","40","mixed_complex_deviant","images/simple/16.png","images/simple/10.png","images/complex/17.png,images/complex/3.png,images/complex/2.png,images/complex/12.png,images/complex/9.png,images/complex/8.png,images/complex/16.png","0","null","","200","738.9999999897555","","","","background","",""
"","null","html-keyboard-response","70","279553","0.0-14.0-0.28","SS1604513671340","","null","","","","","","","","","","","","<img src=images/blank.png width =""500"" height = ""500"" style=""border:5px solid black"">","","",""
"","717.0000000623986","stimulus-presentation","71","280479","0.0-14.0-1.28","SS1604513671340","<img src='images/complex/2.png' width ='500' height = '500' style='border:5px solid black'>","40","mixed_complex_deviant","images/simple/16.png","images/simple/10.png","images/complex/17.png,images/complex/3.png,images/complex/2.png,images/complex/12.png,images/complex/9.png,images/complex/8.png,images/complex/16.png","0","null","","200","917.0000000623986","","","","deviant","",""
"","null","html-keyboard-response","72","281666","0.0-14.0-0.29","SS1604513671340","","null","","","","","","","","","","","","<img src=images/blank.png width =""500"" height = ""500"" style=""border:5px solid black"">","","",""
"","576.0000000009313","stimulus-presentation","73","282449","0.0-14.0-1.29","SS1604513671340","<img src='images/simple/10.png' width ='500' height = '500' style='border:5px solid black'>","40","mixed_complex_deviant","images/simple/16.png","images/simple/10.png","images/complex/17.png,images/complex/3.png,images/complex/2.png,images/complex/12.png,images/complex/9.png,images/complex/8.png,images/complex/16.png","0","null","","200","776.0000000009313","","","","background","",""
"","null","html-keyboard-response","74","283641","0.0-14.0-0.30","SS1604513671340","","null","","","","","","","","","","","","<img src=images/blank.png width =""500"" height = ""500"" style=""border:5px solid black"">","","",""
"","564.0000000130385","stimulus-presentation","75","284408","0.0-14.0-1.30","SS1604513671340","<img src='images/simple/10.png' width ='500' height = '500' style='border:5px solid black'>","40","mixed_complex_deviant","images/simple/16.png","images/simple/10.png","images/complex/17.png,images/complex/3.png,images/complex/2.png,images/complex/12.png,images/complex/9.png,images/complex/8.png,images/complex/16.png","0","null","","200","764.0000000130385","","","","background","",""
"","null","html-keyboard-response","76","285266","0.0-14.0-0.31","SS1604513671340","","null","","","","","","","","","","","","<img src=images/blank.png width =""500"" height = ""500"" style=""border:5px solid black"">","","",""
"","525.9999999543652","stimulus-presentation","77","285997","0.0-14.0-1.31","SS1604513671340","<img src='images/simple/10.png' width ='500' height = '500' style='border:5px solid black'>","40","mixed_complex_deviant","images/simple/16.png","images/simple/10.png","images/complex/17.png,images/complex/3.png,images/complex/2.png,images/complex/12.png,images/complex/9.png,images/complex/8.png,images/complex/16.png","0","null","","200","725.9999999543652","","","","background","",""
"","null","html-keyboard-response","78","287286","0.0-14.0-0.32","SS1604513671340","","null","","","","","","","","","","","","<img src=images/blank.png width =""500"" height = ""500"" style=""border:5px solid black"">","","",""
"","1216.0000000149012","stimulus-presentation","79","288707","0.0-14.0-1.32","SS1604513671340","<img src='images/simple/10.png' width ='500' height = '500' style='border:5px solid black'>","40","mixed_complex_deviant","images/simple/16.png","images/simple/10.png","images/complex/17.png,images/complex/3.png,images/complex/2.png,images/complex/12.png,images/complex/9.png,images/complex/8.png,images/complex/16.png","0","null","","200","1416.0000000149012","","","","background","",""
"","null","html-keyboard-response","80","289663","0.0-14.0-0.33","SS1604513671340","","null","","","","","","","","","","","","<img src=images/blank.png width =""500"" height = ""500"" style=""border:5px solid black"">","","",""
"","746.999999973923","stimulus-presentation","81","290618","0.0-14.0-1.33","SS1604513671340","<img src='images/complex/3.png' width ='500' height = '500' style='border:5px solid black'>","40","mixed_complex_deviant","images/simple/16.png","images/simple/10.png","images/complex/17.png,images/complex/3.png,images/complex/2.png,images/complex/12.png,images/complex/9.png,images/complex/8.png,images/complex/16.png","0","null","","200","946.999999973923","","","","deviant","",""
"","null","html-keyboard-response","82","291573","0.0-14.0-0.34","SS1604513671340","","null","","","","","","","","","","","","<img src=images/blank.png width =""500"" height = ""500"" style=""border:5px solid black"">","","",""
"","2675.9999999776483","stimulus-presentation","83","294456","0.0-14.0-1.34","SS1604513671340","<img src='images/simple/16.png' width ='500' height = '500' style='border:5px solid black'>","40","mixed_complex_deviant","images/simple/16.png","images/simple/10.png","images/complex/17.png,images/complex/3.png,images/complex/2.png,images/complex/12.png,images/complex/9.png,images/complex/8.png,images/complex/16.png","0","null","","200","2875.9999999776483","yes","728.9999999338761","","target","",""
"","null","html-keyboard-response","84","295301","0.0-14.0-0.35","SS1604513671340","","null","","","","","","","","","","","","<img src=images/blank.png width =""500"" height = ""500"" style=""border:5px solid black"">","","",""
"","1957.9999999841675","stimulus-presentation","85","297466","0.0-14.0-1.35","SS1604513671340","<img src='images/simple/16.png' width ='500' height = '500' style='border:5px solid black'>","40","mixed_complex_deviant","images/simple/16.png","images/simple/10.png","images/complex/17.png,images/complex/3.png,images/complex/2.png,images/complex/12.png,images/complex/9.png,images/complex/8.png,images/complex/16.png","0","null","","200","2157.9999999841675","yes","851.9999999552965","","target","",""
"","null","html-keyboard-response","86","298585","0.0-14.0-0.36","SS1604513671340","","null","","","","","","","","","","","","<img src=images/blank.png width =""500"" height = ""500"" style=""border:5px solid black"">","","",""
"","1635.0000000093132","stimulus-presentation","87","300426","0.0-14.0-1.36","SS1604513671340","<img src='images/simple/10.png' width ='500' height = '500' style='border:5px solid black'>","40","mixed_complex_deviant","images/simple/16.png","images/simple/10.png","images/complex/17.png,images/complex/3.png,images/complex/2.png,images/complex/12.png,images/complex/9.png,images/complex/8.png,images/complex/16.png","0","null","","200","1835.0000000093132","","","","background","",""
"","null","html-keyboard-response","88","301345","0.0-14.0-0.37","SS1604513671340","","null","","","","","","","","","","","","<img src=images/blank.png width =""500"" height = ""500"" style=""border:5px solid black"">","","",""
"","494.9999999953434","stimulus-presentation","89","302045","0.0-14.0-1.37","SS1604513671340","<img src='images/simple/10.png' width ='500' height = '500' style='border:5px solid black'>","40","mixed_complex_deviant","images/simple/16.png","images/simple/10.png","images/complex/17.png,images/complex/3.png,images/complex/2.png,images/complex/12.png,images/complex/9.png,images/complex/8.png,images/complex/16.png","0","null","","200","694.9999999953434","","","","background","",""
"","null","html-keyboard-response","90","303331","0.0-14.0-0.38","SS1604513671340","","null","","","","","","","","","","","","<img src=images/blank.png width =""500"" height = ""500"" style=""border:5px solid black"">","","",""
"","509.0000000782311","stimulus-presentation","91","304047","0.0-14.0-1.38","SS1604513671340","<img src='images/simple/10.png' width ='500' height = '500' style='border:5px solid black'>","40","mixed_complex_deviant","images/simple/16.png","images/simple/10.png","images/complex/17.png,images/complex/3.png,images/complex/2.png,images/complex/12.png,images/complex/9.png,images/complex/8.png,images/complex/16.png","0","null","","200","709.0000000782311","","","","background","",""
"","null","html-keyboard-response","92","305074","0.0-14.0-0.39","SS1604513671340","","null","","","","","","","","","","","","<img src=images/blank.png width =""500"" height = ""500"" style=""border:5px solid black"">","","",""
"","540.0000000372529","stimulus-presentation","93","305821","0.0-14.0-1.39","SS1604513671340","<img src='images/complex/17.png' width ='500' height = '500' style='border:5px solid black'>","40","mixed_complex_deviant","images/simple/16.png","images/simple/10.png","images/complex/17.png,images/complex/3.png,images/complex/2.png,images/complex/12.png,images/complex/9.png,images/complex/8.png,images/complex/16.png","0","null","","200","740.0000000372529","","","","deviant","",""
"","null","html-keyboard-response","94","307097","0.0-14.0-0.40","SS1604513671340","","null","","","","","","","","","","","","<img src=images/blank.png width =""500"" height = ""500"" style=""border:5px solid black"">","","",""
"","520.9999999497086","stimulus-presentation","95","307822","0.0-14.0-1.40","SS1604513671340","<img src='images/simple/10.png' width ='500' height = '500' style='border:5px solid black'>","40","mixed_complex_deviant","images/simple/16.png","images/simple/10.png","images/complex/17.png,images/complex/3.png,images/complex/2.png,images/complex/12.png,images/complex/9.png,images/complex/8.png,images/complex/16.png","0","null","","200","720.9999999497086","","","","background","",""
"","null","html-keyboard-response","96","308695","0.0-14.0-0.41","SS1604513671340","","null","","","","","","","","","","","","<img src=images/blank.png width =""500"" height = ""500"" style=""border:5px solid black"">","","",""
"","595.0000000884756","stimulus-presentation","97","309496","0.0-14.0-1.41","SS1604513671340","<img src='images/simple/10.png' width ='500' height = '500' style='border:5px solid black'>","40","mixed_complex_deviant","images/simple/16.png","images/simple/10.png","images/complex/17.png,images/complex/3.png,images/complex/2.png,images/complex/12.png,images/complex/9.png,images/complex/8.png,images/complex/16.png","0","null","","200","795.0000000884756","","","","background","",""
"","null","html-keyboard-response","98","310439","0.0-14.0-0.42","SS1604513671340","","null","","","","","","","","","","","","<img src=images/blank.png width =""500"" height = ""500"" style=""border:5px solid black"">","","",""
"","488.0000000121072","stimulus-presentation","99","311133","0.0-14.0-1.42","SS1604513671340","<img src='images/simple/10.png' width ='500' height = '500' style='border:5px solid black'>","40","mixed_complex_deviant","images/simple/16.png","images/simple/10.png","images/complex/17.png,images/complex/3.png,images/complex/2.png,images/complex/12.png,images/complex/9.png,images/complex/8.png,images/complex/16.png","0","null","","200","688.0000000121072","","","","background","",""
"","null","html-keyboard-response","100","312098","0.0-14.0-0.43","SS1604513671340","","null","","","","","","","","","","","","<img src=images/blank.png width =""500"" height = ""500"" style=""border:5px solid black"">","","",""
"","505.99999993573874","stimulus-presentation","101","312811","0.0-14.0-1.43","SS1604513671340","<img src='images/simple/10.png' width ='500' height = '500' style='border:5px solid black'>","40","mixed_complex_deviant","images/simple/16.png","images/simple/10.png","images/complex/17.png,images/complex/3.png,images/complex/2.png,images/complex/12.png,images/complex/9.png,images/complex/8.png,images/complex/16.png","0","null","","200","705.9999999357387","","","","background","",""
"","null","html-keyboard-response","102","313816","0.0-14.0-0.44","SS1604513671340","","null","","","","","","","","","","","","<img src=images/blank.png width =""500"" height = ""500"" style=""border:5px solid black"">","","",""
"","1662.0000000111759","stimulus-presentation","103","315684","0.0-14.0-1.44","SS1604513671340","<img src='images/simple/16.png' width ='500' height = '500' style='border:5px solid black'>","40","mixed_complex_deviant","images/simple/16.png","images/simple/10.png","images/complex/17.png,images/complex/3.png,images/complex/2.png,images/complex/12.png,images/complex/9.png,images/complex/8.png,images/complex/16.png","0","null","","200","1862.0000000111759","yes","657.0000000065193","","target","",""
"","null","html-keyboard-response","104","316648","0.0-14.0-0.45","SS1604513671340","","null","","","","","","","","","","","","<img src=images/blank.png width =""500"" height = ""500"" style=""border:5px solid black"">","","",""
"","729.9999999813735","stimulus-presentation","105","317584","0.0-14.0-1.45","SS1604513671340","<img src='images/simple/10.png' width ='500' height = '500' style='border:5px solid black'>","40","mixed_complex_deviant","images/simple/16.png","images/simple/10.png","images/complex/17.png,images/complex/3.png,images/complex/2.png,images/complex/12.png,images/complex/9.png,images/complex/8.png,images/complex/16.png","0","null","","200","929.9999999813735","","","","background","",""
"","null","html-keyboard-response","106","318637","0.0-14.0-0.46","SS1604513671340","","null","","","","","","","","","","","","<img src=images/blank.png width =""500"" height = ""500"" style=""border:5px solid black"">","","",""
"","479.99999998137355","stimulus-presentation","107","319323","0.0-14.0-1.46","SS1604513671340","<img src='images/simple/10.png' width ='500' height = '500' style='border:5px solid black'>","40","mixed_complex_deviant","images/simple/16.png","images/simple/10.png","images/complex/17.png,images/complex/3.png,images/complex/2.png,images/complex/12.png,images/complex/9.png,images/complex/8.png,images/complex/16.png","0","null","","200","679.9999999813735","","","","background","",""
"","null","html-keyboard-response","108","320318","0.0-14.0-0.47","SS1604513671340","","null","","","","","","","","","","","","<img src=images/blank.png width =""500"" height = ""500"" style=""border:5px solid black"">","","",""
"","506.9999999832362","stimulus-presentation","109","321032","0.0-14.0-1.47","SS1604513671340","<img src='images/simple/10.png' width ='500' height = '500' style='border:5px solid black'>","40","mixed_complex_deviant","images/simple/16.png","images/simple/10.png","images/complex/17.png,images/complex/3.png,images/complex/2.png,images/complex/12.png,images/complex/9.png,images/complex/8.png,images/complex/16.png","0","null","","200","706.9999999832362","","","","background","",""
"","null","html-keyboard-response","110","322104","0.0-14.0-0.48","SS1604513671340","","null","","","","","","","","","","","","<img src=images/blank.png width =""500"" height = ""500"" style=""border:5px solid black"">","","",""
"","507.9999999143183","stimulus-presentation","111","322820","0.0-14.0-1.48","SS1604513671340","<img src='images/simple/10.png' width ='500' height = '500' style='border:5px solid black'>","40","mixed_complex_deviant","images/simple/16.png","images/simple/10.png","images/complex/17.png,images/complex/3.png,images/complex/2.png,images/complex/12.png,images/complex/9.png,images/complex/8.png,images/complex/16.png","0","null","","200","707.9999999143183","","","","background","",""
"[{""page_index"":0,""viewing_time"":4150}]","4151","task-instructions","112","326976","0.0-15.0","SS1604513671340","","","","","","","","","","","","","","","","",""
"[{""page_index"":0,""viewing_time"":14432.999999960884},{""page_index"":1,""viewing_time"":4266.000000061467},{""page_index"":2,""viewing_time"":1923.9999999990687}]","20623.999999952503","instructions","113","347604","0.0-16.0","SS1604513671340","","","","","","","","","","","","","","","","",""
"","null","html-keyboard-response","114","348441","0.0-17.0-0.0","SS1604513671340","","null","","","","","","","","","","","","<img src=images/blank.png width =""500"" height = ""500"" style=""border:5px solid black"">","","",""
"","1736.9999999646097","stimulus-presentation","115","350384","0.0-17.0-1.0","SS1604513671340","<img src='images/complex/1.png' width ='500' height = '500' style='border:5px solid black'>","40","all_complex","images/complex/13.png","images/complex/1.png","images/complex/11.png,images/complex/4.png,images/complex/5.png,images/complex/15.png,images/complex/7.png,images/complex/18.png,images/complex/14.png","1","null","","200","1936.9999999646097","","","","background","",""
"","null","html-keyboard-response","116","351470","0.0-17.0-0.1","SS1604513671340","","null","","","","","","","","","","","","<img src=images/blank.png width =""500"" height = ""500"" style=""border:5px solid black"">","","",""
"","564.0000000130385","stimulus-presentation","117","352240","0.0-17.0-1.1","SS1604513671340","<img src='images/complex/1.png' width ='500' height = '500' style='border:5px solid black'>","40","all_complex","images/complex/13.png","images/complex/1.png","images/complex/11.png,images/complex/4.png,images/complex/5.png,images/complex/15.png,images/complex/7.png,images/complex/18.png,images/complex/14.png","1","null","","200","764.0000000130385","","","","background","",""
"","null","html-keyboard-response","118","353273","0.0-17.0-0.2","SS1604513671340","","null","","","","","","","","","","","","<img src=images/blank.png width =""500"" height = ""500"" style=""border:5px solid black"">","","",""
"","570.0000000651926","stimulus-presentation","119","354049","0.0-17.0-1.2","SS1604513671340","<img src='images/complex/13.png' width ='500' height = '500' style='border:5px solid black'>","40","all_complex","images/complex/13.png","images/complex/1.png","images/complex/11.png,images/complex/4.png,images/complex/5.png,images/complex/15.png,images/complex/7.png,images/complex/18.png,images/complex/14.png","1","null","","200","770.0000000651926","","","","target","",""
"","null","html-keyboard-response","120","355237","0.0-17.0-0.3","SS1604513671340","","null","","","","","","","","","","","","<img src=images/blank.png width =""500"" height = ""500"" style=""border:5px solid black"">","","",""
"","702.9999999795109","stimulus-presentation","121","356147","0.0-17.0-1.3","SS1604513671340","<img src='images/complex/1.png' width ='500' height = '500' style='border:5px solid black'>","40","all_complex","images/complex/13.png","images/complex/1.png","images/complex/11.png,images/complex/4.png,images/complex/5.png,images/complex/15.png,images/complex/7.png,images/complex/18.png,images/complex/14.png","1","null","","200","902.9999999795109","","","","background","",""
"","null","html-keyboard-response","122","356968","0.0-17.0-0.4","SS1604513671340","","null","","","","","","","","","","","","<img src=images/blank.png width =""500"" height = ""500"" style=""border:5px solid black"">","","",""
"","635.0000000093132","stimulus-presentation","123","357809","0.0-17.0-1.4","SS1604513671340","<img src='images/complex/13.png' width ='500' height = '500' style='border:5px solid black'>","40","all_complex","images/complex/13.png","images/complex/1.png","images/complex/11.png,images/complex/4.png,images/complex/5.png,images/complex/15.png,images/complex/7.png,images/complex/18.png,images/complex/14.png","1","null","","200","835.0000000093132","","","","target","",""
"","null","html-keyboard-response","124","358795","0.0-17.0-0.5","SS1604513671340","","null","","","","","","","","","","","","<img src=images/blank.png width =""500"" height = ""500"" style=""border:5px solid black"">","","",""
"","694.0000000176951","stimulus-presentation","125","359696","0.0-17.0-1.5","SS1604513671340","<img src='images/complex/1.png' width ='500' height = '500' style='border:5px solid black'>","40","all_complex","images/complex/13.png","images/complex/1.png","images/complex/11.png,images/complex/4.png,images/complex/5.png,images/complex/15.png,images/complex/7.png,images/complex/18.png,images/complex/14.png","1","null","","200","894.0000000176951","","","","background","",""
"","null","html-keyboard-response","126","360911","0.0-17.0-0.6","SS1604513671340","","null","","","","","","","","","","","","<img src=images/blank.png width =""500"" height = ""500"" style=""border:5px solid black"">","","",""
"","596.9999999506399","stimulus-presentation","127","361715","0.0-17.0-1.6","SS1604513671340","<img src='images/complex/1.png' width ='500' height = '500' style='border:5px solid black'>","40","all_complex","images/complex/13.png","images/complex/1.png","images/complex/11.png,images/complex/4.png,images/complex/5.png,images/complex/15.png,images/complex/7.png,images/complex/18.png,images/complex/14.png","1","null","","200","796.9999999506399","","","","background","",""
"","null","html-keyboard-response","128","362967","0.0-17.0-0.7","SS1604513671340","","null","","","","","","","","","","","","<img src=images/blank.png width =""500"" height = ""500"" style=""border:5px solid black"">","","",""
"","660.0000000325963","stimulus-presentation","129","363832","0.0-17.0-1.7","SS1604513671340","<img src='images/complex/1.png' width ='500' height = '500' style='border:5px solid black'>","40","all_complex","images/complex/13.png","images/complex/1.png","images/complex/11.png,images/complex/4.png,images/complex/5.png,images/complex/15.png,images/complex/7.png,images/complex/18.png,images/complex/14.png","1","null","","200","860.0000000325963","","","","background","",""
"","null","html-keyboard-response","130","364965","0.0-17.0-0.8","SS1604513671340","","null","","","","","","","","","","","","<img src=images/blank.png width =""500"" height = ""500"" style=""border:5px solid black"">","","",""
"","658.0000000540167","stimulus-presentation","131","365830","0.0-17.0-1.8","SS1604513671340","<img src='images/complex/1.png' width ='500' height = '500' style='border:5px solid black'>","40","all_complex","images/complex/13.png","images/complex/1.png","images/complex/11.png,images/complex/4.png,images/complex/5.png,images/complex/15.png,images/complex/7.png,images/complex/18.png,images/complex/14.png","1","null","","200","858.0000000540167","","","","background","",""
"","null","html-keyboard-response","132","366850","0.0-17.0-0.9","SS1604513671340","","null","","","","","","","","","","","","<img src=images/blank.png width =""500"" height = ""500"" style=""border:5px solid black"">","","",""
"","1685.0000000558794","stimulus-presentation","133","368741","0.0-17.0-1.9","SS1604513671340","<img src='images/complex/13.png' width ='500' height = '500' style='border:5px solid black'>","40","all_complex","images/complex/13.png","images/complex/1.png","images/complex/11.png,images/complex/4.png,images/complex/5.png,images/complex/15.png,images/complex/7.png,images/complex/18.png,images/complex/14.png","1","null","","200","1885.0000000558794","yes","849.0000000456348","","target","",""
"","null","html-keyboard-response","134","369677","0.0-17.0-0.10","SS1604513671340","","null","","","","","","","","","","","","<img src=images/blank.png width =""500"" height = ""500"" style=""border:5px solid black"">","","",""
"","578.999999910593","stimulus-presentation","135","370462","0.0-17.0-1.10","SS1604513671340","<img src='images/complex/1.png' width ='500' height = '500' style='border:5px solid black'>","40","all_complex","images/complex/13.png","images/complex/1.png","images/complex/11.png,images/complex/4.png,images/complex/5.png,images/complex/15.png,images/complex/7.png,images/complex/18.png,images/complex/14.png","1","null","","200","778.999999910593","","","","background","",""
"","null","html-keyboard-response","136","371298","0.0-17.0-0.11","SS1604513671340","","null","","","","","","","","","","","","<img src=images/blank.png width =""500"" height = ""500"" style=""border:5px solid black"">","","",""
"","2994.9999999953434","stimulus-presentation","137","374498","0.0-17.0-1.11","SS1604513671340","<img src='images/complex/13.png' width ='500' height = '500' style='border:5px solid black'>","40","all_complex","images/complex/13.png","images/complex/1.png","images/complex/11.png,images/complex/4.png,images/complex/5.png,images/complex/15.png,images/complex/7.png,images/complex/18.png,images/complex/14.png","1","null","","200","3194.9999999953434","yes","2167.0000000158325","","target","",""
"","null","html-keyboard-response","138","375531","0.0-17.0-0.12","SS1604513671340","","null","","","","","","","","","","","","<img src=images/blank.png width =""500"" height = ""500"" style=""border:5px solid black"">","","",""
"","1363.9999999431893","stimulus-presentation","139","377102","0.0-17.0-1.12","SS1604513671340","<img src='images/complex/15.png' width ='500' height = '500' style='border:5px solid black'>","40","all_complex","images/complex/13.png","images/complex/1.png","images/complex/11.png,images/complex/4.png,images/complex/5.png,images/complex/15.png,images/complex/7.png,images/complex/18.png,images/complex/14.png","1","null","","200","1563.9999999431893","","","","deviant","",""
"","null","html-keyboard-response","140","378389","0.0-17.0-0.13","SS1604513671340","","null","","","","","","","","","","","","<img src=images/blank.png width =""500"" height = ""500"" style=""border:5px solid black"">","","",""
"","631.9999999832362","stimulus-presentation","141","379228","0.0-17.0-1.13","SS1604513671340","<img src='images/complex/1.png' width ='500' height = '500' style='border:5px solid black'>","40","all_complex","images/complex/13.png","images/complex/1.png","images/complex/11.png,images/complex/4.png,images/complex/5.png,images/complex/15.png,images/complex/7.png,images/complex/18.png,images/complex/14.png","1","null","","200","831.9999999832362","","","","background","",""
"","null","html-keyboard-response","142","380040","0.0-17.0-0.14","SS1604513671340","","null","","","","","","","","","","","","<img src=images/blank.png width =""500"" height = ""500"" style=""border:5px solid black"">","","",""
"","844.9999999720603","stimulus-presentation","143","381089","0.0-17.0-1.14","SS1604513671340","<img src='images/complex/4.png' width ='500' height = '500' style='border:5px solid black'>","40","all_complex","images/complex/13.png","images/complex/1.png","images/complex/11.png,images/complex/4.png,images/complex/5.png,images/complex/15.png,images/complex/7.png,images/complex/18.png,images/complex/14.png","1","null","","200","1044.9999999720603","","","","deviant","",""
"","null","html-keyboard-response","144","382188","0.0-17.0-0.15","SS1604513671340","","null","","","","","","","","","","","","<img src=images/blank.png width =""500"" height = ""500"" style=""border:5px solid black"">","","",""
"","677.9999999562278","stimulus-presentation","145","383075","0.0-17.0-1.15","SS1604513671340","<img src='images/complex/1.png' width ='500' height = '500' style='border:5px solid black'>","40","all_complex","images/complex/13.png","images/complex/1.png","images/complex/11.png,images/complex/4.png,images/complex/5.png,images/complex/15.png,images/complex/7.png,images/complex/18.png,images/complex/14.png","1","null","","200","877.9999999562278","","","","background","",""
"","null","html-keyboard-response","146","384317","0.0-17.0-0.16","SS1604513671340","","null","","","","","","","","","","","","<img src=images/blank.png width =""500"" height = ""500"" style=""border:5px solid black"">","","",""
"","760.0000000093132","stimulus-presentation","147","385284","0.0-17.0-1.16","SS1604513671340","<img src='images/complex/1.png' width ='500' height = '500' style='border:5px solid black'>","40","all_complex","images/complex/13.png","images/complex/1.png","images/complex/11.png,images/complex/4.png,images/complex/5.png,images/complex/15.png,images/complex/7.png,images/complex/18.png,images/complex/14.png","1","null","","200","960.0000000093132","","","","background","",""
"","null","html-keyboard-response","148","386473","0.0-17.0-0.17","SS1604513671340","","null","","","","","","","","","","","","<img src=images/blank.png width =""500"" height = ""500"" style=""border:5px solid black"">","","",""
"","602.0000000717118","stimulus-presentation","149","387279","0.0-17.0-1.17","SS1604513671340","<img src='images/complex/1.png' width ='500' height = '500' style='border:5px solid black'>","40","all_complex","images/complex/13.png","images/complex/1.png","images/complex/11.png,images/complex/4.png,images/complex/5.png,images/complex/15.png,images/complex/7.png,images/complex/18.png,images/complex/14.png","1","null","","200","802.0000000717118","","","","background","",""
"","null","html-keyboard-response","150","388457","0.0-17.0-0.18","SS1604513671340","","null","","","","","","","","","","","","<img src=images/blank.png width =""500"" height = ""500"" style=""border:5px solid black"">","","",""
"","1011.9999999878928","stimulus-presentation","151","389688","0.0-17.0-1.18","SS1604513671340","<img src='images/complex/5.png' width ='500' height = '500' style='border:5px solid black'>","40","all_complex","images/complex/13.png","images/complex/1.png","images/complex/11.png,images/complex/4.png,images/complex/5.png,images/complex/15.png,images/complex/7.png,images/complex/18.png,images/complex/14.png","1","null","","200","1211.9999999878928","","","","deviant","",""
"","null","html-keyboard-response","152","390684","0.0-17.0-0.19","SS1604513671340","","null","","","","","","","","","","","","<img src=images/blank.png width =""500"" height = ""500"" style=""border:5px solid black"">","","",""
"","814.0000000130385","stimulus-presentation","153","391709","0.0-17.0-1.19","SS1604513671340","<img src='images/complex/1.png' width ='500' height = '500' style='border:5px solid black'>","40","all_complex","images/complex/13.png","images/complex/1.png","images/complex/11.png,images/complex/4.png,images/complex/5.png,images/complex/15.png,images/complex/7.png,images/complex/18.png,images/complex/14.png","1","null","","200","1014.0000000130385","","","","background","",""
"","null","html-keyboard-response","154","392861","0.0-17.0-0.20","SS1604513671340","","null","","","","","","","","","","","","<img src=images/blank.png width =""500"" height = ""500"" style=""border:5px solid black"">","","",""
"","604.0000000502914","stimulus-presentation","155","393672","0.0-17.0-1.20","SS1604513671340","<img src='images/complex/1.png' width ='500' height = '500' style='border:5px solid black'>","40","all_complex","images/complex/13.png","images/complex/1.png","images/complex/11.png,images/complex/4.png,images/complex/5.png,images/complex/15.png,images/complex/7.png,images/complex/18.png,images/complex/14.png","1","null","","200","804.0000000502914","","","","background","",""
"","null","html-keyboard-response","156","394752","0.0-17.0-0.21","SS1604513671340","","null","","","","","","","","","","","","<img src=images/blank.png width =""500"" height = ""500"" style=""border:5px solid black"">","","",""
"","1506.9999999832362","stimulus-presentation","157","396466","0.0-17.0-1.21","SS1604513671340","<img src='images/complex/13.png' width ='500' height = '500' style='border:5px solid black'>","40","all_complex","images/complex/13.png","images/complex/1.png","images/complex/11.png,images/complex/4.png,images/complex/5.png,images/complex/15.png,images/complex/7.png,images/complex/18.png,images/complex/14.png","1","null","","200","1706.9999999832362","yes","729.9999999813735","","target","",""
"","null","html-keyboard-response","158","397375","0.0-17.0-0.22","SS1604513671340","","null","","","","","","","","","","","","<img src=images/blank.png width =""500"" height = ""500"" style=""border:5px solid black"">","","",""
"","922.0000000204891","stimulus-presentation","159","398503","0.0-17.0-1.22","SS1604513671340","<img src='images/complex/14.png' width ='500' height = '500' style='border:5px solid black'>","40","all_complex","images/complex/13.png","images/complex/1.png","images/complex/11.png,images/complex/4.png,images/complex/5.png,images/complex/15.png,images/complex/7.png,images/complex/18.png,images/complex/14.png","1","null","","200","1122.000000020489","","","","deviant","",""
"","null","html-keyboard-response","160","399333","0.0-17.0-0.23","SS1604513671340","","null","","","","","","","","","","","","<img src=images/blank.png width =""500"" height = ""500"" style=""border:5px solid black"">","","",""
"","680.9999999823049","stimulus-presentation","161","400220","0.0-17.0-1.23","SS1604513671340","<img src='images/complex/1.png' width ='500' height = '500' style='border:5px solid black'>","40","all_complex","images/complex/13.png","images/complex/1.png","images/complex/11.png,images/complex/4.png,images/complex/5.png,images/complex/15.png,images/complex/7.png,images/complex/18.png,images/complex/14.png","1","null","","200","880.9999999823049","","","","background","",""
"","null","html-keyboard-response","162","401258","0.0-17.0-0.24","SS1604513671340","","null","","","","","","","","","","","","<img src=images/blank.png width =""500"" height = ""500"" style=""border:5px solid black"">","","",""
"","646.999999997206","stimulus-presentation","163","402110","0.0-17.0-1.24","SS1604513671340","<img src='images/complex/1.png' width ='500' height = '500' style='border:5px solid black'>","40","all_complex","images/complex/13.png","images/complex/1.png","images/complex/11.png,images/complex/4.png,images/complex/5.png,images/complex/15.png,images/complex/7.png,images/complex/18.png,images/complex/14.png","1","null","","200","846.999999997206","","","","background","",""
"","null","html-keyboard-response","164","402954","0.0-17.0-0.25","SS1604513671340","","null","","","","","","","","","","","","<img src=images/blank.png width =""500"" height = ""500"" style=""border:5px solid black"">","","",""
"","653.9999999804422","stimulus-presentation","165","403815","0.0-17.0-1.25","SS1604513671340","<img src='images/complex/1.png' width ='500' height = '500' style='border:5px solid black'>","40","all_complex","images/complex/13.png","images/complex/1.png","images/complex/11.png,images/complex/4.png,images/complex/5.png,images/complex/15.png,images/complex/7.png,images/complex/18.png,images/complex/14.png","1","null","","200","853.9999999804422","","","","background","",""
"","null","html-keyboard-response","166","404935","0.0-17.0-0.26","SS1604513671340","","null","","","","","","","","","","","","<img src=images/blank.png width =""500"" height = ""500"" style=""border:5px solid black"">","","",""
"","576.0000000009313","stimulus-presentation","167","405718","0.0-17.0-1.26","SS1604513671340","<img src='images/complex/7.png' width ='500' height = '500' style='border:5px solid black'>","40","all_complex","images/complex/13.png","images/complex/1.png","images/complex/11.png,images/complex/4.png,images/complex/5.png,images/complex/15.png,images/complex/7.png,images/complex/18.png,images/complex/14.png","1","null","","200","776.0000000009313","","","","deviant","",""
"","null","html-keyboard-response","168","406769","0.0-17.0-0.27","SS1604513671340","","null","","","","","","","","","","","","<img src=images/blank.png width =""500"" height = ""500"" style=""border:5px solid black"">","","",""
"","659.999999916181","stimulus-presentation","169","407636","0.0-17.0-1.27","SS1604513671340","<img src='images/complex/1.png' width ='500' height = '500' style='border:5px solid black'>","40","all_complex","images/complex/13.png","images/complex/1.png","images/complex/11.png,images/complex/4.png,images/complex/5.png,images/complex/15.png,images/complex/7.png,images/complex/18.png,images/complex/14.png","1","null","","200","859.999999916181","","","","background","",""
"","null","html-keyboard-response","170","408513","0.0-17.0-0.28","SS1604513671340","","null","","","","","","","","","","","","<img src=images/blank.png width =""500"" height = ""500"" style=""border:5px solid black"">","","",""
"","567.9999999701977","stimulus-presentation","171","409287","0.0-17.0-1.28","SS1604513671340","<img src='images/complex/1.png' width ='500' height = '500' style='border:5px solid black'>","40","all_complex","images/complex/13.png","images/complex/1.png","images/complex/11.png,images/complex/4.png,images/complex/5.png,images/complex/15.png,images/complex/7.png,images/complex/18.png,images/complex/14.png","1","null","","200","767.9999999701977","","","","background","",""
"","null","html-keyboard-response","172","410366","0.0-17.0-0.29","SS1604513671340","","null","","","","","","","","","","","","<img src=images/blank.png width =""500"" height = ""500"" style=""border:5px solid black"">","","",""
"","585.0000000791624","stimulus-presentation","173","411158","0.0-17.0-1.29","SS1604513671340","<img src='images/complex/1.png' width ='500' height = '500' style='border:5px solid black'>","40","all_complex","images/complex/13.png","images/complex/1.png","images/complex/11.png,images/complex/4.png,images/complex/5.png,images/complex/15.png,images/complex/7.png,images/complex/18.png,images/complex/14.png","1","null","","200","785.0000000791624","","","","background","",""
"","null","html-keyboard-response","174","412409","0.0-17.0-0.30","SS1604513671340","","null","","","","","","","","","","","","<img src=images/blank.png width =""500"" height = ""500"" style=""border:5px solid black"">","","",""
"","577.9999999795109","stimulus-presentation","175","413194","0.0-17.0-1.30","SS1604513671340","<img src='images/complex/1.png' width ='500' height = '500' style='border:5px solid black'>","40","all_complex","images/complex/13.png","images/complex/1.png","images/complex/11.png,images/complex/4.png,images/complex/5.png,images/complex/15.png,images/complex/7.png,images/complex/18.png,images/complex/14.png","1","null","","200","777.9999999795109","","","","background","",""
"","null","html-keyboard-response","176","414445","0.0-17.0-0.31","SS1604513671340","","null","","","","","","","","","","","","<img src=images/blank.png width =""500"" height = ""500"" style=""border:5px solid black"">","","",""
"","1185.0000000558794","stimulus-presentation","177","415838","0.0-17.0-1.31","SS1604513671340","<img src='images/complex/1.png' width ='500' height = '500' style='border:5px solid black'>","40","all_complex","images/complex/13.png","images/complex/1.png","images/complex/11.png,images/complex/4.png,images/complex/5.png,images/complex/15.png,images/complex/7.png,images/complex/18.png,images/complex/14.png","1","null","","200","1385.0000000558794","","","","background","",""
"","null","html-keyboard-response","178","416823","0.0-17.0-0.32","SS1604513671340","","null","","","","","","","","","","","","<img src=images/blank.png width =""500"" height = ""500"" style=""border:5px solid black"">","","",""
"","675.9999999776483","stimulus-presentation","179","417706","0.0-17.0-1.32","SS1604513671340","<img src='images/complex/1.png' width ='500' height = '500' style='border:5px solid black'>","40","all_complex","images/complex/13.png","images/complex/1.png","images/complex/11.png,images/complex/4.png,images/complex/5.png,images/complex/15.png,images/complex/7.png,images/complex/18.png,images/complex/14.png","1","null","","200","875.9999999776483","","","","background","",""
"","null","html-keyboard-response","180","418732","0.0-17.0-0.33","SS1604513671340","","null","","","","","","","","","","","","<img src=images/blank.png width =""500"" height = ""500"" style=""border:5px solid black"">","","",""
"","1163.9999999897555","stimulus-presentation","181","420101","0.0-17.0-1.33","SS1604513671340","<img src='images/complex/18.png' width ='500' height = '500' style='border:5px solid black'>","40","all_complex","images/complex/13.png","images/complex/1.png","images/complex/11.png,images/complex/4.png,images/complex/5.png,images/complex/15.png,images/complex/7.png,images/complex/18.png,images/complex/14.png","1","null","","200","1363.9999999897555","","","","deviant","",""
"","null","html-keyboard-response","182","421303","0.0-17.0-0.34","SS1604513671340","","null","","","","","","","","","","","","<img src=images/blank.png width =""500"" height = ""500"" style=""border:5px solid black"">","","",""
"","638.0000000353903","stimulus-presentation","183","422148","0.0-17.0-1.34","SS1604513671340","<img src='images/complex/1.png' width ='500' height = '500' style='border:5px solid black'>","40","all_complex","images/complex/13.png","images/complex/1.png","images/complex/11.png,images/complex/4.png,images/complex/5.png,images/complex/15.png,images/complex/7.png,images/complex/18.png,images/complex/14.png","1","null","","200","838.0000000353903","","","","background","",""
"","null","html-keyboard-response","184","423276","0.0-17.0-0.35","SS1604513671340","","null","","","","","","","","","","","","<img src=images/blank.png width =""500"" height = ""500"" style=""border:5px solid black"">","","",""
"","822.0000000437722","stimulus-presentation","185","424306","0.0-17.0-1.35","SS1604513671340","<img src='images/complex/1.png' width ='500' height = '500' style='border:5px solid black'>","40","all_complex","images/complex/13.png","images/complex/1.png","images/complex/11.png,images/complex/4.png,images/complex/5.png,images/complex/15.png,images/complex/7.png,images/complex/18.png,images/complex/14.png","1","null","","200","1022.0000000437722","","","","background","",""
"","null","html-keyboard-response","186","425152","0.0-17.0-0.36","SS1604513671340","","null","","","","","","","","","","","","<img src=images/blank.png width =""500"" height = ""500"" style=""border:5px solid black"">","","",""
"","792.9999999469146","stimulus-presentation","187","426154","0.0-17.0-1.36","SS1604513671340","<img src='images/complex/1.png' width ='500' height = '500' style='border:5px solid black'>","40","all_complex","images/complex/13.png","images/complex/1.png","images/complex/11.png,images/complex/4.png,images/complex/5.png,images/complex/15.png,images/complex/7.png,images/complex/18.png,images/complex/14.png","1","null","","200","992.9999999469146","","","","background","",""
"","null","html-keyboard-response","188","427083","0.0-17.0-0.37","SS1604513671340","","null","","","","","","","","","","","","<img src=images/blank.png width =""500"" height = ""500"" style=""border:5px solid black"">","","",""
"","651.0000000707805","stimulus-presentation","189","427943","0.0-17.0-1.37","SS1604513671340","<img src='images/complex/1.png' width ='500' height = '500' style='border:5px solid black'>","40","all_complex","images/complex/13.png","images/complex/1.png","images/complex/11.png,images/complex/4.png,images/complex/5.png,images/complex/15.png,images/complex/7.png,images/complex/18.png,images/complex/14.png","1","null","","200","851.0000000707805","","","","background","",""
"","null","html-keyboard-response","190","428911","0.0-17.0-0.38","SS1604513671340","","null","","","","","","","","","","","","<img src=images/blank.png width =""500"" height = ""500"" style=""border:5px solid black"">","","",""
"","608.0000000074506","stimulus-presentation","191","429727","0.0-17.0-1.38","SS1604513671340","<img src='images/complex/1.png' width ='500' height = '500' style='border:5px solid black'>","40","all_complex","images/complex/13.png","images/complex/1.png","images/complex/11.png,images/complex/4.png,images/complex/5.png,images/complex/15.png,images/complex/7.png,images/complex/18.png,images/complex/14.png","1","null","","200","808.0000000074506","","","","background","",""
"","null","html-keyboard-response","192","430939","0.0-17.0-0.39","SS1604513671340","","null","","","","","","","","","","","","<img src=images/blank.png width =""500"" height = ""500"" style=""border:5px solid black"">","","",""
"","630.0000000046566","stimulus-presentation","193","431777","0.0-17.0-1.39","SS1604513671340","<img src='images/complex/11.png' width ='500' height = '500' style='border:5px solid black'>","40","all_complex","images/complex/13.png","images/complex/1.png","images/complex/11.png,images/complex/4.png,images/complex/5.png,images/complex/15.png,images/complex/7.png,images/complex/18.png,images/complex/14.png","1","null","","200","830.0000000046566","","","","deviant","",""
"","null","html-keyboard-response","194","432955","0.0-17.0-0.40","SS1604513671340","","null","","","","","","","","","","","","<img src=images/blank.png width =""500"" height = ""500"" style=""border:5px solid black"">","","",""
"","547.9999999515712","stimulus-presentation","195","433711","0.0-17.0-1.40","SS1604513671340","<img src='images/complex/1.png' width ='500' height = '500' style='border:5px solid black'>","40","all_complex","images/complex/13.png","images/complex/1.png","images/complex/11.png,images/complex/4.png,images/complex/5.png,images/complex/15.png,images/complex/7.png,images/complex/18.png,images/complex/14.png","1","null","","200","747.9999999515712","","","","background","",""
"","null","html-keyboard-response","196","434558","0.0-17.0-0.41","SS1604513671340","","null","","","","","","","","","","","","<img src=images/blank.png width =""500"" height = ""500"" style=""border:5px solid black"">","","",""
"","572.0000000437722","stimulus-presentation","197","435339","0.0-17.0-1.41","SS1604513671340","<img src='images/complex/1.png' width ='500' height = '500' style='border:5px solid black'>","40","all_complex","images/complex/13.png","images/complex/1.png","images/complex/11.png,images/complex/4.png,images/complex/5.png,images/complex/15.png,images/complex/7.png,images/complex/18.png,images/complex/14.png","1","null","","200","772.0000000437722","","","","background","",""
"","null","html-keyboard-response","198","436480","0.0-17.0-0.42","SS1604513671340","","null","","","","","","","","","","","","<img src=images/blank.png width =""500"" height = ""500"" style=""border:5px solid black"">","","",""
"","1542.9999999469146","stimulus-presentation","199","438233","0.0-17.0-1.42","SS1604513671340","<img src='images/complex/13.png' width ='500' height = '500' style='border:5px solid black'>","40","all_complex","images/complex/13.png","images/complex/1.png","images/complex/11.png,images/complex/4.png,images/complex/5.png,images/complex/15.png,images/complex/7.png,images/complex/18.png,images/complex/14.png","1","null","","200","1742.9999999469146","yes","777.9999999329448","","target","",""
"","null","html-keyboard-response","200","439309","0.0-17.0-0.43","SS1604513671340","","null","","","","","","","","","","","","<img src=images/blank.png width =""500"" height = ""500"" style=""border:5px solid black"">","","",""
"","606.000000028871","stimulus-presentation","201","440122","0.0-17.0-1.43","SS1604513671340","<img src='images/complex/1.png' width ='500' height = '500' style='border:5px solid black'>","40","all_complex","images/complex/13.png","images/complex/1.png","images/complex/11.png,images/complex/4.png,images/complex/5.png,images/complex/15.png,images/complex/7.png,images/complex/18.png,images/complex/14.png","1","null","","200","806.000000028871","","","","background","",""
"","null","html-keyboard-response","202","440950","0.0-17.0-0.44","SS1604513671340","","null","","","","","","","","","","","","<img src=images/blank.png width =""500"" height = ""500"" style=""border:5px solid black"">","","",""
"","570.9999999962747","stimulus-presentation","203","441731","0.0-17.0-1.44","SS1604513671340","<img src='images/complex/1.png' width ='500' height = '500' style='border:5px solid black'>","40","all_complex","images/complex/13.png","images/complex/1.png","images/complex/11.png,images/complex/4.png,images/complex/5.png,images/complex/15.png,images/complex/7.png,images/complex/18.png,images/complex/14.png","1","null","","200","770.9999999962747","","","","background","",""
"","null","html-keyboard-response","204","442544","0.0-17.0-0.45","SS1604513671340","","null","","","","","","","","","","","","<img src=images/blank.png width =""500"" height = ""500"" style=""border:5px solid black"">","","",""
"","593.9999999245629","stimulus-presentation","205","443346","0.0-17.0-1.45","SS1604513671340","<img src='images/complex/1.png' width ='500' height = '500' style='border:5px solid black'>","40","all_complex","images/complex/13.png","images/complex/1.png","images/complex/11.png,images/complex/4.png,images/complex/5.png,images/complex/15.png,images/complex/7.png,images/complex/18.png,images/complex/14.png","1","null","","200","793.9999999245629","","","","background","",""
"","null","html-keyboard-response","206","444626","0.0-17.0-0.46","SS1604513671340","","null","","","","","","","","","","","","<img src=images/blank.png width =""500"" height = ""500"" style=""border:5px solid black"">","","",""
"","1619.0000000642613","stimulus-presentation","207","446453","0.0-17.0-1.46","SS1604513671340","<img src='images/complex/13.png' width ='500' height = '500' style='border:5px solid black'>","40","all_complex","images/complex/13.png","images/complex/1.png","images/complex/11.png,images/complex/4.png,images/complex/5.png,images/complex/15.png,images/complex/7.png,images/complex/18.png,images/complex/14.png","1","null","","200","1819.0000000642613","yes","868.0000000167638","","target","",""
"","null","html-keyboard-response","208","447450","0.0-17.0-0.47","SS1604513671340","","null","","","","","","","","","","","","<img src=images/blank.png width =""500"" height = ""500"" style=""border:5px solid black"">","","",""
"","555.0000000512227","stimulus-presentation","209","448212","0.0-17.0-1.47","SS1604513671340","<img src='images/complex/1.png' width ='500' height = '500' style='border:5px solid black'>","40","all_complex","images/complex/13.png","images/complex/1.png","images/complex/11.png,images/complex/4.png,images/complex/5.png,images/complex/15.png,images/complex/7.png,images/complex/18.png,images/complex/14.png","1","null","","200","755.0000000512227","","","","background","",""
"","null","html-keyboard-response","210","449456","0.0-17.0-0.48","SS1604513671340","","null","","","","","","","","","","","","<img src=images/blank.png width =""500"" height = ""500"" style=""border:5px solid black"">","","",""
"","695.9999999962747","stimulus-presentation","211","450360","0.0-17.0-1.48","SS1604513671340","<img src='images/complex/1.png' width ='500' height = '500' style='border:5px solid black'>","40","all_complex","images/complex/13.png","images/complex/1.png","images/complex/11.png,images/complex/4.png,images/complex/5.png,images/complex/15.png,images/complex/7.png,images/complex/18.png,images/complex/14.png","1","null","","200","895.9999999962747","","","","background","",""
"[{""page_index"":0,""viewing_time"":3853}]","3854","task-instructions","212","454220","0.0-18.0","SS1604513671340","","","","","","","","","","","","","","","","",""
"[{""page_index"":0,""viewing_time"":1841.0000000149012},{""page_index"":1,""viewing_time"":3522.999999928288},{""page_index"":2,""viewing_time"":1822.9999999748543}]","7187.999999965541","instructions","213","461414","0.0-19.0","SS1604513671340","","","","","","","","","","","","","","","","",""
"","null","html-keyboard-response","214","462699","0.0-20.0-0.0","SS1604513671340","","null","","","","","","","","","","","","<img src=images/blank.png width =""500"" height = ""500"" style=""border:5px solid black"">","","",""
"","2530.0000000279397","stimulus-presentation","215","465437","0.0-20.0-1.0","SS1604513671340","<img src='images/complex/6.png' width ='500' height = '500' style='border:5px solid black'>","40","mixed_simple_deviant","images/complex/10.png","images/complex/6.png","images/simple/5.png,images/simple/6.png,images/simple/18.png,images/simple/11.png,images/simple/8.png,images/simple/7.png,images/simple/3.png","2","null","","200","2730.0000000279397","","","","background","",""
"","null","html-keyboard-response","216","466325","0.0-20.0-0.1","SS1604513671340","","null","","","","","","","","","","","","<img src=images/blank.png width =""500"" height = ""500"" style=""border:5px solid black"">","","",""
"","597.9999999981374","stimulus-presentation","217","467130","0.0-20.0-1.1","SS1604513671340","<img src='images/complex/6.png' width ='500' height = '500' style='border:5px solid black'>","40","mixed_simple_deviant","images/complex/10.png","images/complex/6.png","images/simple/5.png,images/simple/6.png,images/simple/18.png,images/simple/11.png,images/simple/8.png,images/simple/7.png,images/simple/3.png","2","null","","200","797.9999999981374","","","","background","",""
"","null","html-keyboard-response","218","468216","0.0-20.0-0.2","SS1604513671340","","null","","","","","","","","","","","","<img src=images/blank.png width =""500"" height = ""500"" style=""border:5px solid black"">","","",""
"","727.0000000717118","stimulus-presentation","219","469151","0.0-20.0-1.2","SS1604513671340","<img src='images/simple/5.png' width ='500' height = '500' style='border:5px solid black'>","40","mixed_simple_deviant","images/complex/10.png","images/complex/6.png","images/simple/5.png,images/simple/6.png,images/simple/18.png,images/simple/11.png,images/simple/8.png,images/simple/7.png,images/simple/3.png","2","null","","200","927.0000000717118","","","","deviant","",""
"","null","html-keyboard-response","220","470199","0.0-20.0-0.3","SS1604513671340","","null","","","","","","","","","","","","<img src=images/blank.png width =""500"" height = ""500"" style=""border:5px solid black"">","","",""
"","691.9999999227002","stimulus-presentation","221","471097","0.0-20.0-1.3","SS1604513671340","<img src='images/complex/6.png' width ='500' height = '500' style='border:5px solid black'>","40","mixed_simple_deviant","images/complex/10.png","images/complex/6.png","images/simple/5.png,images/simple/6.png,images/simple/18.png,images/simple/11.png,images/simple/8.png,images/simple/7.png,images/simple/3.png","2","null","","200","891.9999999227002","","","","background","",""
"","null","html-keyboard-response","222","472284","0.0-20.0-0.4","SS1604513671340","","null","","","","","","","","","","","","<img src=images/blank.png width =""500"" height = ""500"" style=""border:5px solid black"">","","",""
"","599.9999999767169","stimulus-presentation","223","473092","0.0-20.0-1.4","SS1604513671340","<img src='images/complex/6.png' width ='500' height = '500' style='border:5px solid black'>","40","mixed_simple_deviant","images/complex/10.png","images/complex/6.png","images/simple/5.png,images/simple/6.png,images/simple/18.png,images/simple/11.png,images/simple/8.png,images/simple/7.png,images/simple/3.png","2","null","","200","799.9999999767169","","","","background","",""
"","null","html-keyboard-response","224","474290","0.0-20.0-0.5","SS1604513671340","","null","","","","","","","","","","","","<img src=images/blank.png width =""500"" height = ""500"" style=""border:5px solid black"">","","",""
"","653.9999999804422","stimulus-presentation","225","475151","0.0-20.0-1.5","SS1604513671340","<img src='images/complex/6.png' width ='500' height = '500' style='border:5px solid black'>","40","mixed_simple_deviant","images/complex/10.png","images/complex/6.png","images/simple/5.png,images/simple/6.png,images/simple/18.png,images/simple/11.png,images/simple/8.png,images/simple/7.png,images/simple/3.png","2","null","","200","853.9999999804422","","","","background","",""
"","null","html-keyboard-response","226","476127","0.0-20.0-0.6","SS1604513671340","","null","","","","","","","","","","","","<img src=images/blank.png width =""500"" height = ""500"" style=""border:5px solid black"">","","",""
"","815.9999999916181","stimulus-presentation","227","477151","0.0-20.0-1.6","SS1604513671340","<img src='images/simple/6.png' width ='500' height = '500' style='border:5px solid black'>","40","mixed_simple_deviant","images/complex/10.png","images/complex/6.png","images/simple/5.png,images/simple/6.png,images/simple/18.png,images/simple/11.png,images/simple/8.png,images/simple/7.png,images/simple/3.png","2","null","","200","1015.9999999916181","","","","deviant","",""
"","null","html-keyboard-response","228","478133","0.0-20.0-0.7","SS1604513671340","","null","","","","","","","","","","","","<img src=images/blank.png width =""500"" height = ""500"" style=""border:5px solid black"">","","",""
"","626.0000000474975","stimulus-presentation","229","478967","0.0-20.0-1.7","SS1604513671340","<img src='images/complex/6.png' width ='500' height = '500' style='border:5px solid black'>","40","mixed_simple_deviant","images/complex/10.png","images/complex/6.png","images/simple/5.png,images/simple/6.png,images/simple/18.png,images/simple/11.png,images/simple/8.png,images/simple/7.png,images/simple/3.png","2","null","","200","826.0000000474975","","","","background","",""
"","null","html-keyboard-response","230","480162","0.0-20.0-0.8","SS1604513671340","","null","","","","","","","","","","","","<img src=images/blank.png width =""500"" height = ""500"" style=""border:5px solid black"">","","",""
"","643.0000000400469","stimulus-presentation","231","481013","0.0-20.0-1.8","SS1604513671340","<img src='images/complex/6.png' width ='500' height = '500' style='border:5px solid black'>","40","mixed_simple_deviant","images/complex/10.png","images/complex/6.png","images/simple/5.png,images/simple/6.png,images/simple/18.png,images/simple/11.png,images/simple/8.png,images/simple/7.png,images/simple/3.png","2","null","","200","843.0000000400469","","","","background","",""
"","null","html-keyboard-response","232","481976","0.0-20.0-0.9","SS1604513671340","","null","","","","","","","","","","","","<img src=images/blank.png width =""500"" height = ""500"" style=""border:5px solid black"">","","",""
"","670.0000000419095","stimulus-presentation","233","482857","0.0-20.0-1.9","SS1604513671340","<img src='images/simple/3.png' width ='500' height = '500' style='border:5px solid black'>","40","mixed_simple_deviant","images/complex/10.png","images/complex/6.png","images/simple/5.png,images/simple/6.png,images/simple/18.png,images/simple/11.png,images/simple/8.png,images/simple/7.png,images/simple/3.png","2","null","","200","870.0000000419095","","","","deviant","",""
"","null","html-keyboard-response","234","484050","0.0-20.0-0.10","SS1604513671340","","null","","","","","","","","","","","","<img src=images/blank.png width =""500"" height = ""500"" style=""border:5px solid black"">","","",""
"","643.999999971129","stimulus-presentation","235","484901","0.0-20.0-1.10","SS1604513671340","<img src='images/complex/6.png' width ='500' height = '500' style='border:5px solid black'>","40","mixed_simple_deviant","images/complex/10.png","images/complex/6.png","images/simple/5.png,images/simple/6.png,images/simple/18.png,images/simple/11.png,images/simple/8.png,images/simple/7.png,images/simple/3.png","2","null","","200","843.999999971129","","","","background","",""
"","null","html-keyboard-response","236","485841","0.0-20.0-0.11","SS1604513671340","","null","","","","","","","","","","","","<img src=images/blank.png width =""500"" height = ""500"" style=""border:5px solid black"">","","",""
"","626.9999999785796","stimulus-presentation","237","486678","0.0-20.0-1.11","SS1604513671340","<img src='images/complex/6.png' width ='500' height = '500' style='border:5px solid black'>","40","mixed_simple_deviant","images/complex/10.png","images/complex/6.png","images/simple/5.png,images/simple/6.png,images/simple/18.png,images/simple/11.png,images/simple/8.png,images/simple/7.png,images/simple/3.png","2","null","","200","826.9999999785796","","","","background","",""
"","null","html-keyboard-response","238","487906","0.0-20.0-0.12","SS1604513671340","","null","","","","","","","","","","","","<img src=images/blank.png width =""500"" height = ""500"" style=""border:5px solid black"">","","",""
"","592.9999999934807","stimulus-presentation","239","488707","0.0-20.0-1.12","SS1604513671340","<img src='images/complex/6.png' width ='500' height = '500' style='border:5px solid black'>","40","mixed_simple_deviant","images/complex/10.png","images/complex/6.png","images/simple/5.png,images/simple/6.png,images/simple/18.png,images/simple/11.png,images/simple/8.png,images/simple/7.png,images/simple/3.png","2","null","","200","792.9999999934807","","","","background","",""
"","null","html-keyboard-response","240","489588","0.0-20.0-0.13","SS1604513671340","","null","","","","","","","","","","","","<img src=images/blank.png width =""500"" height = ""500"" style=""border:5px solid black"">","","",""
"","590.9999998984858","stimulus-presentation","241","490386","0.0-20.0-1.13","SS1604513671340","<img src='images/complex/6.png' width ='500' height = '500' style='border:5px solid black'>","40","mixed_simple_deviant","images/complex/10.png","images/complex/6.png","images/simple/5.png,images/simple/6.png,images/simple/18.png,images/simple/11.png,images/simple/8.png,images/simple/7.png,images/simple/3.png","2","null","","200","790.9999998984858","","","","background","",""
"","null","html-keyboard-response","242","491522","0.0-20.0-0.14","SS1604513671340","","null","","","","","","","","","","","","<img src=images/blank.png width =""500"" height = ""500"" style=""border:5px solid black"">","","",""
"","2165.999999968335","stimulus-presentation","243","493897","0.0-20.0-1.14","SS1604513671340","<img src='images/complex/10.png' width ='500' height = '500' style='border:5px solid black'>","40","mixed_simple_deviant","images/complex/10.png","images/complex/6.png","images/simple/5.png,images/simple/6.png,images/simple/18.png,images/simple/11.png,images/simple/8.png,images/simple/7.png,images/simple/3.png","2","null","","200","2365.999999968335","yes","1029.9999999115244","","target","",""
"","null","html-keyboard-response","244","494718","0.0-20.0-0.15","SS1604513671340","","null","","","","","","","","","","","","<img src=images/blank.png width =""500"" height = ""500"" style=""border:5px solid black"">","","",""
"","1011.9999999878928","stimulus-presentation","245","495938","0.0-20.0-1.15","SS1604513671340","<img src='images/complex/6.png' width ='500' height = '500' style='border:5px solid black'>","40","mixed_simple_deviant","images/complex/10.png","images/complex/6.png","images/simple/5.png,images/simple/6.png,images/simple/18.png,images/simple/11.png,images/simple/8.png,images/simple/7.png,images/simple/3.png","2","null","","200","1211.9999999878928","","","","background","",""
"","null","html-keyboard-response","246","497011","0.0-20.0-0.16","SS1604513671340","","null","","","","","","","","","","","","<img src=images/blank.png width =""500"" height = ""500"" style=""border:5px solid black"">","","",""
"","663.0000000586733","stimulus-presentation","247","497883","0.0-20.0-1.16","SS1604513671340","<img src='images/complex/6.png' width ='500' height = '500' style='border:5px solid black'>","40","mixed_simple_deviant","images/complex/10.png","images/complex/6.png","images/simple/5.png,images/simple/6.png,images/simple/18.png,images/simple/11.png,images/simple/8.png,images/simple/7.png,images/simple/3.png","2","null","","200","863.0000000586733","","","","background","",""
"","null","html-keyboard-response","248","499013","0.0-20.0-0.17","SS1604513671340","","null","","","","","","","","","","","","<img src=images/blank.png width =""500"" height = ""500"" style=""border:5px solid black"">","","",""
"","1694.0000000176951","stimulus-presentation","249","500913","0.0-20.0-1.17","SS1604513671340","<img src='images/complex/10.png' width ='500' height = '500' style='border:5px solid black'>","40","mixed_simple_deviant","images/complex/10.png","images/complex/6.png","images/simple/5.png,images/simple/6.png,images/simple/18.png,images/simple/11.png,images/simple/8.png,images/simple/7.png,images/simple/3.png","2","null","","200","1894.0000000176951","yes","915.999999968335","","target","",""
"","null","html-keyboard-response","250","502055","0.0-20.0-0.18","SS1604513671340","","null","","","","","","","","","","","","<img src=images/blank.png width =""500"" height = ""500"" style=""border:5px solid black"">","","",""
"","4239.000000059605","stimulus-presentation","251","506501","0.0-20.0-1.18","SS1604513671340","<img src='images/complex/6.png' width ='500' height = '500' style='border:5px solid black'>","40","mixed_simple_deviant","images/complex/10.png","images/complex/6.png","images/simple/5.png,images/simple/6.png,images/simple/18.png,images/simple/11.png,images/simple/8.png,images/simple/7.png,images/simple/3.png","2","null","","200","4439.000000059605","","","","background","",""
"","null","html-keyboard-response","252","507681","0.0-20.0-0.19","SS1604513671340","","null","","","","","","","","","","","","<img src=images/blank.png width =""500"" height = ""500"" style=""border:5px solid black"">","","",""
"","595.9999999031425","stimulus-presentation","253","508489","0.0-20.0-1.19","SS1604513671340","<img src='images/complex/6.png' width ='500' height = '500' style='border:5px solid black'>","40","mixed_simple_deviant","images/complex/10.png","images/complex/6.png","images/simple/5.png,images/simple/6.png,images/simple/18.png,images/simple/11.png,images/simple/8.png,images/simple/7.png,images/simple/3.png","2","null","","200","795.9999999031425","","","","background","",""
"","null","html-keyboard-response","254","509663","0.0-20.0-0.20","SS1604513671340","","null","","","","","","","","","","","","<img src=images/blank.png width =""500"" height = ""500"" style=""border:5px solid black"">","","",""
"","674.9999999301508","stimulus-presentation","255","510547","0.0-20.0-1.20","SS1604513671340","<img src='images/complex/6.png' width ='500' height = '500' style='border:5px solid black'>","40","mixed_simple_deviant","images/complex/10.png","images/complex/6.png","images/simple/5.png,images/simple/6.png,images/simple/18.png,images/simple/11.png,images/simple/8.png,images/simple/7.png,images/simple/3.png","2","null","","200","874.9999999301508","","","","background","",""
"","null","html-keyboard-response","256","511708","0.0-20.0-0.21","SS1604513671340","","null","","","","","","","","","","","","<img src=images/blank.png width =""500"" height = ""500"" style=""border:5px solid black"">","","",""
"","788.0000000586733","stimulus-presentation","257","512704","0.0-20.0-1.21","SS1604513671340","<img src='images/simple/11.png' width ='500' height = '500' style='border:5px solid black'>","40","mixed_simple_deviant","images/complex/10.png","images/complex/6.png","images/simple/5.png,images/simple/6.png,images/simple/18.png,images/simple/11.png,images/simple/8.png,images/simple/7.png,images/simple/3.png","2","null","","200","988.0000000586733","","","","deviant","",""
"","null","html-keyboard-response","258","513692","0.0-20.0-0.22","SS1604513671340","","null","","","","","","","","","","","","<img src=images/blank.png width =""500"" height = ""500"" style=""border:5px solid black"">","","",""
"","589.9999999674037","stimulus-presentation","259","514493","0.0-20.0-1.22","SS1604513671340","<img src='images/complex/6.png' width ='500' height = '500' style='border:5px solid black'>","40","mixed_simple_deviant","images/complex/10.png","images/complex/6.png","images/simple/5.png,images/simple/6.png,images/simple/18.png,images/simple/11.png,images/simple/8.png,images/simple/7.png,images/simple/3.png","2","null","","200","789.9999999674037","","","","background","",""
"","null","html-keyboard-response","260","515332","0.0-20.0-0.23","SS1604513671340","","null","","","","","","","","","","","","<img src=images/blank.png width =""500"" height = ""500"" style=""border:5px solid black"">","","",""
"","743.0000000167638","stimulus-presentation","261","516283","0.0-20.0-1.23","SS1604513671340","<img src='images/complex/6.png' width ='500' height = '500' style='border:5px solid black'>","40","mixed_simple_deviant","images/complex/10.png","images/complex/6.png","images/simple/5.png,images/simple/6.png,images/simple/18.png,images/simple/11.png,images/simple/8.png,images/simple/7.png,images/simple/3.png","2","null","","200","943.0000000167638","","","","background","",""
"","null","html-keyboard-response","262","517177","0.0-20.0-0.24","SS1604513671340","","null","","","","","","","","","","","","<img src=images/blank.png width =""500"" height = ""500"" style=""border:5px solid black"">","","",""
"","1123.0000000214204","stimulus-presentation","263","518508","0.0-20.0-1.24","SS1604513671340","<img src='images/simple/7.png' width ='500' height = '500' style='border:5px solid black'>","40","mixed_simple_deviant","images/complex/10.png","images/complex/6.png","images/simple/5.png,images/simple/6.png,images/simple/18.png,images/simple/11.png,images/simple/8.png,images/simple/7.png,images/simple/3.png","2","null","","200","1323.0000000214204","","","","deviant","",""
"","null","html-keyboard-response","264","519535","0.0-20.0-0.25","SS1604513671340","","null","","","","","","","","","","","","<img src=images/blank.png width =""500"" height = ""500"" style=""border:5px solid black"">","","",""
"","709.000000031665","stimulus-presentation","265","520452","0.0-20.0-1.25","SS1604513671340","<img src='images/complex/6.png' width ='500' height = '500' style='border:5px solid black'>","40","mixed_simple_deviant","images/complex/10.png","images/complex/6.png","images/simple/5.png,images/simple/6.png,images/simple/18.png,images/simple/11.png,images/simple/8.png,images/simple/7.png,images/simple/3.png","2","null","","200","909.000000031665","","","","background","",""
"","null","html-keyboard-response","266","521498","0.0-20.0-0.26","SS1604513671340","","null","","","","","","","","","","","","<img src=images/blank.png width =""500"" height = ""500"" style=""border:5px solid black"">","","",""
"","2170.0000000419095","stimulus-presentation","267","523876","0.0-20.0-1.26","SS1604513671340","<img src='images/complex/10.png' width ='500' height = '500' style='border:5px solid black'>","40","mixed_simple_deviant","images/complex/10.png","images/complex/6.png","images/simple/5.png,images/simple/6.png,images/simple/18.png,images/simple/11.png,images/simple/8.png,images/simple/7.png,images/simple/3.png","2","null","","200","2370.0000000419095","yes","957.9999999841675","","target","",""
"","null","html-keyboard-response","268","524686","0.0-20.0-0.27","SS1604513671340","","null","","","","","","","","","","","","<img src=images/blank.png width =""500"" height = ""500"" style=""border:5px solid black"">","","",""
"","2211.0000000102445","stimulus-presentation","269","527108","0.0-20.0-1.27","SS1604513671340","<img src='images/complex/10.png' width ='500' height = '500' style='border:5px solid black'>","40","mixed_simple_deviant","images/complex/10.png","images/complex/6.png","images/simple/5.png,images/simple/6.png,images/simple/18.png,images/simple/11.png,images/simple/8.png,images/simple/7.png,images/simple/3.png","2","null","","200","2411.0000000102445","yes","1084.999999962747","","target","",""
"","null","html-keyboard-response","270","527954","0.0-20.0-0.28","SS1604513671340","","null","","","","","","","","","","","","<img src=images/blank.png width =""500"" height = ""500"" style=""border:5px solid black"">","","",""
"","724.0000000456348","stimulus-presentation","271","528887","0.0-20.0-1.28","SS1604513671340","<img src='images/complex/6.png' width ='500' height = '500' style='border:5px solid black'>","40","mixed_simple_deviant","images/complex/10.png","images/complex/6.png","images/simple/5.png,images/simple/6.png,images/simple/18.png,images/simple/11.png,images/simple/8.png,images/simple/7.png,images/simple/3.png","2","null","","200","924.0000000456348","","","","background","",""
"","null","html-keyboard-response","272","530086","0.0-20.0-0.29","SS1604513671340","","null","","","","","","","","","","","","<img src=images/blank.png width =""500"" height = ""500"" style=""border:5px solid black"">","","",""
"","2378.999999957159","stimulus-presentation","273","532675","0.0-20.0-1.29","SS1604513671340","<img src='images/complex/10.png' width ='500' height = '500' style='border:5px solid black'>","40","mixed_simple_deviant","images/complex/10.png","images/complex/6.png","images/simple/5.png,images/simple/6.png,images/simple/18.png,images/simple/11.png,images/simple/8.png,images/simple/7.png,images/simple/3.png","2","null","","200","2578.999999957159","yes","914.9999999208376","","target","",""
"","null","html-keyboard-response","274","533741","0.0-20.0-0.30","SS1604513671340","","null","","","","","","","","","","","","<img src=images/blank.png width =""500"" height = ""500"" style=""border:5px solid black"">","","",""
"","746.0000000428408","stimulus-presentation","275","534702","0.0-20.0-1.30","SS1604513671340","<img src='images/complex/6.png' width ='500' height = '500' style='border:5px solid black'>","40","mixed_simple_deviant","images/complex/10.png","images/complex/6.png","images/simple/5.png,images/simple/6.png,images/simple/18.png,images/simple/11.png,images/simple/8.png,images/simple/7.png,images/simple/3.png","2","null","","200","946.0000000428408","","","","background","",""
"","null","html-keyboard-response","276","535658","0.0-20.0-0.31","SS1604513671340","","null","","","","","","","","","","","","<img src=images/blank.png width =""500"" height = ""500"" style=""border:5px solid black"">","","",""
"","672.9999999515712","stimulus-presentation","277","536541","0.0-20.0-1.31","SS1604513671340","<img src='images/complex/6.png' width ='500' height = '500' style='border:5px solid black'>","40","mixed_simple_deviant","images/complex/10.png","images/complex/6.png","images/simple/5.png,images/simple/6.png,images/simple/18.png,images/simple/11.png,images/simple/8.png,images/simple/7.png,images/simple/3.png","2","null","","200","872.9999999515712","","","","background","",""
"","null","html-keyboard-response","278","537704","0.0-20.0-0.32","SS1604513671340","","null","","","","","","","","","","","","<img src=images/blank.png width =""500"" height = ""500"" style=""border:5px solid black"">","","",""
"","679.0000000037253","stimulus-presentation","279","538590","0.0-20.0-1.32","SS1604513671340","<img src='images/complex/6.png' width ='500' height = '500' style='border:5px solid black'>","40","mixed_simple_deviant","images/complex/10.png","images/complex/6.png","images/simple/5.png,images/simple/6.png,images/simple/18.png,images/simple/11.png,images/simple/8.png,images/simple/7.png,images/simple/3.png","2","null","","200","879.0000000037253","","","","background","",""
"","null","html-keyboard-response","280","539610","0.0-20.0-0.33","SS1604513671340","","null","","","","","","","","","","","","<img src=images/blank.png width =""500"" height = ""500"" style=""border:5px solid black"">","","",""
"","537.0000000111759","stimulus-presentation","281","540366","0.0-20.0-1.33","SS1604513671340","<img src='images/complex/6.png' width ='500' height = '500' style='border:5px solid black'>","40","mixed_simple_deviant","images/complex/10.png","images/complex/6.png","images/simple/5.png,images/simple/6.png,images/simple/18.png,images/simple/11.png,images/simple/8.png,images/simple/7.png,images/simple/3.png","2","null","","200","737.0000000111759","","","","background","",""
"","null","html-keyboard-response","282","541347","0.0-20.0-0.34","SS1604513671340","","null","","","","","","","","","","","","<img src=images/blank.png width =""500"" height = ""500"" style=""border:5px solid black"">","","",""
