"view_history","rt","trial_type","trial_index","time_elapsed","internal_node_id","subject","trial_stimulus","key_press","task_type","task_target_stimulus","task_background_stimulus","task_deviant_stimuli","task_order_number","block_order_number","trial_order_number","minimum_viewing_duration","trial_looking_time","trial_pressed_space_bar","trial_space_bar_rt","stimulus","trial_stimulus_type","responses","question_order"
"[{""page_index"":0,""viewing_time"":42993.56499999885}]","42994.65500000042","instructions","0","43042","0.0-0.0","SS1604513235224","","","","","","","","","","","","","","","","",""
"[{""page_index"":0,""viewing_time"":9897.62999999948},{""page_index"":1,""viewing_time"":6202.549999999974},{""page_index"":2,""viewing_time"":5189.094999999725},{""page_index"":3,""viewing_time"":7913.20000000087},{""page_index"":4,""viewing_time"":5057.479999999487},{""page_index"":5,""viewing_time"":8816.774999999325},{""page_index"":6,""viewing_time"":1356.4150000001973},{""page_index"":7,""viewing_time"":5622.639999999592},{""page_index"":8,""viewing_time"":1749.5699999999488}]","51806.5149999984","instructions","1","94857","0.0-1.0","SS1604513235224","","","","","","","","","","","","","","","","",""
"[{""page_index"":0,""viewing_time"":1714.1449999999168},{""page_index"":1,""viewing_time"":6049.944999998843},{""page_index"":2,""viewing_time"":1624.3650000014895}]","9389.204999999492","instructions","2","104257","0.0-2.0","SS1604513235224","","","","","","","","","","","","","","","","",""
"","725.5449999993289","practice-block","3","105192","0.0-3.0","SS1604513235224","<img src='images/practice/practice_background.jpeg' width ='500' height = '500' style='border:5px solid black'>","40","null","images/practice/practice_target.jpg","null","null","null","null","","200","925.5449999993289","","","","","",""
"","null","html-keyboard-response","4","106475","0.0-4.0","SS1604513235224","","null","","","","","","","","","","","","<img src=images/blank.png width =""500"" height = ""500"" style=""border:5px solid black"">","","",""
"","658.8950000004843","practice-block","5","107341","0.0-5.0","SS1604513235224","<img src='images/practice/practice_background.jpeg' width ='500' height = '500' style='border:5px solid black'>","40","null","images/practice/practice_target.jpg","null","null","null","null","","200","858.8950000004843","","","","","",""
"","null","html-keyboard-response","6","108373","0.0-6.0","SS1604513235224","","null","","","","","","","","","","","","<img src=images/blank.png width =""500"" height = ""500"" style=""border:5px solid black"">","","",""
"","356.4299999998184","practice-block","7","108937","0.0-7.0","SS1604513235224","<img src='images/practice/practice_deviant.jpeg' width ='500' height = '500' style='border:5px solid black'>","40","null","images/practice/practice_target.jpg","null","null","null","null","","200","556.4299999998184","","","","","",""
"","null","html-keyboard-response","8","109827","0.0-8.0","SS1604513235224","","null","","","","","","","","","","","","<img src=images/blank.png width =""500"" height = ""500"" style=""border:5px solid black"">","","",""
"","4241.664999999557","practice-block","9","114275","0.0-9.0-0.0","SS1604513235224","<img src='images/practice/practice_target.jpg' width ='500' height = '500' style='border:5px solid black'>","40","null","images/practice/practice_target.jpg","null","null","null","null","","200","4441.664999999557","yes","505.25999999990745","","","",""
"","null","html-keyboard-response","10","115503","0.0-10.0","SS1604513235224","","null","","","","","","","","","","","","<img src=images/blank.png width =""500"" height = ""500"" style=""border:5px solid black"">","","",""
"","274.7799999997369","practice-block","11","115987","0.0-11.0","SS1604513235224","<img src='images/practice/practice_background.jpeg' width ='500' height = '500' style='border:5px solid black'>","40","null","images/practice/practice_target.jpg","null","null","null","null","","200","474.7799999997369","","","","","",""
"[{""page_index"":0,""viewing_time"":1834}]","1835","task-instructions","12","117826","0.0-12.0","SS1604513235224","","","","","","","","","","","","","","","","",""
"[{""page_index"":0,""viewing_time"":1748.6250000001746},{""page_index"":1,""viewing_time"":4452.660000000833},{""page_index"":2,""viewing_time"":1919.4800000004761}]","8121.820000000298","instructions","13","125953","0.0-13.0","SS1604513235224","","","","","","","","","","","","","","","","",""
"","null","html-keyboard-response","14","126847","0.0-14.0-0.0","SS1604513235224","","null","","","","","","","","","","","","<img src=images/blank.png width =""500"" height = ""500"" style=""border:5px solid black"">","","",""
"","480.34499999994296","stimulus-presentation","15","127538","0.0-14.0-1.0","SS1604513235224","<img src='images/complex/2.png' width ='500' height = '500' style='border:5px solid black'>","40","all_complex","images/complex/3.png","images/complex/1.png","images/complex/13.png,images/complex/8.png,images/complex/9.png,images/complex/18.png,images/complex/15.png,images/complex/2.png,images/complex/5.png","0","null","","200","680.344999999943","","","","deviant","",""
"","null","html-keyboard-response","16","128756","0.0-14.0-0.1","SS1604513235224","","null","","","","","","","","","","","","<img src=images/blank.png width =""500"" height = ""500"" style=""border:5px solid black"">","","",""
"","350.3049999999348","stimulus-presentation","17","129319","0.0-14.0-1.1","SS1604513235224","<img src='images/complex/1.png' width ='500' height = '500' style='border:5px solid black'>","40","all_complex","images/complex/3.png","images/complex/1.png","images/complex/13.png,images/complex/8.png,images/complex/9.png,images/complex/18.png,images/complex/15.png,images/complex/2.png,images/complex/5.png","0","null","","200","550.3049999999348","","","","background","",""
"","null","html-keyboard-response","18","130206","0.0-14.0-0.2","SS1604513235224","","null","","","","","","","","","","","","<img src=images/blank.png width =""500"" height = ""500"" style=""border:5px solid black"">","","",""
"","389.2149999992107","stimulus-presentation","19","130804","0.0-14.0-1.2","SS1604513235224","<img src='images/complex/1.png' width ='500' height = '500' style='border:5px solid black'>","40","all_complex","images/complex/3.png","images/complex/1.png","images/complex/13.png,images/complex/8.png,images/complex/9.png,images/complex/18.png,images/complex/15.png,images/complex/2.png,images/complex/5.png","0","null","","200","589.2149999992107","","","","background","",""
"","null","html-keyboard-response","20","131803","0.0-14.0-0.3","SS1604513235224","","null","","","","","","","","","","","","<img src=images/blank.png width =""500"" height = ""500"" style=""border:5px solid black"">","","",""
"","310.2650000000722","stimulus-presentation","21","132321","0.0-14.0-1.3","SS1604513235224","<img src='images/complex/1.png' width ='500' height = '500' style='border:5px solid black'>","40","all_complex","images/complex/3.png","images/complex/1.png","images/complex/13.png,images/complex/8.png,images/complex/9.png,images/complex/18.png,images/complex/15.png,images/complex/2.png,images/complex/5.png","0","null","","200","510.2650000000722","","","","background","",""
"","null","html-keyboard-response","22","133132","0.0-14.0-0.4","SS1604513235224","","null","","","","","","","","","","","","<img src=images/blank.png width =""500"" height = ""500"" style=""border:5px solid black"">","","",""
"","334.3850000000966","stimulus-presentation","23","133678","0.0-14.0-1.4","SS1604513235224","<img src='images/complex/1.png' width ='500' height = '500' style='border:5px solid black'>","40","all_complex","images/complex/3.png","images/complex/1.png","images/complex/13.png,images/complex/8.png,images/complex/9.png,images/complex/18.png,images/complex/15.png,images/complex/2.png,images/complex/5.png","0","null","","200","534.3850000000966","","","","background","",""
"","null","html-keyboard-response","24","134739","0.0-14.0-0.5","SS1604513235224","","null","","","","","","","","","","","","<img src=images/blank.png width =""500"" height = ""500"" style=""border:5px solid black"">","","",""
"","275.3899999988789","stimulus-presentation","25","135224","0.0-14.0-1.5","SS1604513235224","<img src='images/complex/1.png' width ='500' height = '500' style='border:5px solid black'>","40","all_complex","images/complex/3.png","images/complex/1.png","images/complex/13.png,images/complex/8.png,images/complex/9.png,images/complex/18.png,images/complex/15.png,images/complex/2.png,images/complex/5.png","0","null","","200","475.3899999988789","","","","background","",""
"","null","html-keyboard-response","26","136345","0.0-14.0-0.6","SS1604513235224","","null","","","","","","","","","","","","<img src=images/blank.png width =""500"" height = ""500"" style=""border:5px solid black"">","","",""
"","266.02499999900465","stimulus-presentation","27","136821","0.0-14.0-1.6","SS1604513235224","<img src='images/complex/1.png' width ='500' height = '500' style='border:5px solid black'>","40","all_complex","images/complex/3.png","images/complex/1.png","images/complex/13.png,images/complex/8.png,images/complex/9.png,images/complex/18.png,images/complex/15.png,images/complex/2.png,images/complex/5.png","0","null","","200","466.02499999900465","","","","background","",""
"","null","html-keyboard-response","28","137835","0.0-14.0-0.7","SS1604513235224","","null","","","","","","","","","","","","<img src=images/blank.png width =""500"" height = ""500"" style=""border:5px solid black"">","","",""
"","3157.4150000014924","stimulus-presentation","29","141208","0.0-14.0-1.7","SS1604513235224","<img src='images/complex/3.png' width ='500' height = '500' style='border:5px solid black'>","40","all_complex","images/complex/3.png","images/complex/1.png","images/complex/13.png,images/complex/8.png,images/complex/9.png,images/complex/18.png,images/complex/15.png,images/complex/2.png,images/complex/5.png","0","null","","200","3357.4150000014924","","","","target","",""
"","null","html-keyboard-response","30","142218","0.0-14.0-0.8","SS1604513235224","","null","","","","","","","","","","","","<img src=images/blank.png width =""500"" height = ""500"" style=""border:5px solid black"">","","",""
"","419.61000000083004","stimulus-presentation","31","142846","0.0-14.0-1.8","SS1604513235224","<img src='images/complex/8.png' width ='500' height = '500' style='border:5px solid black'>","40","all_complex","images/complex/3.png","images/complex/1.png","images/complex/13.png,images/complex/8.png,images/complex/9.png,images/complex/18.png,images/complex/15.png,images/complex/2.png,images/complex/5.png","0","null","","200","619.61000000083","","","","deviant","",""
"","null","html-keyboard-response","32","144076","0.0-14.0-0.9","SS1604513235224","","null","","","","","","","","","","","","<img src=images/blank.png width =""500"" height = ""500"" style=""border:5px solid black"">","","",""
"","298.240000000078","stimulus-presentation","33","144585","0.0-14.0-1.9","SS1604513235224","<img src='images/complex/1.png' width ='500' height = '500' style='border:5px solid black'>","40","all_complex","images/complex/3.png","images/complex/1.png","images/complex/13.png,images/complex/8.png,images/complex/9.png,images/complex/18.png,images/complex/15.png,images/complex/2.png,images/complex/5.png","0","null","","200","498.240000000078","","","","background","",""
"","null","html-keyboard-response","34","145567","0.0-14.0-0.10","SS1604513235224","","null","","","","","","","","","","","","<img src=images/blank.png width =""500"" height = ""500"" style=""border:5px solid black"">","","",""
"","196.74499999926775","stimulus-presentation","35","145971","0.0-14.0-1.10","SS1604513235224","<img src='images/complex/1.png' width ='500' height = '500' style='border:5px solid black'>","40","all_complex","images/complex/3.png","images/complex/1.png","images/complex/13.png,images/complex/8.png,images/complex/9.png,images/complex/18.png,images/complex/15.png,images/complex/2.png,images/complex/5.png","0","null","","200","396.74499999926775","","","","background","",""
"","null","html-keyboard-response","36","147140","0.0-14.0-0.11","SS1604513235224","","null","","","","","","","","","","","","<img src=images/blank.png width =""500"" height = ""500"" style=""border:5px solid black"">","","",""
"","238.26499999995576","stimulus-presentation","37","147586","0.0-14.0-1.11","SS1604513235224","<img src='images/complex/1.png' width ='500' height = '500' style='border:5px solid black'>","40","all_complex","images/complex/3.png","images/complex/1.png","images/complex/13.png,images/complex/8.png,images/complex/9.png,images/complex/18.png,images/complex/15.png,images/complex/2.png,images/complex/5.png","0","null","","200","438.26499999995576","","","","background","",""
"","null","html-keyboard-response","38","148863","0.0-14.0-0.12","SS1604513235224","","null","","","","","","","","","","","","<img src=images/blank.png width =""500"" height = ""500"" style=""border:5px solid black"">","","",""
"","240.08499999943888","stimulus-presentation","39","149318","0.0-14.0-1.12","SS1604513235224","<img src='images/complex/1.png' width ='500' height = '500' style='border:5px solid black'>","40","all_complex","images/complex/3.png","images/complex/1.png","images/complex/13.png,images/complex/8.png,images/complex/9.png,images/complex/18.png,images/complex/15.png,images/complex/2.png,images/complex/5.png","0","null","","200","440.0849999994389","","","","background","",""
"","null","html-keyboard-response","40","150200","0.0-14.0-0.13","SS1604513235224","","null","","","","","","","","","","","","<img src=images/blank.png width =""500"" height = ""500"" style=""border:5px solid black"">","","",""
"","314.66499999986263","stimulus-presentation","41","150724","0.0-14.0-1.13","SS1604513235224","<img src='images/complex/9.png' width ='500' height = '500' style='border:5px solid black'>","40","all_complex","images/complex/3.png","images/complex/1.png","images/complex/13.png,images/complex/8.png,images/complex/9.png,images/complex/18.png,images/complex/15.png,images/complex/2.png,images/complex/5.png","0","null","","200","514.6649999998626","","","","deviant","",""
"","null","html-keyboard-response","42","151649","0.0-14.0-0.14","SS1604513235224","","null","","","","","","","","","","","","<img src=images/blank.png width =""500"" height = ""500"" style=""border:5px solid black"">","","",""
"","372.4450000008801","stimulus-presentation","43","152234","0.0-14.0-1.14","SS1604513235224","<img src='images/complex/1.png' width ='500' height = '500' style='border:5px solid black'>","40","all_complex","images/complex/3.png","images/complex/1.png","images/complex/13.png,images/complex/8.png,images/complex/9.png,images/complex/18.png,images/complex/15.png,images/complex/2.png,images/complex/5.png","0","null","","200","572.4450000008801","","","","background","",""
"","null","html-keyboard-response","44","153315","0.0-14.0-0.15","SS1604513235224","","null","","","","","","","","","","","","<img src=images/blank.png width =""500"" height = ""500"" style=""border:5px solid black"">","","",""
"","180.13500000053318","stimulus-presentation","45","153713","0.0-14.0-1.15","SS1604513235224","<img src='images/complex/1.png' width ='500' height = '500' style='border:5px solid black'>","40","all_complex","images/complex/3.png","images/complex/1.png","images/complex/13.png,images/complex/8.png,images/complex/9.png,images/complex/18.png,images/complex/15.png,images/complex/2.png,images/complex/5.png","0","null","","200","380.1350000005332","","","","background","",""
"","null","html-keyboard-response","46","154765","0.0-14.0-0.16","SS1604513235224","","null","","","","","","","","","","","","<img src=images/blank.png width =""500"" height = ""500"" style=""border:5px solid black"">","","",""
"","275.35499999977765","stimulus-presentation","47","155249","0.0-14.0-1.16","SS1604513235224","<img src='images/complex/1.png' width ='500' height = '500' style='border:5px solid black'>","40","all_complex","images/complex/3.png","images/complex/1.png","images/complex/13.png,images/complex/8.png,images/complex/9.png,images/complex/18.png,images/complex/15.png,images/complex/2.png,images/complex/5.png","0","null","","200","475.35499999977765","","","","background","",""
"","null","html-keyboard-response","48","156122","0.0-14.0-0.17","SS1604513235224","","null","","","","","","","","","","","","<img src=images/blank.png width =""500"" height = ""500"" style=""border:5px solid black"">","","",""
"","404.77000000100816","stimulus-presentation","49","156734","0.0-14.0-1.17","SS1604513235224","<img src='images/complex/5.png' width ='500' height = '500' style='border:5px solid black'>","40","all_complex","images/complex/3.png","images/complex/1.png","images/complex/13.png,images/complex/8.png,images/complex/9.png,images/complex/18.png,images/complex/15.png,images/complex/2.png,images/complex/5.png","0","null","","200","604.7700000010082","","","","deviant","",""
"","null","html-keyboard-response","50","157567","0.0-14.0-0.18","SS1604513235224","","null","","","","","","","","","","","","<img src=images/blank.png width =""500"" height = ""500"" style=""border:5px solid black"">","","",""
"","1856.9950000000827","stimulus-presentation","51","159634","0.0-14.0-1.18","SS1604513235224","<img src='images/complex/3.png' width ='500' height = '500' style='border:5px solid black'>","40","all_complex","images/complex/3.png","images/complex/1.png","images/complex/13.png,images/complex/8.png,images/complex/9.png,images/complex/18.png,images/complex/15.png,images/complex/2.png,images/complex/5.png","0","null","","200","2056.9950000000827","yes","901.6949999986391","","target","",""
"","null","html-keyboard-response","52","160568","0.0-14.0-0.19","SS1604513235224","","null","","","","","","","","","","","","<img src=images/blank.png width =""500"" height = ""500"" style=""border:5px solid black"">","","",""
"","177.08499999938067","stimulus-presentation","53","160952","0.0-14.0-1.19","SS1604513235224","<img src='images/complex/1.png' width ='500' height = '500' style='border:5px solid black'>","40","all_complex","images/complex/3.png","images/complex/1.png","images/complex/13.png,images/complex/8.png,images/complex/9.png,images/complex/18.png,images/complex/15.png,images/complex/2.png,images/complex/5.png","0","null","","200","377.08499999938067","","","","background","",""
"","null","html-keyboard-response","54","161956","0.0-14.0-0.20","SS1604513235224","","null","","","","","","","","","","","","<img src=images/blank.png width =""500"" height = ""500"" style=""border:5px solid black"">","","",""
"","1487.4999999992433","stimulus-presentation","55","163659","0.0-14.0-1.20","SS1604513235224","<img src='images/complex/3.png' width ='500' height = '500' style='border:5px solid black'>","40","all_complex","images/complex/3.png","images/complex/1.png","images/complex/13.png,images/complex/8.png,images/complex/9.png,images/complex/18.png,images/complex/15.png,images/complex/2.png,images/complex/5.png","0","null","","200","1687.4999999992433","yes","675.8499999996275","","target","",""
"","null","html-keyboard-response","56","164731","0.0-14.0-0.21","SS1604513235224","","null","","","","","","","","","","","","<img src=images/blank.png width =""500"" height = ""500"" style=""border:5px solid black"">","","",""
"","221.24500000063563","stimulus-presentation","57","165166","0.0-14.0-1.21","SS1604513235224","<img src='images/complex/1.png' width ='500' height = '500' style='border:5px solid black'>","40","all_complex","images/complex/3.png","images/complex/1.png","images/complex/13.png,images/complex/8.png,images/complex/9.png,images/complex/18.png,images/complex/15.png,images/complex/2.png,images/complex/5.png","0","null","","200","421.2450000006356","","","","background","",""
"","null","html-keyboard-response","58","166268","0.0-14.0-0.22","SS1604513235224","","null","","","","","","","","","","","","<img src=images/blank.png width =""500"" height = ""500"" style=""border:5px solid black"">","","",""
"","1417.5900000009278","stimulus-presentation","59","167901","0.0-14.0-1.22","SS1604513235224","<img src='images/complex/3.png' width ='500' height = '500' style='border:5px solid black'>","40","all_complex","images/complex/3.png","images/complex/1.png","images/complex/13.png,images/complex/8.png,images/complex/9.png,images/complex/18.png,images/complex/15.png,images/complex/2.png,images/complex/5.png","0","null","","200","1617.5900000009278","yes","507.9800000003306","","target","",""
"","null","html-keyboard-response","60","168762","0.0-14.0-0.23","SS1604513235224","","null","","","","","","","","","","","","<img src=images/blank.png width =""500"" height = ""500"" style=""border:5px solid black"">","","",""
"","269.3799999997427","stimulus-presentation","61","169245","0.0-14.0-1.23","SS1604513235224","<img src='images/complex/1.png' width ='500' height = '500' style='border:5px solid black'>","40","all_complex","images/complex/3.png","images/complex/1.png","images/complex/13.png,images/complex/8.png,images/complex/9.png,images/complex/18.png,images/complex/15.png,images/complex/2.png,images/complex/5.png","0","null","","200","469.3799999997427","","","","background","",""
"","null","html-keyboard-response","62","170073","0.0-14.0-0.24","SS1604513235224","","null","","","","","","","","","","","","<img src=images/blank.png width =""500"" height = ""500"" style=""border:5px solid black"">","","",""
"","714.3950000008626","stimulus-presentation","63","171001","0.0-14.0-1.24","SS1604513235224","<img src='images/complex/13.png' width ='500' height = '500' style='border:5px solid black'>","40","all_complex","images/complex/3.png","images/complex/1.png","images/complex/13.png,images/complex/8.png,images/complex/9.png,images/complex/18.png,images/complex/15.png,images/complex/2.png,images/complex/5.png","0","null","","200","914.3950000008626","","","","deviant","",""
"","null","html-keyboard-response","64","172273","0.0-14.0-0.25","SS1604513235224","","null","","","","","","","","","","","","<img src=images/blank.png width =""500"" height = ""500"" style=""border:5px solid black"">","","",""
"","298.3100000001141","stimulus-presentation","65","172787","0.0-14.0-1.25","SS1604513235224","<img src='images/complex/1.png' width ='500' height = '500' style='border:5px solid black'>","40","all_complex","images/complex/3.png","images/complex/1.png","images/complex/13.png,images/complex/8.png,images/complex/9.png,images/complex/18.png,images/complex/15.png,images/complex/2.png,images/complex/5.png","0","null","","200","498.3100000001141","","","","background","",""
"","null","html-keyboard-response","66","173759","0.0-14.0-0.26","SS1604513235224","","null","","","","","","","","","","","","<img src=images/blank.png width =""500"" height = ""500"" style=""border:5px solid black"">","","",""
"","258.2399999992049","stimulus-presentation","67","174236","0.0-14.0-1.26","SS1604513235224","<img src='images/complex/1.png' width ='500' height = '500' style='border:5px solid black'>","40","all_complex","images/complex/3.png","images/complex/1.png","images/complex/13.png,images/complex/8.png,images/complex/9.png,images/complex/18.png,images/complex/15.png,images/complex/2.png,images/complex/5.png","0","null","","200","458.2399999992049","","","","background","",""
"","null","html-keyboard-response","68","175365","0.0-14.0-0.27","SS1604513235224","","null","","","","","","","","","","","","<img src=images/blank.png width =""500"" height = ""500"" style=""border:5px solid black"">","","",""
"","140.34500000163098","stimulus-presentation","69","175724","0.0-14.0-1.27","SS1604513235224","<img src='images/complex/1.png' width ='500' height = '500' style='border:5px solid black'>","40","all_complex","images/complex/3.png","images/complex/1.png","images/complex/13.png,images/complex/8.png,images/complex/9.png,images/complex/18.png,images/complex/15.png,images/complex/2.png,images/complex/5.png","0","null","","200","340.345000001631","","","","background","",""
"","null","html-keyboard-response","70","176858","0.0-14.0-0.28","SS1604513235224","","null","","","","","","","","","","","","<img src=images/blank.png width =""500"" height = ""500"" style=""border:5px solid black"">","","",""
"","149.88000000081956","stimulus-presentation","71","177225","0.0-14.0-1.28","SS1604513235224","<img src='images/complex/1.png' width ='500' height = '500' style='border:5px solid black'>","40","all_complex","images/complex/3.png","images/complex/1.png","images/complex/13.png,images/complex/8.png,images/complex/9.png,images/complex/18.png,images/complex/15.png,images/complex/2.png,images/complex/5.png","0","null","","200","349.88000000081956","","","","background","",""
"","null","html-keyboard-response","72","178432","0.0-14.0-0.29","SS1604513235224","","null","","","","","","","","","","","","<img src=images/blank.png width =""500"" height = ""500"" style=""border:5px solid black"">","","",""
"","142.7149999999383","stimulus-presentation","73","178786","0.0-14.0-1.29","SS1604513235224","<img src='images/complex/1.png' width ='500' height = '500' style='border:5px solid black'>","40","all_complex","images/complex/3.png","images/complex/1.png","images/complex/13.png,images/complex/8.png,images/complex/9.png,images/complex/18.png,images/complex/15.png,images/complex/2.png,images/complex/5.png","0","null","","200","342.7149999999383","","","","background","",""
"","null","html-keyboard-response","74","179733","0.0-14.0-0.30","SS1604513235224","","null","","","","","","","","","","","","<img src=images/blank.png width =""500"" height = ""500"" style=""border:5px solid black"">","","",""
"","115.91500000032829","stimulus-presentation","75","180061","0.0-14.0-1.30","SS1604513235224","<img src='images/complex/1.png' width ='500' height = '500' style='border:5px solid black'>","40","all_complex","images/complex/3.png","images/complex/1.png","images/complex/13.png,images/complex/8.png,images/complex/9.png,images/complex/18.png,images/complex/15.png,images/complex/2.png,images/complex/5.png","0","null","","200","315.9150000003283","","","","background","",""
"","null","html-keyboard-response","76","180944","0.0-14.0-0.31","SS1604513235224","","null","","","","","","","","","","","","<img src=images/blank.png width =""500"" height = ""500"" style=""border:5px solid black"">","","",""
"","152.60999999917112","stimulus-presentation","77","181317","0.0-14.0-1.31","SS1604513235224","<img src='images/complex/1.png' width ='500' height = '500' style='border:5px solid black'>","40","all_complex","images/complex/3.png","images/complex/1.png","images/complex/13.png,images/complex/8.png,images/complex/9.png,images/complex/18.png,images/complex/15.png,images/complex/2.png,images/complex/5.png","0","null","","200","352.6099999991711","","","","background","",""
"","null","html-keyboard-response","78","182193","0.0-14.0-0.32","SS1604513235224","","null","","","","","","","","","","","","<img src=images/blank.png width =""500"" height = ""500"" style=""border:5px solid black"">","","",""
"","157.91499999980442","stimulus-presentation","79","182565","0.0-14.0-1.32","SS1604513235224","<img src='images/complex/1.png' width ='500' height = '500' style='border:5px solid black'>","40","all_complex","images/complex/3.png","images/complex/1.png","images/complex/13.png,images/complex/8.png,images/complex/9.png,images/complex/18.png,images/complex/15.png,images/complex/2.png,images/complex/5.png","0","null","","200","357.9149999998044","","","","background","",""
"","null","html-keyboard-response","80","183438","0.0-14.0-0.33","SS1604513235224","","null","","","","","","","","","","","","<img src=images/blank.png width =""500"" height = ""500"" style=""border:5px solid black"">","","",""
"","317.2649999996647","stimulus-presentation","81","183971","0.0-14.0-1.33","SS1604513235224","<img src='images/complex/1.png' width ='500' height = '500' style='border:5px solid black'>","40","all_complex","images/complex/3.png","images/complex/1.png","images/complex/13.png,images/complex/8.png,images/complex/9.png,images/complex/18.png,images/complex/15.png,images/complex/2.png,images/complex/5.png","0","null","","200","517.2649999996647","","","","background","",""
"","null","html-keyboard-response","82","185013","0.0-14.0-0.34","SS1604513235224","","null","","","","","","","","","","","","<img src=images/blank.png width =""500"" height = ""500"" style=""border:5px solid black"">","","",""
"","354.90500000014435","stimulus-presentation","83","185584","0.0-14.0-1.34","SS1604513235224","<img src='images/complex/1.png' width ='500' height = '500' style='border:5px solid black'>","40","all_complex","images/complex/3.png","images/complex/1.png","images/complex/13.png,images/complex/8.png,images/complex/9.png,images/complex/18.png,images/complex/15.png,images/complex/2.png,images/complex/5.png","0","null","","200","554.9050000001444","","","","background","",""
"","null","html-keyboard-response","84","186650","0.0-14.0-0.35","SS1604513235224","","null","","","","","","","","","","","","<img src=images/blank.png width =""500"" height = ""500"" style=""border:5px solid black"">","","",""
"","561.0599999999977","stimulus-presentation","85","187421","0.0-14.0-1.35","SS1604513235224","<img src='images/complex/15.png' width ='500' height = '500' style='border:5px solid black'>","40","all_complex","images/complex/3.png","images/complex/1.png","images/complex/13.png,images/complex/8.png,images/complex/9.png,images/complex/18.png,images/complex/15.png,images/complex/2.png,images/complex/5.png","0","null","","200","761.0599999999977","","","","deviant","",""
"","null","html-keyboard-response","86","188525","0.0-14.0-0.36","SS1604513235224","","null","","","","","","","","","","","","<img src=images/blank.png width =""500"" height = ""500"" style=""border:5px solid black"">","","",""
"","592.875000000291","stimulus-presentation","87","189335","0.0-14.0-1.36","SS1604513235224","<img src='images/complex/1.png' width ='500' height = '500' style='border:5px solid black'>","40","all_complex","images/complex/3.png","images/complex/1.png","images/complex/13.png,images/complex/8.png,images/complex/9.png,images/complex/18.png,images/complex/15.png,images/complex/2.png,images/complex/5.png","0","null","","200","792.875000000291","","","","background","",""
"","null","html-keyboard-response","88","190287","0.0-14.0-0.37","SS1604513235224","","null","","","","","","","","","","","","<img src=images/blank.png width =""500"" height = ""500"" style=""border:5px solid black"">","","",""
"","351.3399999992689","stimulus-presentation","89","190852","0.0-14.0-1.37","SS1604513235224","<img src='images/complex/1.png' width ='500' height = '500' style='border:5px solid black'>","40","all_complex","images/complex/3.png","images/complex/1.png","images/complex/13.png,images/complex/8.png,images/complex/9.png,images/complex/18.png,images/complex/15.png,images/complex/2.png,images/complex/5.png","0","null","","200","551.3399999992689","","","","background","",""
"","null","html-keyboard-response","90","191918","0.0-14.0-0.38","SS1604513235224","","null","","","","","","","","","","","","<img src=images/blank.png width =""500"" height = ""500"" style=""border:5px solid black"">","","",""
"","1569.4349999994447","stimulus-presentation","91","193702","0.0-14.0-1.38","SS1604513235224","<img src='images/complex/3.png' width ='500' height = '500' style='border:5px solid black'>","40","all_complex","images/complex/3.png","images/complex/1.png","images/complex/13.png,images/complex/8.png,images/complex/9.png,images/complex/18.png,images/complex/15.png,images/complex/2.png,images/complex/5.png","0","null","","200","1769.4349999994447","yes","627.6949999992503","","target","",""
"","null","html-keyboard-response","92","194523","0.0-14.0-0.39","SS1604513235224","","null","","","","","","","","","","","","<img src=images/blank.png width =""500"" height = ""500"" style=""border:5px solid black"">","","",""
"","327.4849999998114","stimulus-presentation","93","195064","0.0-14.0-1.39","SS1604513235224","<img src='images/complex/1.png' width ='500' height = '500' style='border:5px solid black'>","40","all_complex","images/complex/3.png","images/complex/1.png","images/complex/13.png,images/complex/8.png,images/complex/9.png,images/complex/18.png,images/complex/15.png,images/complex/2.png,images/complex/5.png","0","null","","200","527.4849999998114","","","","background","",""
"","null","html-keyboard-response","94","196318","0.0-14.0-0.40","SS1604513235224","","null","","","","","","","","","","","","<img src=images/blank.png width =""500"" height = ""500"" style=""border:5px solid black"">","","",""
"","185.2799999996787","stimulus-presentation","95","196720","0.0-14.0-1.40","SS1604513235224","<img src='images/complex/1.png' width ='500' height = '500' style='border:5px solid black'>","40","all_complex","images/complex/3.png","images/complex/1.png","images/complex/13.png,images/complex/8.png,images/complex/9.png,images/complex/18.png,images/complex/15.png,images/complex/2.png,images/complex/5.png","0","null","","200","385.2799999996787","","","","background","",""
"","null","html-keyboard-response","96","197605","0.0-14.0-0.41","SS1604513235224","","null","","","","","","","","","","","","<img src=images/blank.png width =""500"" height = ""500"" style=""border:5px solid black"">","","",""
"","170.1750000011234","stimulus-presentation","97","197990","0.0-14.0-1.41","SS1604513235224","<img src='images/complex/1.png' width ='500' height = '500' style='border:5px solid black'>","40","all_complex","images/complex/3.png","images/complex/1.png","images/complex/13.png,images/complex/8.png,images/complex/9.png,images/complex/18.png,images/complex/15.png,images/complex/2.png,images/complex/5.png","0","null","","200","370.1750000011234","","","","background","",""
"","null","html-keyboard-response","98","199287","0.0-14.0-0.42","SS1604513235224","","null","","","","","","","","","","","","<img src=images/blank.png width =""500"" height = ""500"" style=""border:5px solid black"">","","",""
"","202.54000000021188","stimulus-presentation","99","199710","0.0-14.0-1.42","SS1604513235224","<img src='images/complex/1.png' width ='500' height = '500' style='border:5px solid black'>","40","all_complex","images/complex/3.png","images/complex/1.png","images/complex/13.png,images/complex/8.png,images/complex/9.png,images/complex/18.png,images/complex/15.png,images/complex/2.png,images/complex/5.png","0","null","","200","402.5400000002119","","","","background","",""
"","null","html-keyboard-response","100","200645","0.0-14.0-0.43","SS1604513235224","","null","","","","","","","","","","","","<img src=images/blank.png width =""500"" height = ""500"" style=""border:5px solid black"">","","",""
"","408.3499999997148","stimulus-presentation","101","201270","0.0-14.0-1.43","SS1604513235224","<img src='images/complex/18.png' width ='500' height = '500' style='border:5px solid black'>","40","all_complex","images/complex/3.png","images/complex/1.png","images/complex/13.png,images/complex/8.png,images/complex/9.png,images/complex/18.png,images/complex/15.png,images/complex/2.png,images/complex/5.png","0","null","","200","608.3499999997148","","","","deviant","",""
"","null","html-keyboard-response","102","202544","0.0-14.0-0.44","SS1604513235224","","null","","","","","","","","","","","","<img src=images/blank.png width =""500"" height = ""500"" style=""border:5px solid black"">","","",""
"","287.45499999969616","stimulus-presentation","103","203047","0.0-14.0-1.44","SS1604513235224","<img src='images/complex/1.png' width ='500' height = '500' style='border:5px solid black'>","40","all_complex","images/complex/3.png","images/complex/1.png","images/complex/13.png,images/complex/8.png,images/complex/9.png,images/complex/18.png,images/complex/15.png,images/complex/2.png,images/complex/5.png","0","null","","200","487.45499999969616","","","","background","",""
"","null","html-keyboard-response","104","204164","0.0-14.0-0.45","SS1604513235224","","null","","","","","","","","","","","","<img src=images/blank.png width =""500"" height = ""500"" style=""border:5px solid black"">","","",""
"","2023.484999999695","stimulus-presentation","105","206402","0.0-14.0-1.45","SS1604513235224","<img src='images/complex/3.png' width ='500' height = '500' style='border:5px solid black'>","40","all_complex","images/complex/3.png","images/complex/1.png","images/complex/13.png,images/complex/8.png,images/complex/9.png,images/complex/18.png,images/complex/15.png,images/complex/2.png,images/complex/5.png","0","null","","200","2223.484999999695","yes","583.3650000003981","","target","",""
"","null","html-keyboard-response","106","207673","0.0-14.0-0.46","SS1604513235224","","null","","","","","","","","","","","","<img src=images/blank.png width =""500"" height = ""500"" style=""border:5px solid black"">","","",""
"","1666.7049999996088","stimulus-presentation","107","209567","0.0-14.0-1.46","SS1604513235224","<img src='images/complex/3.png' width ='500' height = '500' style='border:5px solid black'>","40","all_complex","images/complex/3.png","images/complex/1.png","images/complex/13.png,images/complex/8.png,images/complex/9.png,images/complex/18.png,images/complex/15.png,images/complex/2.png,images/complex/5.png","0","null","","200","1866.7049999996088","yes","756.510000001057","","target","",""
"","null","html-keyboard-response","108","210753","0.0-14.0-0.47","SS1604513235224","","null","","","","","","","","","","","","<img src=images/blank.png width =""500"" height = ""500"" style=""border:5px solid black"">","","",""
"","289.9550000001909","stimulus-presentation","109","211256","0.0-14.0-1.47","SS1604513235224","<img src='images/complex/1.png' width ='500' height = '500' style='border:5px solid black'>","40","all_complex","images/complex/3.png","images/complex/1.png","images/complex/13.png,images/complex/8.png,images/complex/9.png,images/complex/18.png,images/complex/15.png,images/complex/2.png,images/complex/5.png","0","null","","200","489.9550000001909","","","","background","",""
"","null","html-keyboard-response","110","212266","0.0-14.0-0.48","SS1604513235224","","null","","","","","","","","","","","","<img src=images/blank.png width =""500"" height = ""500"" style=""border:5px solid black"">","","",""
"","183.6750000002212","stimulus-presentation","111","212669","0.0-14.0-1.48","SS1604513235224","<img src='images/complex/1.png' width ='500' height = '500' style='border:5px solid black'>","40","all_complex","images/complex/3.png","images/complex/1.png","images/complex/13.png,images/complex/8.png,images/complex/9.png,images/complex/18.png,images/complex/15.png,images/complex/2.png,images/complex/5.png","0","null","","200","383.6750000002212","","","","background","",""
"[{""page_index"":0,""viewing_time"":3289}]","3290","task-instructions","112","215966","0.0-15.0","SS1604513235224","","","","","","","","","","","","","","","","",""
"[{""page_index"":0,""viewing_time"":3555.054999998887},{""page_index"":1,""viewing_time"":3315.9700000014855},{""page_index"":2,""viewing_time"":971.3649999994086}]","7843.649999998888","instructions","113","223826","0.0-16.0","SS1604513235224","","","","","","","","","","","","","","","","",""
"","null","html-keyboard-response","114","224877","0.0-17.0-0.0","SS1604513235224","","null","","","","","","","","","","","","<img src=images/blank.png width =""500"" height = ""500"" style=""border:5px solid black"">","","",""
"","826.814999998518","stimulus-presentation","115","225921","0.0-17.0-1.0","SS1604513235224","<img src='images/simple/10.png' width ='500' height = '500' style='border:5px solid black'>","40","all_simple","images/simple/4.png","images/simple/10.png","images/simple/3.png,images/simple/18.png,images/simple/6.png,images/simple/11.png,images/simple/14.png,images/simple/2.png,images/simple/8.png","1","null","","200","1026.814999998518","","","","background","",""
"","null","html-keyboard-response","116","227093","0.0-17.0-0.1","SS1604513235224","","null","","","","","","","","","","","","<img src=images/blank.png width =""500"" height = ""500"" style=""border:5px solid black"">","","",""
"","202.79500000103144","stimulus-presentation","117","227518","0.0-17.0-1.1","SS1604513235224","<img src='images/simple/10.png' width ='500' height = '500' style='border:5px solid black'>","40","all_simple","images/simple/4.png","images/simple/10.png","images/simple/3.png,images/simple/18.png,images/simple/6.png,images/simple/11.png,images/simple/14.png,images/simple/2.png,images/simple/8.png","1","null","","200","402.79500000103144","","","","background","",""
"","null","html-keyboard-response","118","228494","0.0-17.0-0.2","SS1604513235224","","null","","","","","","","","","","","","<img src=images/blank.png width =""500"" height = ""500"" style=""border:5px solid black"">","","",""
"","417.12999999980093","stimulus-presentation","119","229129","0.0-17.0-1.2","SS1604513235224","<img src='images/simple/8.png' width ='500' height = '500' style='border:5px solid black'>","40","all_simple","images/simple/4.png","images/simple/10.png","images/simple/3.png,images/simple/18.png,images/simple/6.png,images/simple/11.png,images/simple/14.png,images/simple/2.png,images/simple/8.png","1","null","","200","617.1299999998009","","","","deviant","",""
"","null","html-keyboard-response","120","230043","0.0-17.0-0.3","SS1604513235224","","null","","","","","","","","","","","","<img src=images/blank.png width =""500"" height = ""500"" style=""border:5px solid black"">","","",""
"","282.3200000002398","stimulus-presentation","121","230545","0.0-17.0-1.3","SS1604513235224","<img src='images/simple/10.png' width ='500' height = '500' style='border:5px solid black'>","40","all_simple","images/simple/4.png","images/simple/10.png","images/simple/3.png,images/simple/18.png,images/simple/6.png,images/simple/11.png,images/simple/14.png,images/simple/2.png,images/simple/8.png","1","null","","200","482.3200000002398","","","","background","",""
"","null","html-keyboard-response","122","231725","0.0-17.0-0.4","SS1604513235224","","null","","","","","","","","","","","","<img src=images/blank.png width =""500"" height = ""500"" style=""border:5px solid black"">","","",""
"","372.97500000023865","stimulus-presentation","123","232325","0.0-17.0-1.4","SS1604513235224","<img src='images/simple/10.png' width ='500' height = '500' style='border:5px solid black'>","40","all_simple","images/simple/4.png","images/simple/10.png","images/simple/3.png,images/simple/18.png,images/simple/6.png,images/simple/11.png,images/simple/14.png,images/simple/2.png,images/simple/8.png","1","null","","200","572.9750000002387","","","","background","",""
"","null","html-keyboard-response","124","233228","0.0-17.0-0.5","SS1604513235224","","null","","","","","","","","","","","","<img src=images/blank.png width =""500"" height = ""500"" style=""border:5px solid black"">","","",""
"","308.36499999894295","stimulus-presentation","125","233751","0.0-17.0-1.5","SS1604513235224","<img src='images/simple/10.png' width ='500' height = '500' style='border:5px solid black'>","40","all_simple","images/simple/4.png","images/simple/10.png","images/simple/3.png,images/simple/18.png,images/simple/6.png,images/simple/11.png,images/simple/14.png,images/simple/2.png,images/simple/8.png","1","null","","200","508.36499999894295","","","","background","",""
"","null","html-keyboard-response","126","234709","0.0-17.0-0.6","SS1604513235224","","null","","","","","","","","","","","","<img src=images/blank.png width =""500"" height = ""500"" style=""border:5px solid black"">","","",""
"","248.47500000032596","stimulus-presentation","127","235172","0.0-17.0-1.6","SS1604513235224","<img src='images/simple/10.png' width ='500' height = '500' style='border:5px solid black'>","40","all_simple","images/simple/4.png","images/simple/10.png","images/simple/3.png,images/simple/18.png,images/simple/6.png,images/simple/11.png,images/simple/14.png,images/simple/2.png,images/simple/8.png","1","null","","200","448.47500000032596","","","","background","",""
"","null","html-keyboard-response","128","236452","0.0-17.0-0.7","SS1604513235224","","null","","","","","","","","","","","","<img src=images/blank.png width =""500"" height = ""500"" style=""border:5px solid black"">","","",""
"","170.44499999977415","stimulus-presentation","129","236839","0.0-17.0-1.7","SS1604513235224","<img src='images/simple/10.png' width ='500' height = '500' style='border:5px solid black'>","40","all_simple","images/simple/4.png","images/simple/10.png","images/simple/3.png,images/simple/18.png,images/simple/6.png,images/simple/11.png,images/simple/14.png,images/simple/2.png,images/simple/8.png","1","null","","200","370.44499999977415","","","","background","",""
"","null","html-keyboard-response","130","237744","0.0-17.0-0.8","SS1604513235224","","null","","","","","","","","","","","","<img src=images/blank.png width =""500"" height = ""500"" style=""border:5px solid black"">","","",""
"","381.6450000012992","stimulus-presentation","131","238341","0.0-17.0-1.8","SS1604513235224","<img src='images/simple/14.png' width ='500' height = '500' style='border:5px solid black'>","40","all_simple","images/simple/4.png","images/simple/10.png","images/simple/3.png,images/simple/18.png,images/simple/6.png,images/simple/11.png,images/simple/14.png,images/simple/2.png,images/simple/8.png","1","null","","200","581.6450000012992","","","","deviant","",""
"","null","html-keyboard-response","132","239475","0.0-17.0-0.9","SS1604513235224","","null","","","","","","","","","","","","<img src=images/blank.png width =""500"" height = ""500"" style=""border:5px solid black"">","","",""
"","230.69000000032247","stimulus-presentation","133","239921","0.0-17.0-1.9","SS1604513235224","<img src='images/simple/10.png' width ='500' height = '500' style='border:5px solid black'>","40","all_simple","images/simple/4.png","images/simple/10.png","images/simple/3.png,images/simple/18.png,images/simple/6.png,images/simple/11.png,images/simple/14.png,images/simple/2.png,images/simple/8.png","1","null","","200","430.69000000032247","","","","background","",""
"","null","html-keyboard-response","134","241023","0.0-17.0-0.10","SS1604513235224","","null","","","","","","","","","","","","<img src=images/blank.png width =""500"" height = ""500"" style=""border:5px solid black"">","","",""
"","167.2949999992852","stimulus-presentation","135","241405","0.0-17.0-1.10","SS1604513235224","<img src='images/simple/10.png' width ='500' height = '500' style='border:5px solid black'>","40","all_simple","images/simple/4.png","images/simple/10.png","images/simple/3.png,images/simple/18.png,images/simple/6.png,images/simple/11.png,images/simple/14.png,images/simple/2.png,images/simple/8.png","1","null","","200","367.2949999992852","","","","background","",""
"","null","html-keyboard-response","136","242321","0.0-17.0-0.11","SS1604513235224","","null","","","","","","","","","","","","<img src=images/blank.png width =""500"" height = ""500"" style=""border:5px solid black"">","","",""
"","211.8649999992922","stimulus-presentation","137","242752","0.0-17.0-1.11","SS1604513235224","<img src='images/simple/10.png' width ='500' height = '500' style='border:5px solid black'>","40","all_simple","images/simple/4.png","images/simple/10.png","images/simple/3.png,images/simple/18.png,images/simple/6.png,images/simple/11.png,images/simple/14.png,images/simple/2.png,images/simple/8.png","1","null","","200","411.8649999992922","","","","background","",""
"","null","html-keyboard-response","138","243883","0.0-17.0-0.12","SS1604513235224","","null","","","","","","","","","","","","<img src=images/blank.png width =""500"" height = ""500"" style=""border:5px solid black"">","","",""
"","253.16000000020722","stimulus-presentation","139","244356","0.0-17.0-1.12","SS1604513235224","<img src='images/simple/10.png' width ='500' height = '500' style='border:5px solid black'>","40","all_simple","images/simple/4.png","images/simple/10.png","images/simple/3.png,images/simple/18.png,images/simple/6.png,images/simple/11.png,images/simple/14.png,images/simple/2.png,images/simple/8.png","1","null","","200","453.1600000002072","","","","background","",""
"","null","html-keyboard-response","140","245374","0.0-17.0-0.13","SS1604513235224","","null","","","","","","","","","","","","<img src=images/blank.png width =""500"" height = ""500"" style=""border:5px solid black"">","","",""
"","156.6400000010617","stimulus-presentation","141","245750","0.0-17.0-1.13","SS1604513235224","<img src='images/simple/10.png' width ='500' height = '500' style='border:5px solid black'>","40","all_simple","images/simple/4.png","images/simple/10.png","images/simple/3.png,images/simple/18.png,images/simple/6.png,images/simple/11.png,images/simple/14.png,images/simple/2.png,images/simple/8.png","1","null","","200","356.6400000010617","","","","background","",""
"","null","html-keyboard-response","142","246568","0.0-17.0-0.14","SS1604513235224","","null","","","","","","","","","","","","<img src=images/blank.png width =""500"" height = ""500"" style=""border:5px solid black"">","","",""
"","234.05499999897438","stimulus-presentation","143","247019","0.0-17.0-1.14","SS1604513235224","<img src='images/simple/10.png' width ='500' height = '500' style='border:5px solid black'>","40","all_simple","images/simple/4.png","images/simple/10.png","images/simple/3.png,images/simple/18.png,images/simple/6.png,images/simple/11.png,images/simple/14.png,images/simple/2.png,images/simple/8.png","1","null","","200","434.0549999989744","","","","background","",""
"","null","html-keyboard-response","144","248006","0.0-17.0-0.15","SS1604513235224","","null","","","","","","","","","","","","<img src=images/blank.png width =""500"" height = ""500"" style=""border:5px solid black"">","","",""
"","215.0499999988824","stimulus-presentation","145","248447","0.0-17.0-1.15","SS1604513235224","<img src='images/simple/10.png' width ='500' height = '500' style='border:5px solid black'>","40","all_simple","images/simple/4.png","images/simple/10.png","images/simple/3.png,images/simple/18.png,images/simple/6.png,images/simple/11.png,images/simple/14.png,images/simple/2.png,images/simple/8.png","1","null","","200","415.0499999988824","","","","background","",""
"","null","html-keyboard-response","146","249388","0.0-17.0-0.16","SS1604513235224","","null","","","","","","","","","","","","<img src=images/blank.png width =""500"" height = ""500"" style=""border:5px solid black"">","","",""
"","153.7599999992235","stimulus-presentation","147","249760","0.0-17.0-1.16","SS1604513235224","<img src='images/simple/10.png' width ='500' height = '500' style='border:5px solid black'>","40","all_simple","images/simple/4.png","images/simple/10.png","images/simple/3.png,images/simple/18.png,images/simple/6.png,images/simple/11.png,images/simple/14.png,images/simple/2.png,images/simple/8.png","1","null","","200","353.7599999992235","","","","background","",""
"","null","html-keyboard-response","148","250721","0.0-17.0-0.17","SS1604513235224","","null","","","","","","","","","","","","<img src=images/blank.png width =""500"" height = ""500"" style=""border:5px solid black"">","","",""
"","189.48999999882653","stimulus-presentation","149","251129","0.0-17.0-1.17","SS1604513235224","<img src='images/simple/10.png' width ='500' height = '500' style='border:5px solid black'>","40","all_simple","images/simple/4.png","images/simple/10.png","images/simple/3.png,images/simple/18.png,images/simple/6.png,images/simple/11.png,images/simple/14.png,images/simple/2.png,images/simple/8.png","1","null","","200","389.48999999882653","","","","background","",""
"","null","html-keyboard-response","150","252153","0.0-17.0-0.18","SS1604513235224","","null","","","","","","","","","","","","<img src=images/blank.png width =""500"" height = ""500"" style=""border:5px solid black"">","","",""
"","408.15499999918393","stimulus-presentation","151","252784","0.0-17.0-1.18","SS1604513235224","<img src='images/simple/18.png' width ='500' height = '500' style='border:5px solid black'>","40","all_simple","images/simple/4.png","images/simple/10.png","images/simple/3.png,images/simple/18.png,images/simple/6.png,images/simple/11.png,images/simple/14.png,images/simple/2.png,images/simple/8.png","1","null","","200","608.1549999991839","","","","deviant","",""
"","null","html-keyboard-response","152","253884","0.0-17.0-0.19","SS1604513235224","","null","","","","","","","","","","","","<img src=images/blank.png width =""500"" height = ""500"" style=""border:5px solid black"">","","",""
"","1431.230000000127","stimulus-presentation","153","255530","0.0-17.0-1.19","SS1604513235224","<img src='images/simple/4.png' width ='500' height = '500' style='border:5px solid black'>","40","all_simple","images/simple/4.png","images/simple/10.png","images/simple/3.png,images/simple/18.png,images/simple/6.png,images/simple/11.png,images/simple/14.png,images/simple/2.png,images/simple/8.png","1","null","","200","1631.230000000127","yes","743.239999999787","","target","",""
"","null","html-keyboard-response","154","256414","0.0-17.0-0.20","SS1604513235224","","null","","","","","","","","","","","","<img src=images/blank.png width =""500"" height = ""500"" style=""border:5px solid black"">","","",""
"","274.84499999991385","stimulus-presentation","155","256911","0.0-17.0-1.20","SS1604513235224","<img src='images/simple/10.png' width ='500' height = '500' style='border:5px solid black'>","40","all_simple","images/simple/4.png","images/simple/10.png","images/simple/3.png,images/simple/18.png,images/simple/6.png,images/simple/11.png,images/simple/14.png,images/simple/2.png,images/simple/8.png","1","null","","200","474.84499999991385","","","","background","",""
"","null","html-keyboard-response","156","258173","0.0-17.0-0.21","SS1604513235224","","null","","","","","","","","","","","","<img src=images/blank.png width =""500"" height = ""500"" style=""border:5px solid black"">","","",""
"","242.10500000114553","stimulus-presentation","157","258636","0.0-17.0-1.21","SS1604513235224","<img src='images/simple/4.png' width ='500' height = '500' style='border:5px solid black'>","40","all_simple","images/simple/4.png","images/simple/10.png","images/simple/3.png,images/simple/18.png,images/simple/6.png,images/simple/11.png,images/simple/14.png,images/simple/2.png,images/simple/8.png","1","null","","200","442.1050000011455","","","","target","",""
"","null","html-keyboard-response","158","259902","0.0-17.0-0.22","SS1604513235224","","null","","","","","","","","","","","","<img src=images/blank.png width =""500"" height = ""500"" style=""border:5px solid black"">","","",""
"","1086.7999999991152","stimulus-presentation","159","261207","0.0-17.0-1.22","SS1604513235224","<img src='images/simple/4.png' width ='500' height = '500' style='border:5px solid black'>","40","all_simple","images/simple/4.png","images/simple/10.png","images/simple/3.png,images/simple/18.png,images/simple/6.png,images/simple/11.png,images/simple/14.png,images/simple/2.png,images/simple/8.png","1","null","","200","1286.7999999991152","yes","433.0349999999744","","target","",""
"","null","html-keyboard-response","160","262266","0.0-17.0-0.23","SS1604513235224","","null","","","","","","","","","","","","<img src=images/blank.png width =""500"" height = ""500"" style=""border:5px solid black"">","","",""
"","619.2650000011781","stimulus-presentation","161","263102","0.0-17.0-1.23","SS1604513235224","<img src='images/simple/6.png' width ='500' height = '500' style='border:5px solid black'>","40","all_simple","images/simple/4.png","images/simple/10.png","images/simple/3.png,images/simple/18.png,images/simple/6.png,images/simple/11.png,images/simple/14.png,images/simple/2.png,images/simple/8.png","1","null","","200","819.2650000011781","","","","deviant","",""
"","null","html-keyboard-response","162","264139","0.0-17.0-0.24","SS1604513235224","","null","","","","","","","","","","","","<img src=images/blank.png width =""500"" height = ""500"" style=""border:5px solid black"">","","",""
"","442.559999999532","stimulus-presentation","163","264797","0.0-17.0-1.24","SS1604513235224","<img src='images/simple/10.png' width ='500' height = '500' style='border:5px solid black'>","40","all_simple","images/simple/4.png","images/simple/10.png","images/simple/3.png,images/simple/18.png,images/simple/6.png,images/simple/11.png,images/simple/14.png,images/simple/2.png,images/simple/8.png","1","null","","200","642.559999999532","","","","background","",""
"","null","html-keyboard-response","164","265984","0.0-17.0-0.25","SS1604513235224","","null","","","","","","","","","","","","<img src=images/blank.png width =""500"" height = ""500"" style=""border:5px solid black"">","","",""
"","2184.5549999998184","stimulus-presentation","165","268386","0.0-17.0-1.25","SS1604513235224","<img src='images/simple/4.png' width ='500' height = '500' style='border:5px solid black'>","40","all_simple","images/simple/4.png","images/simple/10.png","images/simple/3.png,images/simple/18.png,images/simple/6.png,images/simple/11.png,images/simple/14.png,images/simple/2.png,images/simple/8.png","1","null","","200","2384.5549999998184","yes","560.7949999994016","","target","",""
"","null","html-keyboard-response","166","269368","0.0-17.0-0.26","SS1604513235224","","null","","","","","","","","","","","","<img src=images/blank.png width =""500"" height = ""500"" style=""border:5px solid black"">","","",""
"","368.375","stimulus-presentation","167","269952","0.0-17.0-1.26","SS1604513235224","<img src='images/simple/10.png' width ='500' height = '500' style='border:5px solid black'>","40","all_simple","images/simple/4.png","images/simple/10.png","images/simple/3.png,images/simple/18.png,images/simple/6.png,images/simple/11.png,images/simple/14.png,images/simple/2.png,images/simple/8.png","1","null","","200","568.375","","","","background","",""
"","null","html-keyboard-response","168","271257","0.0-17.0-0.27","SS1604513235224","","null","","","","","","","","","","","","<img src=images/blank.png width =""500"" height = ""500"" style=""border:5px solid black"">","","",""
"","232.95999999938067","stimulus-presentation","169","271723","0.0-17.0-1.27","SS1604513235224","<img src='images/simple/10.png' width ='500' height = '500' style='border:5px solid black'>","40","all_simple","images/simple/4.png","images/simple/10.png","images/simple/3.png,images/simple/18.png,images/simple/6.png,images/simple/11.png,images/simple/14.png,images/simple/2.png,images/simple/8.png","1","null","","200","432.95999999938067","","","","background","",""
"","null","html-keyboard-response","170","272949","0.0-17.0-0.28","SS1604513235224","","null","","","","","","","","","","","","<img src=images/blank.png width =""500"" height = ""500"" style=""border:5px solid black"">","","",""
"","216.97999999922467","stimulus-presentation","171","273384","0.0-17.0-1.28","SS1604513235224","<img src='images/simple/10.png' width ='500' height = '500' style='border:5px solid black'>","40","all_simple","images/simple/4.png","images/simple/10.png","images/simple/3.png,images/simple/18.png,images/simple/6.png,images/simple/11.png,images/simple/14.png,images/simple/2.png,images/simple/8.png","1","null","","200","416.9799999992247","","","","background","",""
"","null","html-keyboard-response","172","274208","0.0-17.0-0.29","SS1604513235224","","null","","","","","","","","","","","","<img src=images/blank.png width =""500"" height = ""500"" style=""border:5px solid black"">","","",""
"","337.65000000130385","stimulus-presentation","173","274762","0.0-17.0-1.29","SS1604513235224","<img src='images/simple/10.png' width ='500' height = '500' style='border:5px solid black'>","40","all_simple","images/simple/4.png","images/simple/10.png","images/simple/3.png,images/simple/18.png,images/simple/6.png,images/simple/11.png,images/simple/14.png,images/simple/2.png,images/simple/8.png","1","null","","200","537.6500000013039","","","","background","",""
"","null","html-keyboard-response","174","275947","0.0-17.0-0.30","SS1604513235224","","null","","","","","","","","","","","","<img src=images/blank.png width =""500"" height = ""500"" style=""border:5px solid black"">","","",""
"","398.50499999924796","stimulus-presentation","175","276560","0.0-17.0-1.30","SS1604513235224","<img src='images/simple/3.png' width ='500' height = '500' style='border:5px solid black'>","40","all_simple","images/simple/4.png","images/simple/10.png","images/simple/3.png,images/simple/18.png,images/simple/6.png,images/simple/11.png,images/simple/14.png,images/simple/2.png,images/simple/8.png","1","null","","200","598.504999999248","","","","deviant","",""
"","null","html-keyboard-response","176","277435","0.0-17.0-0.31","SS1604513235224","","null","","","","","","","","","","","","<img src=images/blank.png width =""500"" height = ""500"" style=""border:5px solid black"">","","",""
"","1368.174999999581","stimulus-presentation","177","279023","0.0-17.0-1.31","SS1604513235224","<img src='images/simple/4.png' width ='500' height = '500' style='border:5px solid black'>","40","all_simple","images/simple/4.png","images/simple/10.png","images/simple/3.png,images/simple/18.png,images/simple/6.png,images/simple/11.png,images/simple/14.png,images/simple/2.png,images/simple/8.png","1","null","","200","1568.174999999581","yes","555.1099999993457","","target","",""
"","null","html-keyboard-response","178","279953","0.0-17.0-0.32","SS1604513235224","","null","","","","","","","","","","","","<img src=images/blank.png width =""500"" height = ""500"" style=""border:5px solid black"">","","",""
"","490.81999999907566","stimulus-presentation","179","280662","0.0-17.0-1.32","SS1604513235224","<img src='images/simple/10.png' width ='500' height = '500' style='border:5px solid black'>","40","all_simple","images/simple/4.png","images/simple/10.png","images/simple/3.png,images/simple/18.png,images/simple/6.png,images/simple/11.png,images/simple/14.png,images/simple/2.png,images/simple/8.png","1","null","","200","690.8199999990757","","","","background","",""
"","null","html-keyboard-response","180","281628","0.0-17.0-0.33","SS1604513235224","","null","","","","","","","","","","","","<img src=images/blank.png width =""500"" height = ""500"" style=""border:5px solid black"">","","",""
"","354.57499999937136","stimulus-presentation","181","282202","0.0-17.0-1.33","SS1604513235224","<img src='images/simple/10.png' width ='500' height = '500' style='border:5px solid black'>","40","all_simple","images/simple/4.png","images/simple/10.png","images/simple/3.png,images/simple/18.png,images/simple/6.png,images/simple/11.png,images/simple/14.png,images/simple/2.png,images/simple/8.png","1","null","","200","554.5749999993714","","","","background","",""
"","null","html-keyboard-response","182","283468","0.0-17.0-0.34","SS1604513235224","","null","","","","","","","","","","","","<img src=images/blank.png width =""500"" height = ""500"" style=""border:5px solid black"">","","",""
"","1424.5200000004843","stimulus-presentation","183","285114","0.0-17.0-1.34","SS1604513235224","<img src='images/simple/4.png' width ='500' height = '500' style='border:5px solid black'>","40","all_simple","images/simple/4.png","images/simple/10.png","images/simple/3.png,images/simple/18.png,images/simple/6.png,images/simple/11.png,images/simple/14.png,images/simple/2.png,images/simple/8.png","1","null","","200","1624.5200000004843","yes","451.61000000010245","","target","",""
"","null","html-keyboard-response","184","285953","0.0-17.0-0.35","SS1604513235224","","null","","","","","","","","","","","","<img src=images/blank.png width =""500"" height = ""500"" style=""border:5px solid black"">","","",""
"","211.86500000115484","stimulus-presentation","185","286385","0.0-17.0-1.35","SS1604513235224","<img src='images/simple/10.png' width ='500' height = '500' style='border:5px solid black'>","40","all_simple","images/simple/4.png","images/simple/10.png","images/simple/3.png,images/simple/18.png,images/simple/6.png,images/simple/11.png,images/simple/14.png,images/simple/2.png,images/simple/8.png","1","null","","200","411.86500000115484","","","","background","",""
"","null","html-keyboard-response","186","287574","0.0-17.0-0.36","SS1604513235224","","null","","","","","","","","","","","","<img src=images/blank.png width =""500"" height = ""500"" style=""border:5px solid black"">","","",""
"","397.629999999539","stimulus-presentation","187","288193","0.0-17.0-1.36","SS1604513235224","<img src='images/simple/11.png' width ='500' height = '500' style='border:5px solid black'>","40","all_simple","images/simple/4.png","images/simple/10.png","images/simple/3.png,images/simple/18.png,images/simple/6.png,images/simple/11.png,images/simple/14.png,images/simple/2.png,images/simple/8.png","1","null","","200","597.629999999539","","","","deviant","",""
"","null","html-keyboard-response","188","289258","0.0-17.0-0.37","SS1604513235224","","null","","","","","","","","","","","","<img src=images/blank.png width =""500"" height = ""500"" style=""border:5px solid black"">","","",""
"","1252.7849999988102","stimulus-presentation","189","290742","0.0-17.0-1.37","SS1604513235224","<img src='images/simple/4.png' width ='500' height = '500' style='border:5px solid black'>","40","all_simple","images/simple/4.png","images/simple/10.png","images/simple/3.png,images/simple/18.png,images/simple/6.png,images/simple/11.png,images/simple/14.png,images/simple/2.png,images/simple/8.png","1","null","","200","1452.7849999988102","yes","343.9650000000256","","target","",""
"","null","html-keyboard-response","190","292002","0.0-17.0-0.38","SS1604513235224","","null","","","","","","","","","","","","<img src=images/blank.png width =""500"" height = ""500"" style=""border:5px solid black"">","","",""
"","137.22000000055414","stimulus-presentation","191","292360","0.0-17.0-1.38","SS1604513235224","<img src='images/simple/10.png' width ='500' height = '500' style='border:5px solid black'>","40","all_simple","images/simple/4.png","images/simple/10.png","images/simple/3.png,images/simple/18.png,images/simple/6.png,images/simple/11.png,images/simple/14.png,images/simple/2.png,images/simple/8.png","1","null","","200","337.22000000055414","","","","background","",""
"","null","html-keyboard-response","192","293256","0.0-17.0-0.39","SS1604513235224","","null","","","","","","","","","","","","<img src=images/blank.png width =""500"" height = ""500"" style=""border:5px solid black"">","","",""
"","122.73499999905471","stimulus-presentation","193","293609","0.0-17.0-1.39","SS1604513235224","<img src='images/simple/10.png' width ='500' height = '500' style='border:5px solid black'>","40","all_simple","images/simple/4.png","images/simple/10.png","images/simple/3.png,images/simple/18.png,images/simple/6.png,images/simple/11.png,images/simple/14.png,images/simple/2.png,images/simple/8.png","1","null","","200","322.7349999990547","","","","background","",""
"","null","html-keyboard-response","194","294502","0.0-17.0-0.40","SS1604513235224","","null","","","","","","","","","","","","<img src=images/blank.png width =""500"" height = ""500"" style=""border:5px solid black"">","","",""
"","138.8900000001886","stimulus-presentation","195","294863","0.0-17.0-1.40","SS1604513235224","<img src='images/simple/10.png' width ='500' height = '500' style='border:5px solid black'>","40","all_simple","images/simple/4.png","images/simple/10.png","images/simple/3.png,images/simple/18.png,images/simple/6.png,images/simple/11.png,images/simple/14.png,images/simple/2.png,images/simple/8.png","1","null","","200","338.8900000001886","","","","background","",""
"","null","html-keyboard-response","196","295862","0.0-17.0-0.41","SS1604513235224","","null","","","","","","","","","","","","<img src=images/blank.png width =""500"" height = ""500"" style=""border:5px solid black"">","","",""
"","148.61000000021886","stimulus-presentation","197","296226","0.0-17.0-1.41","SS1604513235224","<img src='images/simple/10.png' width ='500' height = '500' style='border:5px solid black'>","40","all_simple","images/simple/4.png","images/simple/10.png","images/simple/3.png,images/simple/18.png,images/simple/6.png,images/simple/11.png,images/simple/14.png,images/simple/2.png,images/simple/8.png","1","null","","200","348.61000000021886","","","","background","",""
"","null","html-keyboard-response","198","297062","0.0-17.0-0.42","SS1604513235224","","null","","","","","","","","","","","","<img src=images/blank.png width =""500"" height = ""500"" style=""border:5px solid black"">","","",""
"","172.6949999993085","stimulus-presentation","199","297453","0.0-17.0-1.42","SS1604513235224","<img src='images/simple/10.png' width ='500' height = '500' style='border:5px solid black'>","40","all_simple","images/simple/4.png","images/simple/10.png","images/simple/3.png,images/simple/18.png,images/simple/6.png,images/simple/11.png,images/simple/14.png,images/simple/2.png,images/simple/8.png","1","null","","200","372.6949999993085","","","","background","",""
"","null","html-keyboard-response","200","298688","0.0-17.0-0.43","SS1604513235224","","null","","","","","","","","","","","","<img src=images/blank.png width =""500"" height = ""500"" style=""border:5px solid black"">","","",""
"","346.55999999993946","stimulus-presentation","201","299256","0.0-17.0-1.43","SS1604513235224","<img src='images/simple/2.png' width ='500' height = '500' style='border:5px solid black'>","40","all_simple","images/simple/4.png","images/simple/10.png","images/simple/3.png,images/simple/18.png,images/simple/6.png,images/simple/11.png,images/simple/14.png,images/simple/2.png,images/simple/8.png","1","null","","200","546.5599999999395","","","","deviant","",""
"","null","html-keyboard-response","202","300390","0.0-17.0-0.44","SS1604513235224","","null","","","","","","","","","","","","<img src=images/blank.png width =""500"" height = ""500"" style=""border:5px solid black"">","","",""
"","149.22499999922002","stimulus-presentation","203","300760","0.0-17.0-1.44","SS1604513235224","<img src='images/simple/10.png' width ='500' height = '500' style='border:5px solid black'>","40","all_simple","images/simple/4.png","images/simple/10.png","images/simple/3.png,images/simple/18.png,images/simple/6.png,images/simple/11.png,images/simple/14.png,images/simple/2.png,images/simple/8.png","1","null","","200","349.22499999922","","","","background","",""
"","null","html-keyboard-response","204","301931","0.0-17.0-0.45","SS1604513235224","","null","","","","","","","","","","","","<img src=images/blank.png width =""500"" height = ""500"" style=""border:5px solid black"">","","",""
"","132.9650000007241","stimulus-presentation","205","302283","0.0-17.0-1.45","SS1604513235224","<img src='images/simple/10.png' width ='500' height = '500' style='border:5px solid black'>","40","all_simple","images/simple/4.png","images/simple/10.png","images/simple/3.png,images/simple/18.png,images/simple/6.png,images/simple/11.png,images/simple/14.png,images/simple/2.png,images/simple/8.png","1","null","","200","332.9650000007241","","","","background","",""
"","null","html-keyboard-response","206","303180","0.0-17.0-0.46","SS1604513235224","","null","","","","","","","","","","","","<img src=images/blank.png width =""500"" height = ""500"" style=""border:5px solid black"">","","",""
"","134.024999999383","stimulus-presentation","207","303534","0.0-17.0-1.46","SS1604513235224","<img src='images/simple/10.png' width ='500' height = '500' style='border:5px solid black'>","40","all_simple","images/simple/4.png","images/simple/10.png","images/simple/3.png,images/simple/18.png,images/simple/6.png,images/simple/11.png,images/simple/14.png,images/simple/2.png,images/simple/8.png","1","null","","200","334.024999999383","","","","background","",""
"","null","html-keyboard-response","208","304594","0.0-17.0-0.47","SS1604513235224","","null","","","","","","","","","","","","<img src=images/blank.png width =""500"" height = ""500"" style=""border:5px solid black"">","","",""
"","103.04999999969732","stimulus-presentation","209","304914","0.0-17.0-1.47","SS1604513235224","<img src='images/simple/10.png' width ='500' height = '500' style='border:5px solid black'>","40","all_simple","images/simple/4.png","images/simple/10.png","images/simple/3.png,images/simple/18.png,images/simple/6.png,images/simple/11.png,images/simple/14.png,images/simple/2.png,images/simple/8.png","1","null","","200","303.0499999996973","","","","background","",""
"","null","html-keyboard-response","210","305885","0.0-17.0-0.48","SS1604513235224","","null","","","","","","","","","","","","<img src=images/blank.png width =""500"" height = ""500"" style=""border:5px solid black"">","","",""
"","180.66999999969266","stimulus-presentation","211","306283","0.0-17.0-1.48","SS1604513235224","<img src='images/simple/10.png' width ='500' height = '500' style='border:5px solid black'>","40","all_simple","images/simple/4.png","images/simple/10.png","images/simple/3.png,images/simple/18.png,images/simple/6.png,images/simple/11.png,images/simple/14.png,images/simple/2.png,images/simple/8.png","1","null","","200","380.66999999969266","","","","background","",""
"[{""page_index"":0,""viewing_time"":2093}]","2094","task-instructions","212","308389","0.0-18.0","SS1604513235224","","","","","","","","","","","","","","","","",""
"[{""page_index"":0,""viewing_time"":1137.2599999994854},{""page_index"":1,""viewing_time"":2189.730000000098},{""page_index"":2,""viewing_time"":1575.554999999411}]","4903.729999999981","instructions","213","313313","0.0-19.0","SS1604513235224","","","","","","","","","","","","","","","","",""
"","null","html-keyboard-response","214","314196","0.0-20.0-0.0","SS1604513235224","","null","","","","","","","","","","","","<img src=images/blank.png width =""500"" height = ""500"" style=""border:5px solid black"">","","",""
"","273.0800000008312","stimulus-presentation","215","314684","0.0-20.0-1.0","SS1604513235224","<img src='images/complex/4.png' width ='500' height = '500' style='border:5px solid black'>","40","mixed_complex_deviant","images/simple/9.png","images/simple/5.png","images/complex/6.png,images/complex/4.png,images/complex/16.png,images/complex/17.png,images/complex/11.png,images/complex/10.png,images/complex/14.png","2","null","","200","473.0800000008312","","","","deviant","",""
"","null","html-keyboard-response","216","315684","0.0-20.0-0.1","SS1604513235224","","null","","","","","","","","","","","","<img src=images/blank.png width =""500"" height = ""500"" style=""border:5px solid black"">","","",""
"","856.9299999999348","stimulus-presentation","217","316755","0.0-20.0-1.1","SS1604513235224","<img src='images/simple/9.png' width ='500' height = '500' style='border:5px solid black'>","40","mixed_complex_deviant","images/simple/9.png","images/simple/5.png","images/complex/6.png,images/complex/4.png,images/complex/16.png,images/complex/17.png,images/complex/11.png,images/complex/10.png,images/complex/14.png","2","null","","200","1056.9299999999348","yes","268.65999999968335","","target","",""
"","null","html-keyboard-response","218","317627","0.0-20.0-0.2","SS1604513235224","","null","","","","","","","","","","","","<img src=images/blank.png width =""500"" height = ""500"" style=""border:5px solid black"">","","",""
"","166.6600000007893","stimulus-presentation","219","318019","0.0-20.0-1.2","SS1604513235224","<img src='images/simple/5.png' width ='500' height = '500' style='border:5px solid black'>","40","mixed_complex_deviant","images/simple/9.png","images/simple/5.png","images/complex/6.png,images/complex/4.png,images/complex/16.png,images/complex/17.png,images/complex/11.png,images/complex/10.png,images/complex/14.png","2","null","","200","366.6600000007893","","","","background","",""
"","null","html-keyboard-response","220","318935","0.0-20.0-0.3","SS1604513235224","","null","","","","","","","","","","","","<img src=images/blank.png width =""500"" height = ""500"" style=""border:5px solid black"">","","",""
"","210.14500000089174","stimulus-presentation","221","319372","0.0-20.0-1.3","SS1604513235224","<img src='images/simple/5.png' width ='500' height = '500' style='border:5px solid black'>","40","mixed_complex_deviant","images/simple/9.png","images/simple/5.png","images/complex/6.png,images/complex/4.png,images/complex/16.png,images/complex/17.png,images/complex/11.png,images/complex/10.png,images/complex/14.png","2","null","","200","410.14500000089174","","","","background","",""
"","null","html-keyboard-response","222","320687","0.0-20.0-0.4","SS1604513235224","","null","","","","","","","","","","","","<img src=images/blank.png width =""500"" height = ""500"" style=""border:5px solid black"">","","",""
"","1099.7100000004284","stimulus-presentation","223","322014","0.0-20.0-1.4","SS1604513235224","<img src='images/simple/9.png' width ='500' height = '500' style='border:5px solid black'>","40","mixed_complex_deviant","images/simple/9.png","images/simple/5.png","images/complex/6.png,images/complex/4.png,images/complex/16.png,images/complex/17.png,images/complex/11.png,images/complex/10.png,images/complex/14.png","2","null","","200","1299.7100000004284","yes","401.45999999914784","","target","",""
"","null","html-keyboard-response","224","323033","0.0-20.0-0.5","SS1604513235224","","null","","","","","","","","","","","","<img src=images/blank.png width =""500"" height = ""500"" style=""border:5px solid black"">","","",""
"","443.3750000006985","stimulus-presentation","225","323698","0.0-20.0-1.5","SS1604513235224","<img src='images/complex/11.png' width ='500' height = '500' style='border:5px solid black'>","40","mixed_complex_deviant","images/simple/9.png","images/simple/5.png","images/complex/6.png,images/complex/4.png,images/complex/16.png,images/complex/17.png,images/complex/11.png,images/complex/10.png,images/complex/14.png","2","null","","200","643.3750000006985","","","","deviant","",""
"","null","html-keyboard-response","226","324879","0.0-20.0-0.6","SS1604513235224","","null","","","","","","","","","","","","<img src=images/blank.png width =""500"" height = ""500"" style=""border:5px solid black"">","","",""
"","721.7199999995064","stimulus-presentation","227","325820","0.0-20.0-1.6","SS1604513235224","<img src='images/simple/5.png' width ='500' height = '500' style='border:5px solid black'>","40","mixed_complex_deviant","images/simple/9.png","images/simple/5.png","images/complex/6.png,images/complex/4.png,images/complex/16.png,images/complex/17.png,images/complex/11.png,images/complex/10.png,images/complex/14.png","2","null","","200","921.7199999995064","","","","background","",""
"","null","html-keyboard-response","228","326709","0.0-20.0-0.7","SS1604513235224","","null","","","","","","","","","","","","<img src=images/blank.png width =""500"" height = ""500"" style=""border:5px solid black"">","","",""
"","204.07999999949243","stimulus-presentation","229","327134","0.0-20.0-1.7","SS1604513235224","<img src='images/simple/9.png' width ='500' height = '500' style='border:5px solid black'>","40","mixed_complex_deviant","images/simple/9.png","images/simple/5.png","images/complex/6.png,images/complex/4.png,images/complex/16.png,images/complex/17.png,images/complex/11.png,images/complex/10.png,images/complex/14.png","2","null","","200","404.07999999949243","","","","target","",""
"","null","html-keyboard-response","230","328283","0.0-20.0-0.8","SS1604513235224","","null","","","","","","","","","","","","<img src=images/blank.png width =""500"" height = ""500"" style=""border:5px solid black"">","","",""
"","184.71000000135973","stimulus-presentation","231","328697","0.0-20.0-1.8","SS1604513235224","<img src='images/simple/5.png' width ='500' height = '500' style='border:5px solid black'>","40","mixed_complex_deviant","images/simple/9.png","images/simple/5.png","images/complex/6.png,images/complex/4.png,images/complex/16.png,images/complex/17.png,images/complex/11.png,images/complex/10.png,images/complex/14.png","2","null","","200","384.71000000135973","","","","background","",""
"","null","html-keyboard-response","232","329812","0.0-20.0-0.9","SS1604513235224","","null","","","","","","","","","","","","<img src=images/blank.png width =""500"" height = ""500"" style=""border:5px solid black"">","","",""
"","162.43000000034226","stimulus-presentation","233","330197","0.0-20.0-1.9","SS1604513235224","<img src='images/simple/5.png' width ='500' height = '500' style='border:5px solid black'>","40","mixed_complex_deviant","images/simple/9.png","images/simple/5.png","images/complex/6.png,images/complex/4.png,images/complex/16.png,images/complex/17.png,images/complex/11.png,images/complex/10.png,images/complex/14.png","2","null","","200","362.43000000034226","","","","background","",""
"","null","html-keyboard-response","234","331110","0.0-20.0-0.10","SS1604513235224","","null","","","","","","","","","","","","<img src=images/blank.png width =""500"" height = ""500"" style=""border:5px solid black"">","","",""
"","163.16999999980908","stimulus-presentation","235","331495","0.0-20.0-1.10","SS1604513235224","<img src='images/simple/5.png' width ='500' height = '500' style='border:5px solid black'>","40","mixed_complex_deviant","images/simple/9.png","images/simple/5.png","images/complex/6.png,images/complex/4.png,images/complex/16.png,images/complex/17.png,images/complex/11.png,images/complex/10.png,images/complex/14.png","2","null","","200","363.1699999998091","","","","background","",""
"","null","html-keyboard-response","236","332713","0.0-20.0-0.11","SS1604513235224","","null","","","","","","","","","","","","<img src=images/blank.png width =""500"" height = ""500"" style=""border:5px solid black"">","","",""
"","149.30499999900348","stimulus-presentation","237","333082","0.0-20.0-1.11","SS1604513235224","<img src='images/simple/5.png' width ='500' height = '500' style='border:5px solid black'>","40","mixed_complex_deviant","images/simple/9.png","images/simple/5.png","images/complex/6.png,images/complex/4.png,images/complex/16.png,images/complex/17.png,images/complex/11.png,images/complex/10.png,images/complex/14.png","2","null","","200","349.3049999990035","","","","background","",""
"","null","html-keyboard-response","238","334226","0.0-20.0-0.12","SS1604513235224","","null","","","","","","","","","","","","<img src=images/blank.png width =""500"" height = ""500"" style=""border:5px solid black"">","","",""
"","147.3400000013644","stimulus-presentation","239","334598","0.0-20.0-1.12","SS1604513235224","<img src='images/simple/5.png' width ='500' height = '500' style='border:5px solid black'>","40","mixed_complex_deviant","images/simple/9.png","images/simple/5.png","images/complex/6.png,images/complex/4.png,images/complex/16.png,images/complex/17.png,images/complex/11.png,images/complex/10.png,images/complex/14.png","2","null","","200","347.3400000013644","","","","background","",""
"","null","html-keyboard-response","240","335492","0.0-20.0-0.13","SS1604513235224","","null","","","","","","","","","","","","<img src=images/blank.png width =""500"" height = ""500"" style=""border:5px solid black"">","","",""
"","203.43500000127824","stimulus-presentation","241","335922","0.0-20.0-1.13","SS1604513235224","<img src='images/simple/5.png' width ='500' height = '500' style='border:5px solid black'>","40","mixed_complex_deviant","images/simple/9.png","images/simple/5.png","images/complex/6.png,images/complex/4.png,images/complex/16.png,images/complex/17.png,images/complex/11.png,images/complex/10.png,images/complex/14.png","2","null","","200","403.43500000127824","","","","background","",""
"","null","html-keyboard-response","242","337101","0.0-20.0-0.14","SS1604513235224","","null","","","","","","","","","","","","<img src=images/blank.png width =""500"" height = ""500"" style=""border:5px solid black"">","","",""
"","987.0949999986333","stimulus-presentation","243","338307","0.0-20.0-1.14","SS1604513235224","<img src='images/simple/9.png' width ='500' height = '500' style='border:5px solid black'>","40","mixed_complex_deviant","images/simple/9.png","images/simple/5.png","images/complex/6.png,images/complex/4.png,images/complex/16.png,images/complex/17.png,images/complex/11.png,images/complex/10.png,images/complex/14.png","2","null","","200","1187.0949999986333","yes","390.0199999989709","","target","",""
"","null","html-keyboard-response","244","339255","0.0-20.0-0.15","SS1604513235224","","null","","","","","","","","","","","","<img src=images/blank.png width =""500"" height = ""500"" style=""border:5px solid black"">","","",""
"","465.90500000095926","stimulus-presentation","245","339949","0.0-20.0-1.15","SS1604513235224","<img src='images/complex/16.png' width ='500' height = '500' style='border:5px solid black'>","40","mixed_complex_deviant","images/simple/9.png","images/simple/5.png","images/complex/6.png,images/complex/4.png,images/complex/16.png,images/complex/17.png,images/complex/11.png,images/complex/10.png,images/complex/14.png","2","null","","200","665.9050000009593","","","","deviant","",""
"","null","html-keyboard-response","246","341236","0.0-20.0-0.16","SS1604513235224","","null","","","","","","","","","","","","<img src=images/blank.png width =""500"" height = ""500"" style=""border:5px solid black"">","","",""
"","126.72999999998137","stimulus-presentation","247","341587","0.0-20.0-1.16","SS1604513235224","<img src='images/simple/5.png' width ='500' height = '500' style='border:5px solid black'>","40","mixed_complex_deviant","images/simple/9.png","images/simple/5.png","images/complex/6.png,images/complex/4.png,images/complex/16.png,images/complex/17.png,images/complex/11.png,images/complex/10.png,images/complex/14.png","2","null","","200","326.7299999999814","","","","background","",""
"","null","html-keyboard-response","248","342405","0.0-20.0-0.17","SS1604513235224","","null","","","","","","","","","","","","<img src=images/blank.png width =""500"" height = ""500"" style=""border:5px solid black"">","","",""
"","137.04999999934807","stimulus-presentation","249","342764","0.0-20.0-1.17","SS1604513235224","<img src='images/simple/5.png' width ='500' height = '500' style='border:5px solid black'>","40","mixed_complex_deviant","images/simple/9.png","images/simple/5.png","images/complex/6.png,images/complex/4.png,images/complex/16.png,images/complex/17.png,images/complex/11.png,images/complex/10.png,images/complex/14.png","2","null","","200","337.0499999993481","","","","background","",""
"","null","html-keyboard-response","250","343806","0.0-20.0-0.18","SS1604513235224","","null","","","","","","","","","","","","<img src=images/blank.png width =""500"" height = ""500"" style=""border:5px solid black"">","","",""
"","464.4250000001048","stimulus-presentation","251","344492","0.0-20.0-1.18","SS1604513235224","<img src='images/complex/17.png' width ='500' height = '500' style='border:5px solid black'>","40","mixed_complex_deviant","images/simple/9.png","images/simple/5.png","images/complex/6.png,images/complex/4.png,images/complex/16.png,images/complex/17.png,images/complex/11.png,images/complex/10.png,images/complex/14.png","2","null","","200","664.4250000001048","","","","deviant","",""
"","null","html-keyboard-response","252","345569","0.0-20.0-0.19","SS1604513235224","","null","","","","","","","","","","","","<img src=images/blank.png width =""500"" height = ""500"" style=""border:5px solid black"">","","",""
"","193.11999999987893","stimulus-presentation","253","345989","0.0-20.0-1.19","SS1604513235224","<img src='images/simple/5.png' width ='500' height = '500' style='border:5px solid black'>","40","mixed_complex_deviant","images/simple/9.png","images/simple/5.png","images/complex/6.png,images/complex/4.png,images/complex/16.png,images/complex/17.png,images/complex/11.png,images/complex/10.png,images/complex/14.png","2","null","","200","393.1199999998789","","","","background","",""
"","null","html-keyboard-response","254","347006","0.0-20.0-0.20","SS1604513235224","","null","","","","","","","","","","","","<img src=images/blank.png width =""500"" height = ""500"" style=""border:5px solid black"">","","",""
"","111.67500000010477","stimulus-presentation","255","347342","0.0-20.0-1.20","SS1604513235224","<img src='images/simple/5.png' width ='500' height = '500' style='border:5px solid black'>","40","mixed_complex_deviant","images/simple/9.png","images/simple/5.png","images/complex/6.png,images/complex/4.png,images/complex/16.png,images/complex/17.png,images/complex/11.png,images/complex/10.png,images/complex/14.png","2","null","","200","311.6750000001048","","","","background","",""
"","null","html-keyboard-response","256","348320","0.0-20.0-0.21","SS1604513235224","","null","","","","","","","","","","","","<img src=images/blank.png width =""500"" height = ""500"" style=""border:5px solid black"">","","",""
"","1070.7849999999162","stimulus-presentation","257","349616","0.0-20.0-1.21","SS1604513235224","<img src='images/simple/9.png' width ='500' height = '500' style='border:5px solid black'>","40","mixed_complex_deviant","images/simple/9.png","images/simple/5.png","images/complex/6.png,images/complex/4.png,images/complex/16.png,images/complex/17.png,images/complex/11.png,images/complex/10.png,images/complex/14.png","2","null","","200","1270.7849999999162","yes","342.7300000003306","","target","",""
"","null","html-keyboard-response","258","350764","0.0-20.0-0.22","SS1604513235224","","null","","","","","","","","","","","","<img src=images/blank.png width =""500"" height = ""500"" style=""border:5px solid black"">","","",""
"","206.08999999967637","stimulus-presentation","259","351193","0.0-20.0-1.22","SS1604513235224","<img src='images/simple/5.png' width ='500' height = '500' style='border:5px solid black'>","40","mixed_complex_deviant","images/simple/9.png","images/simple/5.png","images/complex/6.png,images/complex/4.png,images/complex/16.png,images/complex/17.png,images/complex/11.png,images/complex/10.png,images/complex/14.png","2","null","","200","406.08999999967637","","","","background","",""
"","null","html-keyboard-response","260","352380","0.0-20.0-0.23","SS1604513235224","","null","","","","","","","","","","","","<img src=images/blank.png width =""500"" height = ""500"" style=""border:5px solid black"">","","",""
"","167.07499999937136","stimulus-presentation","261","352768","0.0-20.0-1.23","SS1604513235224","<img src='images/simple/5.png' width ='500' height = '500' style='border:5px solid black'>","40","mixed_complex_deviant","images/simple/9.png","images/simple/5.png","images/complex/6.png,images/complex/4.png,images/complex/16.png,images/complex/17.png,images/complex/11.png,images/complex/10.png,images/complex/14.png","2","null","","200","367.07499999937136","","","","background","",""
"","null","html-keyboard-response","262","353921","0.0-20.0-0.24","SS1604513235224","","null","","","","","","","","","","","","<img src=images/blank.png width =""500"" height = ""500"" style=""border:5px solid black"">","","",""
"","148.864999999234","stimulus-presentation","263","354290","0.0-20.0-1.24","SS1604513235224","<img src='images/simple/5.png' width ='500' height = '500' style='border:5px solid black'>","40","mixed_complex_deviant","images/simple/9.png","images/simple/5.png","images/complex/6.png,images/complex/4.png,images/complex/16.png,images/complex/17.png,images/complex/11.png,images/complex/10.png,images/complex/14.png","2","null","","200","348.864999999234","","","","background","",""
"","null","html-keyboard-response","264","355343","0.0-20.0-0.25","SS1604513235224","","null","","","","","","","","","","","","<img src=images/blank.png width =""500"" height = ""500"" style=""border:5px solid black"">","","",""
"","172.70000000100117","stimulus-presentation","265","355740","0.0-20.0-1.25","SS1604513235224","<img src='images/complex/10.png' width ='500' height = '500' style='border:5px solid black'>","40","mixed_complex_deviant","images/simple/9.png","images/simple/5.png","images/complex/6.png,images/complex/4.png,images/complex/16.png,images/complex/17.png,images/complex/11.png,images/complex/10.png,images/complex/14.png","2","null","","200","372.7000000010012","","","","deviant","",""
"","null","html-keyboard-response","266","356706","0.0-20.0-0.26","SS1604513235224","","null","","","","","","","","","","","","<img src=images/blank.png width =""500"" height = ""500"" style=""border:5px solid black"">","","",""
"","281.7500000001164","stimulus-presentation","267","357206","0.0-20.0-1.26","SS1604513235224","<img src='images/simple/5.png' width ='500' height = '500' style='border:5px solid black'>","40","mixed_complex_deviant","images/simple/9.png","images/simple/5.png","images/complex/6.png,images/complex/4.png,images/complex/16.png,images/complex/17.png,images/complex/11.png,images/complex/10.png,images/complex/14.png","2","null","","200","481.7500000001164","","","","background","",""
"","null","html-keyboard-response","268","358058","0.0-20.0-0.27","SS1604513235224","","null","","","","","","","","","","","","<img src=images/blank.png width =""500"" height = ""500"" style=""border:5px solid black"">","","",""
"","168.87499999935972","stimulus-presentation","269","358449","0.0-20.0-1.27","SS1604513235224","<img src='images/simple/5.png' width ='500' height = '500' style='border:5px solid black'>","40","mixed_complex_deviant","images/simple/9.png","images/simple/5.png","images/complex/6.png,images/complex/4.png,images/complex/16.png,images/complex/17.png,images/complex/11.png,images/complex/10.png,images/complex/14.png","2","null","","200","368.8749999993597","","","","background","",""
"","null","html-keyboard-response","270","359293","0.0-20.0-0.28","SS1604513235224","","null","","","","","","","","","","","","<img src=images/blank.png width =""500"" height = ""500"" style=""border:5px solid black"">","","",""
"","162.51499999995576","stimulus-presentation","271","359680","0.0-20.0-1.28","SS1604513235224","<img src='images/simple/9.png' width ='500' height = '500' style='border:5px solid black'>","40","mixed_complex_deviant","images/simple/9.png","images/simple/5.png","images/complex/6.png,images/complex/4.png,images/complex/16.png,images/complex/17.png,images/complex/11.png,images/complex/10.png,images/complex/14.png","2","null","","200","362.51499999995576","","","","target","",""
"","null","html-keyboard-response","272","360802","0.0-20.0-0.29","SS1604513235224","","null","","","","","","","","","","","","<img src=images/blank.png width =""500"" height = ""500"" style=""border:5px solid black"">","","",""
"","700.3000000003958","stimulus-presentation","273","361729","0.0-20.0-1.29","SS1604513235224","<img src='images/complex/6.png' width ='500' height = '500' style='border:5px solid black'>","40","mixed_complex_deviant","images/simple/9.png","images/simple/5.png","images/complex/6.png,images/complex/4.png,images/complex/16.png,images/complex/17.png,images/complex/11.png,images/complex/10.png,images/complex/14.png","2","null","","200","900.3000000003958","","","","deviant","",""
"","null","html-keyboard-response","274","362830","0.0-20.0-0.30","SS1604513235224","","null","","","","","","","","","","","","<img src=images/blank.png width =""500"" height = ""500"" style=""border:5px solid black"">","","",""
"","319.6950000001234","stimulus-presentation","275","363376","0.0-20.0-1.30","SS1604513235224","<img src='images/simple/5.png' width ='500' height = '500' style='border:5px solid black'>","40","mixed_complex_deviant","images/simple/9.png","images/simple/5.png","images/complex/6.png,images/complex/4.png,images/complex/16.png,images/complex/17.png,images/complex/11.png,images/complex/10.png,images/complex/14.png","2","null","","200","519.6950000001234","","","","background","",""
"","null","html-keyboard-response","276","364636","0.0-20.0-0.31","SS1604513235224","","null","","","","","","","","","","","","<img src=images/blank.png width =""500"" height = ""500"" style=""border:5px solid black"">","","",""
"","143.7249999999185","stimulus-presentation","277","365003","0.0-20.0-1.31","SS1604513235224","<img src='images/simple/5.png' width ='500' height = '500' style='border:5px solid black'>","40","mixed_complex_deviant","images/simple/9.png","images/simple/5.png","images/complex/6.png,images/complex/4.png,images/complex/16.png,images/complex/17.png,images/complex/11.png,images/complex/10.png,images/complex/14.png","2","null","","200","343.7249999999185","","","","background","",""
"","null","html-keyboard-response","278","366237","0.0-20.0-0.32","SS1604513235224","","null","","","","","","","","","","","","<img src=images/blank.png width =""500"" height = ""500"" style=""border:5px solid black"">","","",""
"","939.4350000002305","stimulus-presentation","279","367403","0.0-20.0-1.32","SS1604513235224","<img src='images/simple/9.png' width ='500' height = '500' style='border:5px solid black'>","40","mixed_complex_deviant","images/simple/9.png","images/simple/5.png","images/complex/6.png,images/complex/4.png,images/complex/16.png,images/complex/17.png,images/complex/11.png,images/complex/10.png,images/complex/14.png","2","null","","200","1139.4350000002305","yes","322.82499999931315","","target","",""
"","null","html-keyboard-response","280","368410","0.0-20.0-0.33","SS1604513235224","","null","","","","","","","","","","","","<img src=images/blank.png width =""500"" height = ""500"" style=""border:5px solid black"">","","",""
"","210.44000000070082","stimulus-presentation","281","368844","0.0-20.0-1.33","SS1604513235224","<img src='images/simple/5.png' width ='500' height = '500' style='border:5px solid black'>","40","mixed_complex_deviant","images/simple/9.png","images/simple/5.png","images/complex/6.png,images/complex/4.png,images/complex/16.png,images/complex/17.png,images/complex/11.png,images/complex/10.png,images/complex/14.png","2","null","","200","410.4400000007008","","","","background","",""
"","null","html-keyboard-response","282","370060","0.0-20.0-0.34","SS1604513235224","","null","","","","","","","","","","","","<img src=images/blank.png width =""500"" height = ""500"" style=""border:5px solid black"">","","",""
"","170.98999999871012","stimulus-presentation","283","370448","0.0-20.0-1.34","SS1604513235224","<img src='images/simple/5.png' width ='500' height = '500' style='border:5px solid black'>","40","mixed_complex_deviant","images/simple/9.png","images/simple/5.png","images/complex/6.png,images/complex/4.png,images/complex/16.png,images/complex/17.png,images/complex/11.png,images/complex/10.png,images/complex/14.png","2","null","","200","370.9899999987101","","","","background","",""
"","null","html-keyboard-response","284","371507","0.0-20.0-0.35","SS1604513235224","","null","","","","","","","","","","","","<img src=images/blank.png width =""500"" height = ""500"" style=""border:5px solid black"">","","",""
