"view_history","rt","trial_type","trial_index","time_elapsed","internal_node_id","subject","trial_stimulus","key_press","task_type","task_target_stimulus","task_background_stimulus","task_deviant_stimuli","task_order_number","block_order_number","trial_order_number","minimum_viewing_duration","trial_looking_time","trial_pressed_space_bar","trial_space_bar_rt","stimulus","trial_stimulus_type"
"[{""page_index"":0,""viewing_time"":1193.6899996362627}]","1194.5049995556474","instructions","0","1217","0.0-0.0","SS1604515995769","","","","","","","","","","","","","","",""
"[{""page_index"":0,""viewing_time"":2362.1450001373887},{""page_index"":1,""viewing_time"":1351.7199996858835},{""page_index"":2,""viewing_time"":1151.8250000663102},{""page_index"":3,""viewing_time"":1177.5899999774992},{""page_index"":4,""viewing_time"":1022.350000217557},{""page_index"":5,""viewing_time"":1039.7899998351932},{""page_index"":6,""viewing_time"":767.750000115484},{""page_index"":7,""viewing_time"":711.9200001470745},{""page_index"":8,""viewing_time"":767.7749996073544}]","10353.449999820441","instructions","1","11574","0.0-1.0","SS1604515995769","","","","","","","","","","","","","","",""
"[{""page_index"":0,""viewing_time"":1093.8099999912083},{""page_index"":1,""viewing_time"":6118.030000012368},{""page_index"":2,""viewing_time"":847.7749996818602}]","8060.189999639988","instructions","2","19637","0.0-2.0","SS1604515995769","","","","","","","","","","","","","","",""
"","13236.475000157952","practice-block","3","33079","0.0-3.0","SS1604515995769","<img src='images/practice/practice_background.jpeg' width ='500' height = '500' style='border:5px solid black'>","40","null","images/practice/practice_target.jpg","null","null","null","null","","200","13436.475000157952","yes","1006.3300002366304","",""
"","null","html-keyboard-response","4","34271","0.0-4.0","SS1604515995769","","null","","","","","","","","","","","","<img src=images/blank.png width =""500"" height = ""500"" style=""border:5px solid black"">",""
"","851.1399999260902","practice-block","5","35327","0.0-5.0","SS1604515995769","<img src='images/practice/practice_background.jpeg' width ='500' height = '500' style='border:5px solid black'>","40","null","images/practice/practice_target.jpg","null","null","null","null","","200","1051.1399999260902","","","",""
"","null","html-keyboard-response","6","36310","0.0-6.0","SS1604515995769","","null","","","","","","","","","","","","<img src=images/blank.png width =""500"" height = ""500"" style=""border:5px solid black"">",""
"","267.2450002282858","practice-block","7","36782","0.0-7.0","SS1604515995769","<img src='images/practice/practice_deviant.jpeg' width ='500' height = '500' style='border:5px solid black'>","40","null","images/practice/practice_target.jpg","null","null","null","null","","200","467.2450002282858","","","",""
"","null","html-keyboard-response","8","38028","0.0-8.0","SS1604515995769","","null","","","","","","","","","","","","<img src=images/blank.png width =""500"" height = ""500"" style=""border:5px solid black"">",""
"","181.03499989956617","practice-block","9","41257","0.0-9.0-0.0","SS1604515995769","<img src='images/practice/practice_target.jpg' width ='500' height = '500' style='border:5px solid black'>","40","null","images/practice/practice_target.jpg","null","null","null","null","","200","381.0349998995662","","","",""
"","981.6850000061095","practice-block","10","43657","0.0-9.1-0.1","SS1604515995769","<img src='images/practice/practice_target.jpg' width ='500' height = '500' style='border:5px solid black'>","40","null","images/practice/practice_target.jpg","null","null","null","null","","200","1181.6850000061095","","","",""
"","3158.4950000979006","practice-block","11","48104","0.0-9.2-0.2","SS1604515995769","<img src='images/practice/practice_target.jpg' width ='500' height = '500' style='border:5px solid black'>","40","null","images/practice/practice_target.jpg","null","null","null","null","","200","3358.4950000979006","","","",""
"","4215.225000400096","practice-block","12","54297","0.0-9.3-0.3","SS1604515995769","<img src='images/practice/practice_target.jpg' width ='500' height = '500' style='border:5px solid black'>","40","null","images/practice/practice_target.jpg","null","null","null","null","","200","4415.225000400096","","","",""
"","16915.05500022322","practice-block","13","73614","0.0-9.4-0.4","SS1604515995769","<img src='images/practice/practice_target.jpg' width ='500' height = '500' style='border:5px solid black'>","40","null","images/practice/practice_target.jpg","null","null","null","null","","200","17115.05500022322","","","",""
"","4878.750000149012","practice-block","14","79845","0.0-9.5-0.5","SS1604515995769","<img src='images/practice/practice_target.jpg' width ='500' height = '500' style='border:5px solid black'>","40","null","images/practice/practice_target.jpg","null","null","null","null","","200","5078.750000149012","","","",""
"","12325.41499985382","practice-block","15","92375","0.0-9.6-0.6","SS1604515995769","<img src='images/practice/practice_target.jpg' width ='500' height = '500' style='border:5px solid black'>","40","null","images/practice/practice_target.jpg","null","null","null","null","","200","12525.41499985382","yes","3855.294999666512","",""
"","null","html-keyboard-response","16","93373","0.0-10.0","SS1604515995769","","null","","","","","","","","","","","","<img src=images/blank.png width =""500"" height = ""500"" style=""border:5px solid black"">",""
"","470.1800001785159","practice-block","17","94047","0.0-11.0","SS1604515995769","<img src='images/practice/practice_background.jpeg' width ='500' height = '500' style='border:5px solid black'>","40","null","images/practice/practice_target.jpg","null","null","null","null","","200","670.1800001785159","","","",""
"[{""page_index"":0,""viewing_time"":1517}]","1518","task-instructions","18","95571","0.0-12.0","SS1604515995769","","","","","","","","","","","","","","",""
"[{""page_index"":0,""viewing_time"":1363.4400004521012},{""page_index"":1,""viewing_time"":3368.6799998395145},{""page_index"":2,""viewing_time"":886.7799998261034}]","5619.435000233352","instructions","19","101194","0.0-13.0","SS1604515995769","","","","","","","","","","","","","","",""
"","null","html-keyboard-response","20","102021","0.0-14.0-0.0","SS1604515995769","","null","","","","","","","","","","","","<img src=images/blank.png width =""500"" height = ""500"" style=""border:5px solid black"">",""
"","490.54500041529536","stimulus-presentation","21","102718","0.0-14.0-1.0","SS1604515995769","<img src='images/complex/7.png' width ='500' height = '500' style='border:5px solid black'>","40","all_complex","images/complex/4.png","images/complex/7.png","images/complex/5.png,images/complex/1.png,images/complex/14.png,images/complex/3.png,images/complex/15.png,images/complex/11.png,images/complex/6.png","0","null","","200","690.5450004152954","","","","background"
"","null","html-keyboard-response","22","103727","0.0-14.0-0.1","SS1604515995769","","null","","","","","","","","","","","","<img src=images/blank.png width =""500"" height = ""500"" style=""border:5px solid black"">",""
"","354.18500006198883","stimulus-presentation","23","104286","0.0-14.0-1.1","SS1604515995769","<img src='images/complex/5.png' width ='500' height = '500' style='border:5px solid black'>","40","all_complex","images/complex/4.png","images/complex/7.png","images/complex/5.png,images/complex/1.png,images/complex/14.png,images/complex/3.png,images/complex/15.png,images/complex/11.png,images/complex/6.png","0","null","","200","554.1850000619888","","","","deviant"
"","null","html-keyboard-response","24","105539","0.0-14.0-0.2","SS1604515995769","","null","","","","","","","","","","","","<img src=images/blank.png width =""500"" height = ""500"" style=""border:5px solid black"">",""
"","442.5349999219179","stimulus-presentation","25","106190","0.0-14.0-1.2","SS1604515995769","<img src='images/complex/7.png' width ='500' height = '500' style='border:5px solid black'>","40","all_complex","images/complex/4.png","images/complex/7.png","images/complex/5.png,images/complex/1.png,images/complex/14.png,images/complex/3.png,images/complex/15.png,images/complex/11.png,images/complex/6.png","0","null","","200","642.5349999219179","","","","background"
"","null","html-keyboard-response","26","107079","0.0-14.0-0.3","SS1604515995769","","null","","","","","","","","","","","","<img src=images/blank.png width =""500"" height = ""500"" style=""border:5px solid black"">",""
"","409.2949996702373","stimulus-presentation","27","107694","0.0-14.0-1.3","SS1604515995769","<img src='images/complex/7.png' width ='500' height = '500' style='border:5px solid black'>","40","all_complex","images/complex/4.png","images/complex/7.png","images/complex/5.png,images/complex/1.png,images/complex/14.png,images/complex/3.png,images/complex/15.png,images/complex/11.png,images/complex/6.png","0","null","","200","609.2949996702373","","","","background"
"","null","html-keyboard-response","28","108668","0.0-14.0-0.4","SS1604515995769","","null","","","","","","","","","","","","<img src=images/blank.png width =""500"" height = ""500"" style=""border:5px solid black"">",""
"","555.519999936223","stimulus-presentation","29","109428","0.0-14.0-1.4","SS1604515995769","<img src='images/complex/7.png' width ='500' height = '500' style='border:5px solid black'>","40","all_complex","images/complex/4.png","images/complex/7.png","images/complex/5.png,images/complex/1.png,images/complex/14.png,images/complex/3.png,images/complex/15.png,images/complex/11.png,images/complex/6.png","0","null","","200","755.519999936223","","","","background"
"","null","html-keyboard-response","30","110526","0.0-14.0-0.5","SS1604515995769","","null","","","","","","","","","","","","<img src=images/blank.png width =""500"" height = ""500"" style=""border:5px solid black"">",""
"","239.36000000685453","stimulus-presentation","31","110972","0.0-14.0-1.5","SS1604515995769","<img src='images/complex/7.png' width ='500' height = '500' style='border:5px solid black'>","40","all_complex","images/complex/4.png","images/complex/7.png","images/complex/5.png,images/complex/1.png,images/complex/14.png,images/complex/3.png,images/complex/15.png,images/complex/11.png,images/complex/6.png","0","null","","200","439.36000000685453","","","","background"
"","null","html-keyboard-response","32","112046","0.0-14.0-0.6","SS1604515995769","","null","","","","","","","","","","","","<img src=images/blank.png width =""500"" height = ""500"" style=""border:5px solid black"">",""
"","401.93000016734004","stimulus-presentation","33","112652","0.0-14.0-1.6","SS1604515995769","<img src='images/complex/15.png' width ='500' height = '500' style='border:5px solid black'>","40","all_complex","images/complex/4.png","images/complex/7.png","images/complex/5.png,images/complex/1.png,images/complex/14.png,images/complex/3.png,images/complex/15.png,images/complex/11.png,images/complex/6.png","0","null","","200","601.93000016734","","","","deviant"
"","null","html-keyboard-response","34","113798","0.0-14.0-0.7","SS1604515995769","","null","","","","","","","","","","","","<img src=images/blank.png width =""500"" height = ""500"" style=""border:5px solid black"">",""
"","296.2050000205636","stimulus-presentation","35","114301","0.0-14.0-1.7","SS1604515995769","<img src='images/complex/7.png' width ='500' height = '500' style='border:5px solid black'>","40","all_complex","images/complex/4.png","images/complex/7.png","images/complex/5.png,images/complex/1.png,images/complex/14.png,images/complex/3.png,images/complex/15.png,images/complex/11.png,images/complex/6.png","0","null","","200","496.2050000205636","","","","background"
"","null","html-keyboard-response","36","115458","0.0-14.0-0.8","SS1604515995769","","null","","","","","","","","","","","","<img src=images/blank.png width =""500"" height = ""500"" style=""border:5px solid black"">",""
"","1437.0749997906387","stimulus-presentation","37","117100","0.0-14.0-1.8","SS1604515995769","<img src='images/complex/7.png' width ='500' height = '500' style='border:5px solid black'>","40","all_complex","images/complex/4.png","images/complex/7.png","images/complex/5.png,images/complex/1.png,images/complex/14.png,images/complex/3.png,images/complex/15.png,images/complex/11.png,images/complex/6.png","0","null","","200","1637.0749997906387","","","","background"
"","null","html-keyboard-response","38","118086","0.0-14.0-0.9","SS1604515995769","","null","","","","","","","","","","","","<img src=images/blank.png width =""500"" height = ""500"" style=""border:5px solid black"">",""
"","808.699999935925","stimulus-presentation","39","119100","0.0-14.0-1.9","SS1604515995769","<img src='images/complex/7.png' width ='500' height = '500' style='border:5px solid black'>","40","all_complex","images/complex/4.png","images/complex/7.png","images/complex/5.png,images/complex/1.png,images/complex/14.png,images/complex/3.png,images/complex/15.png,images/complex/11.png,images/complex/6.png","0","null","","200","1008.699999935925","","","","background"
"","null","html-keyboard-response","40","120060","0.0-14.0-0.10","SS1604515995769","","null","","","","","","","","","","","","<img src=images/blank.png width =""500"" height = ""500"" style=""border:5px solid black"">",""
"","738.3500002324581","stimulus-presentation","41","121003","0.0-14.0-1.10","SS1604515995769","<img src='images/complex/7.png' width ='500' height = '500' style='border:5px solid black'>","40","all_complex","images/complex/4.png","images/complex/7.png","images/complex/5.png,images/complex/1.png,images/complex/14.png,images/complex/3.png,images/complex/15.png,images/complex/11.png,images/complex/6.png","0","null","","200","938.3500002324581","","","","background"
"","null","html-keyboard-response","42","122161","0.0-14.0-0.11","SS1604515995769","","null","","","","","","","","","","","","<img src=images/blank.png width =""500"" height = ""500"" style=""border:5px solid black"">",""
"","365.95499981194735","stimulus-presentation","43","122731","0.0-14.0-1.11","SS1604515995769","<img src='images/complex/4.png' width ='500' height = '500' style='border:5px solid black'>","40","all_complex","images/complex/4.png","images/complex/7.png","images/complex/5.png,images/complex/1.png,images/complex/14.png,images/complex/3.png,images/complex/15.png,images/complex/11.png,images/complex/6.png","0","null","","200","565.9549998119473","","","","target"
"","null","html-keyboard-response","44","123688","0.0-14.0-0.12","SS1604515995769","","null","","","","","","","","","","","","<img src=images/blank.png width =""500"" height = ""500"" style=""border:5px solid black"">",""
"","394.4799997843802","stimulus-presentation","45","124291","0.0-14.0-1.12","SS1604515995769","<img src='images/complex/7.png' width ='500' height = '500' style='border:5px solid black'>","40","all_complex","images/complex/4.png","images/complex/7.png","images/complex/5.png,images/complex/1.png,images/complex/14.png,images/complex/3.png,images/complex/15.png,images/complex/11.png,images/complex/6.png","0","null","","200","594.4799997843802","","","","background"
"","null","html-keyboard-response","46","125490","0.0-14.0-0.13","SS1604515995769","","null","","","","","","","","","","","","<img src=images/blank.png width =""500"" height = ""500"" style=""border:5px solid black"">",""
"","412.05500019714236","stimulus-presentation","47","126107","0.0-14.0-1.13","SS1604515995769","<img src='images/complex/7.png' width ='500' height = '500' style='border:5px solid black'>","40","all_complex","images/complex/4.png","images/complex/7.png","images/complex/5.png,images/complex/1.png,images/complex/14.png,images/complex/3.png,images/complex/15.png,images/complex/11.png,images/complex/6.png","0","null","","200","612.0550001971424","","","","background"
"","null","html-keyboard-response","48","126970","0.0-14.0-0.14","SS1604515995769","","null","","","","","","","","","","","","<img src=images/blank.png width =""500"" height = ""500"" style=""border:5px solid black"">",""
"","378.885000012815","stimulus-presentation","49","127554","0.0-14.0-1.14","SS1604515995769","<img src='images/complex/7.png' width ='500' height = '500' style='border:5px solid black'>","40","all_complex","images/complex/4.png","images/complex/7.png","images/complex/5.png,images/complex/1.png,images/complex/14.png,images/complex/3.png,images/complex/15.png,images/complex/11.png,images/complex/6.png","0","null","","200","578.885000012815","","","","background"
"","null","html-keyboard-response","50","128477","0.0-14.0-0.15","SS1604515995769","","null","","","","","","","","","","","","<img src=images/blank.png width =""500"" height = ""500"" style=""border:5px solid black"">",""
"","564.6600001491606","stimulus-presentation","51","129250","0.0-14.0-1.15","SS1604515995769","<img src='images/complex/1.png' width ='500' height = '500' style='border:5px solid black'>","40","all_complex","images/complex/4.png","images/complex/7.png","images/complex/5.png,images/complex/1.png,images/complex/14.png,images/complex/3.png,images/complex/15.png,images/complex/11.png,images/complex/6.png","0","null","","200","764.6600001491606","","","","deviant"
"","null","html-keyboard-response","52","130058","0.0-14.0-0.16","SS1604515995769","","null","","","","","","","","","","","","<img src=images/blank.png width =""500"" height = ""500"" style=""border:5px solid black"">",""
"","338.45000015571713","stimulus-presentation","53","130602","0.0-14.0-1.16","SS1604515995769","<img src='images/complex/7.png' width ='500' height = '500' style='border:5px solid black'>","40","all_complex","images/complex/4.png","images/complex/7.png","images/complex/5.png,images/complex/1.png,images/complex/14.png,images/complex/3.png,images/complex/15.png,images/complex/11.png,images/complex/6.png","0","null","","200","538.4500001557171","","","","background"
"","null","html-keyboard-response","54","131881","0.0-14.0-0.17","SS1604515995769","","null","","","","","","","","","","","","<img src=images/blank.png width =""500"" height = ""500"" style=""border:5px solid black"">",""
"","1371.0600002668798","stimulus-presentation","55","133458","0.0-14.0-1.17","SS1604515995769","<img src='images/complex/7.png' width ='500' height = '500' style='border:5px solid black'>","40","all_complex","images/complex/4.png","images/complex/7.png","images/complex/5.png,images/complex/1.png,images/complex/14.png,images/complex/3.png,images/complex/15.png,images/complex/11.png,images/complex/6.png","0","null","","200","1571.0600002668798","","","","background"
"","null","html-keyboard-response","56","134296","0.0-14.0-0.18","SS1604515995769","","null","","","","","","","","","","","","<img src=images/blank.png width =""500"" height = ""500"" style=""border:5px solid black"">",""
"","491.59500002861023","stimulus-presentation","57","134993","0.0-14.0-1.18","SS1604515995769","<img src='images/complex/7.png' width ='500' height = '500' style='border:5px solid black'>","40","all_complex","images/complex/4.png","images/complex/7.png","images/complex/5.png,images/complex/1.png,images/complex/14.png,images/complex/3.png,images/complex/15.png,images/complex/11.png,images/complex/6.png","0","null","","200","691.5950000286102","","","","background"
"","null","html-keyboard-response","58","136094","0.0-14.0-0.19","SS1604515995769","","null","","","","","","","","","","","","<img src=images/blank.png width =""500"" height = ""500"" style=""border:5px solid black"">",""
"","213.0800001323223","stimulus-presentation","59","136514","0.0-14.0-1.19","SS1604515995769","<img src='images/complex/7.png' width ='500' height = '500' style='border:5px solid black'>","40","all_complex","images/complex/4.png","images/complex/7.png","images/complex/5.png,images/complex/1.png,images/complex/14.png,images/complex/3.png,images/complex/15.png,images/complex/11.png,images/complex/6.png","0","null","","200","413.0800001323223","","","","background"
"","null","html-keyboard-response","60","137320","0.0-14.0-0.20","SS1604515995769","","null","","","","","","","","","","","","<img src=images/blank.png width =""500"" height = ""500"" style=""border:5px solid black"">",""
"","305.6499999947846","stimulus-presentation","61","137834","0.0-14.0-1.20","SS1604515995769","<img src='images/complex/7.png' width ='500' height = '500' style='border:5px solid black'>","40","all_complex","images/complex/4.png","images/complex/7.png","images/complex/5.png,images/complex/1.png,images/complex/14.png,images/complex/3.png,images/complex/15.png,images/complex/11.png,images/complex/6.png","0","null","","200","505.6499999947846","","","","background"
"","null","html-keyboard-response","62","138743","0.0-14.0-0.21","SS1604515995769","","null","","","","","","","","","","","","<img src=images/blank.png width =""500"" height = ""500"" style=""border:5px solid black"">",""
"","275.92500019818544","stimulus-presentation","63","139225","0.0-14.0-1.21","SS1604515995769","<img src='images/complex/11.png' width ='500' height = '500' style='border:5px solid black'>","40","all_complex","images/complex/4.png","images/complex/7.png","images/complex/5.png,images/complex/1.png,images/complex/14.png,images/complex/3.png,images/complex/15.png,images/complex/11.png,images/complex/6.png","0","null","","200","475.92500019818544","","","","deviant"
"","null","html-keyboard-response","64","140404","0.0-14.0-0.22","SS1604515995769","","null","","","","","","","","","","","","<img src=images/blank.png width =""500"" height = ""500"" style=""border:5px solid black"">",""
"","654.4699999503791","stimulus-presentation","65","141264","0.0-14.0-1.22","SS1604515995769","<img src='images/complex/7.png' width ='500' height = '500' style='border:5px solid black'>","40","all_complex","images/complex/4.png","images/complex/7.png","images/complex/5.png,images/complex/1.png,images/complex/14.png,images/complex/3.png,images/complex/15.png,images/complex/11.png,images/complex/6.png","0","null","","200","854.4699999503791","","","","background"
"","null","html-keyboard-response","66","142364","0.0-14.0-0.23","SS1604515995769","","null","","","","","","","","","","","","<img src=images/blank.png width =""500"" height = ""500"" style=""border:5px solid black"">",""
"","271.1649998091161","stimulus-presentation","67","142841","0.0-14.0-1.23","SS1604515995769","<img src='images/complex/7.png' width ='500' height = '500' style='border:5px solid black'>","40","all_complex","images/complex/4.png","images/complex/7.png","images/complex/5.png,images/complex/1.png,images/complex/14.png,images/complex/3.png,images/complex/15.png,images/complex/11.png,images/complex/6.png","0","null","","200","471.1649998091161","","","","background"
"","null","html-keyboard-response","68","143717","0.0-14.0-0.24","SS1604515995769","","null","","","","","","","","","","","","<img src=images/blank.png width =""500"" height = ""500"" style=""border:5px solid black"">",""
"","961.14999987185","stimulus-presentation","69","144888","0.0-14.0-1.24","SS1604515995769","<img src='images/complex/7.png' width ='500' height = '500' style='border:5px solid black'>","40","all_complex","images/complex/4.png","images/complex/7.png","images/complex/5.png,images/complex/1.png,images/complex/14.png,images/complex/3.png,images/complex/15.png,images/complex/11.png,images/complex/6.png","0","null","","200","1161.14999987185","","","","background"
"","null","html-keyboard-response","70","146094","0.0-14.0-0.25","SS1604515995769","","null","","","","","","","","","","","","<img src=images/blank.png width =""500"" height = ""500"" style=""border:5px solid black"">",""
"","184.50500024482608","stimulus-presentation","71","146488","0.0-14.0-1.25","SS1604515995769","<img src='images/complex/7.png' width ='500' height = '500' style='border:5px solid black'>","40","all_complex","images/complex/4.png","images/complex/7.png","images/complex/5.png,images/complex/1.png,images/complex/14.png,images/complex/3.png,images/complex/15.png,images/complex/11.png,images/complex/6.png","0","null","","200","384.5050002448261","","","","background"
"","null","html-keyboard-response","72","147675","0.0-14.0-0.26","SS1604515995769","","null","","","","","","","","","","","","<img src=images/blank.png width =""500"" height = ""500"" style=""border:5px solid black"">",""
"","503.7949997931719","stimulus-presentation","73","148384","0.0-14.0-1.26","SS1604515995769","<img src='images/complex/4.png' width ='500' height = '500' style='border:5px solid black'>","40","all_complex","images/complex/4.png","images/complex/7.png","images/complex/5.png,images/complex/1.png,images/complex/14.png,images/complex/3.png,images/complex/15.png,images/complex/11.png,images/complex/6.png","0","null","","200","703.7949997931719","","","","target"
"","null","html-keyboard-response","74","149529","0.0-14.0-0.27","SS1604515995769","","null","","","","","","","","","","","","<img src=images/blank.png width =""500"" height = ""500"" style=""border:5px solid black"">",""
"","463.7450003065169","stimulus-presentation","75","150199","0.0-14.0-1.27","SS1604515995769","<img src='images/complex/7.png' width ='500' height = '500' style='border:5px solid black'>","40","all_complex","images/complex/4.png","images/complex/7.png","images/complex/5.png,images/complex/1.png,images/complex/14.png,images/complex/3.png,images/complex/15.png,images/complex/11.png,images/complex/6.png","0","null","","200","663.7450003065169","","","","background"
"","null","html-keyboard-response","76","151135","0.0-14.0-0.28","SS1604515995769","","null","","","","","","","","","","","","<img src=images/blank.png width =""500"" height = ""500"" style=""border:5px solid black"">",""
"","977.3800000548363","stimulus-presentation","77","152319","0.0-14.0-1.28","SS1604515995769","<img src='images/complex/7.png' width ='500' height = '500' style='border:5px solid black'>","40","all_complex","images/complex/4.png","images/complex/7.png","images/complex/5.png,images/complex/1.png,images/complex/14.png,images/complex/3.png,images/complex/15.png,images/complex/11.png,images/complex/6.png","0","null","","200","1177.3800000548363","","","","background"
"","null","html-keyboard-response","78","153574","0.0-14.0-0.29","SS1604515995769","","null","","","","","","","","","","","","<img src=images/blank.png width =""500"" height = ""500"" style=""border:5px solid black"">",""
"","235.15999969094992","stimulus-presentation","79","154015","0.0-14.0-1.29","SS1604515995769","<img src='images/complex/4.png' width ='500' height = '500' style='border:5px solid black'>","40","all_complex","images/complex/4.png","images/complex/7.png","images/complex/5.png,images/complex/1.png,images/complex/14.png,images/complex/3.png,images/complex/15.png,images/complex/11.png,images/complex/6.png","0","null","","200","435.1599996909499","","","","target"
"","null","html-keyboard-response","80","154850","0.0-14.0-0.30","SS1604515995769","","null","","","","","","","","","","","","<img src=images/blank.png width =""500"" height = ""500"" style=""border:5px solid black"">",""
"","233.4500001743436","stimulus-presentation","81","155296","0.0-14.0-1.30","SS1604515995769","<img src='images/complex/4.png' width ='500' height = '500' style='border:5px solid black'>","40","all_complex","images/complex/4.png","images/complex/7.png","images/complex/5.png,images/complex/1.png,images/complex/14.png,images/complex/3.png,images/complex/15.png,images/complex/11.png,images/complex/6.png","0","null","","200","433.4500001743436","","","","target"
"","null","html-keyboard-response","82","156601","0.0-14.0-0.31","SS1604515995769","","null","","","","","","","","","","","","<img src=images/blank.png width =""500"" height = ""500"" style=""border:5px solid black"">",""
"","413.31000020727515","stimulus-presentation","83","157222","0.0-14.0-1.31","SS1604515995769","<img src='images/complex/7.png' width ='500' height = '500' style='border:5px solid black'>","40","all_complex","images/complex/4.png","images/complex/7.png","images/complex/5.png,images/complex/1.png,images/complex/14.png,images/complex/3.png,images/complex/15.png,images/complex/11.png,images/complex/6.png","0","null","","200","613.3100002072752","","","","background"
"","null","html-keyboard-response","84","158204","0.0-14.0-0.32","SS1604515995769","","null","","","","","","","","","","","","<img src=images/blank.png width =""500"" height = ""500"" style=""border:5px solid black"">",""
"","478.20999985560775","stimulus-presentation","85","158888","0.0-14.0-1.32","SS1604515995769","<img src='images/complex/4.png' width ='500' height = '500' style='border:5px solid black'>","40","all_complex","images/complex/4.png","images/complex/7.png","images/complex/5.png,images/complex/1.png,images/complex/14.png,images/complex/3.png,images/complex/15.png,images/complex/11.png,images/complex/6.png","0","null","","200","678.2099998556077","","","","target"
"","null","html-keyboard-response","86","159867","0.0-14.0-0.33","SS1604515995769","","null","","","","","","","","","","","","<img src=images/blank.png width =""500"" height = ""500"" style=""border:5px solid black"">",""
"","267.82499998807907","stimulus-presentation","87","160342","0.0-14.0-1.33","SS1604515995769","<img src='images/complex/7.png' width ='500' height = '500' style='border:5px solid black'>","40","all_complex","images/complex/4.png","images/complex/7.png","images/complex/5.png,images/complex/1.png,images/complex/14.png,images/complex/3.png,images/complex/15.png,images/complex/11.png,images/complex/6.png","0","null","","200","467.82499998807907","","","","background"
"","null","html-keyboard-response","88","161285","0.0-14.0-0.34","SS1604515995769","","null","","","","","","","","","","","","<img src=images/blank.png width =""500"" height = ""500"" style=""border:5px solid black"">",""
"","249.57499979063869","stimulus-presentation","89","161741","0.0-14.0-1.34","SS1604515995769","<img src='images/complex/7.png' width ='500' height = '500' style='border:5px solid black'>","40","all_complex","images/complex/4.png","images/complex/7.png","images/complex/5.png,images/complex/1.png,images/complex/14.png,images/complex/3.png,images/complex/15.png,images/complex/11.png,images/complex/6.png","0","null","","200","449.5749997906387","","","","background"
"","null","html-keyboard-response","90","162818","0.0-14.0-0.35","SS1604515995769","","null","","","","","","","","","","","","<img src=images/blank.png width =""500"" height = ""500"" style=""border:5px solid black"">",""
"","220.38999991491437","stimulus-presentation","91","163245","0.0-14.0-1.35","SS1604515995769","<img src='images/complex/3.png' width ='500' height = '500' style='border:5px solid black'>","40","all_complex","images/complex/4.png","images/complex/7.png","images/complex/5.png,images/complex/1.png,images/complex/14.png,images/complex/3.png,images/complex/15.png,images/complex/11.png,images/complex/6.png","0","null","","200","420.38999991491437","","","","deviant"
"","null","html-keyboard-response","92","164545","0.0-14.0-0.36","SS1604515995769","","null","","","","","","","","","","","","<img src=images/blank.png width =""500"" height = ""500"" style=""border:5px solid black"">",""
"","326.9749996252358","stimulus-presentation","93","165077","0.0-14.0-1.36","SS1604515995769","<img src='images/complex/7.png' width ='500' height = '500' style='border:5px solid black'>","40","all_complex","images/complex/4.png","images/complex/7.png","images/complex/5.png,images/complex/1.png,images/complex/14.png,images/complex/3.png,images/complex/15.png,images/complex/11.png,images/complex/6.png","0","null","","200","526.9749996252358","","","","background"
"","null","html-keyboard-response","94","166038","0.0-14.0-0.37","SS1604515995769","","null","","","","","","","","","","","","<img src=images/blank.png width =""500"" height = ""500"" style=""border:5px solid black"">",""
"","440.679999999702","stimulus-presentation","95","166685","0.0-14.0-1.37","SS1604515995769","<img src='images/complex/7.png' width ='500' height = '500' style='border:5px solid black'>","40","all_complex","images/complex/4.png","images/complex/7.png","images/complex/5.png,images/complex/1.png,images/complex/14.png,images/complex/3.png,images/complex/15.png,images/complex/11.png,images/complex/6.png","0","null","","200","640.679999999702","","","","background"
"","null","html-keyboard-response","96","167622","0.0-14.0-0.38","SS1604515995769","","null","","","","","","","","","","","","<img src=images/blank.png width =""500"" height = ""500"" style=""border:5px solid black"">",""
"","553.3249997533858","stimulus-presentation","97","168382","0.0-14.0-1.38","SS1604515995769","<img src='images/complex/7.png' width ='500' height = '500' style='border:5px solid black'>","40","all_complex","images/complex/4.png","images/complex/7.png","images/complex/5.png,images/complex/1.png,images/complex/14.png,images/complex/3.png,images/complex/15.png,images/complex/11.png,images/complex/6.png","0","null","","200","753.3249997533858","","","","background"
"","null","html-keyboard-response","98","169403","0.0-14.0-0.39","SS1604515995769","","null","","","","","","","","","","","","<img src=images/blank.png width =""500"" height = ""500"" style=""border:5px solid black"">",""
"","553.6549999378622","stimulus-presentation","99","170165","0.0-14.0-1.39","SS1604515995769","<img src='images/complex/6.png' width ='500' height = '500' style='border:5px solid black'>","40","all_complex","images/complex/4.png","images/complex/7.png","images/complex/5.png,images/complex/1.png,images/complex/14.png,images/complex/3.png,images/complex/15.png,images/complex/11.png,images/complex/6.png","0","null","","200","753.6549999378622","","","","deviant"
"","null","html-keyboard-response","100","171180","0.0-14.0-0.40","SS1604515995769","","null","","","","","","","","","","","","<img src=images/blank.png width =""500"" height = ""500"" style=""border:5px solid black"">",""
"","361.670000012964","stimulus-presentation","101","171748","0.0-14.0-1.40","SS1604515995769","<img src='images/complex/7.png' width ='500' height = '500' style='border:5px solid black'>","40","all_complex","images/complex/4.png","images/complex/7.png","images/complex/5.png,images/complex/1.png,images/complex/14.png,images/complex/3.png,images/complex/15.png,images/complex/11.png,images/complex/6.png","0","null","","200","561.670000012964","","","","background"
"","null","html-keyboard-response","102","172691","0.0-14.0-0.41","SS1604515995769","","null","","","","","","","","","","","","<img src=images/blank.png width =""500"" height = ""500"" style=""border:5px solid black"">",""
"","330.99000016227365","stimulus-presentation","103","173229","0.0-14.0-1.41","SS1604515995769","<img src='images/complex/7.png' width ='500' height = '500' style='border:5px solid black'>","40","all_complex","images/complex/4.png","images/complex/7.png","images/complex/5.png,images/complex/1.png,images/complex/14.png,images/complex/3.png,images/complex/15.png,images/complex/11.png,images/complex/6.png","0","null","","200","530.9900001622736","","","","background"
"","null","html-keyboard-response","104","174451","0.0-14.0-0.42","SS1604515995769","","null","","","","","","","","","","","","<img src=images/blank.png width =""500"" height = ""500"" style=""border:5px solid black"">",""
"","538.9449996873736","stimulus-presentation","105","175196","0.0-14.0-1.42","SS1604515995769","<img src='images/complex/7.png' width ='500' height = '500' style='border:5px solid black'>","40","all_complex","images/complex/4.png","images/complex/7.png","images/complex/5.png,images/complex/1.png,images/complex/14.png,images/complex/3.png,images/complex/15.png,images/complex/11.png,images/complex/6.png","0","null","","200","738.9449996873736","","","","background"
"","null","html-keyboard-response","106","176220","0.0-14.0-0.43","SS1604515995769","","null","","","","","","","","","","","","<img src=images/blank.png width =""500"" height = ""500"" style=""border:5px solid black"">",""
"","1018.1650002487004","stimulus-presentation","107","177445","0.0-14.0-1.43","SS1604515995769","<img src='images/complex/4.png' width ='500' height = '500' style='border:5px solid black'>","40","all_complex","images/complex/4.png","images/complex/7.png","images/complex/5.png,images/complex/1.png,images/complex/14.png,images/complex/3.png,images/complex/15.png,images/complex/11.png,images/complex/6.png","0","null","","200","1218.1650002487004","","","","target"
"","null","html-keyboard-response","108","178702","0.0-14.0-0.44","SS1604515995769","","null","","","","","","","","","","","","<img src=images/blank.png width =""500"" height = ""500"" style=""border:5px solid black"">",""
"","687.2600000351667","stimulus-presentation","109","179596","0.0-14.0-1.44","SS1604515995769","<img src='images/complex/7.png' width ='500' height = '500' style='border:5px solid black'>","40","all_complex","images/complex/4.png","images/complex/7.png","images/complex/5.png,images/complex/1.png,images/complex/14.png,images/complex/3.png,images/complex/15.png,images/complex/11.png,images/complex/6.png","0","null","","200","887.2600000351667","","","","background"
"","null","html-keyboard-response","110","180799","0.0-14.0-0.45","SS1604515995769","","null","","","","","","","","","","","","<img src=images/blank.png width =""500"" height = ""500"" style=""border:5px solid black"">",""
"","864.2950002104044","stimulus-presentation","111","181871","0.0-14.0-1.45","SS1604515995769","<img src='images/complex/7.png' width ='500' height = '500' style='border:5px solid black'>","40","all_complex","images/complex/4.png","images/complex/7.png","images/complex/5.png,images/complex/1.png,images/complex/14.png,images/complex/3.png,images/complex/15.png,images/complex/11.png,images/complex/6.png","0","null","","200","1064.2950002104044","","","","background"
"","null","html-keyboard-response","112","182926","0.0-14.0-0.46","SS1604515995769","","null","","","","","","","","","","","","<img src=images/blank.png width =""500"" height = ""500"" style=""border:5px solid black"">",""
"","246.48999981582165","stimulus-presentation","113","183379","0.0-14.0-1.46","SS1604515995769","<img src='images/complex/14.png' width ='500' height = '500' style='border:5px solid black'>","40","all_complex","images/complex/4.png","images/complex/7.png","images/complex/5.png,images/complex/1.png,images/complex/14.png,images/complex/3.png,images/complex/15.png,images/complex/11.png,images/complex/6.png","0","null","","200","446.48999981582165","","","","deviant"
"","null","html-keyboard-response","114","184207","0.0-14.0-0.47","SS1604515995769","","null","","","","","","","","","","","","<img src=images/blank.png width =""500"" height = ""500"" style=""border:5px solid black"">",""
"","461.21499966830015","stimulus-presentation","115","184875","0.0-14.0-1.47","SS1604515995769","<img src='images/complex/7.png' width ='500' height = '500' style='border:5px solid black'>","40","all_complex","images/complex/4.png","images/complex/7.png","images/complex/5.png,images/complex/1.png,images/complex/14.png,images/complex/3.png,images/complex/15.png,images/complex/11.png,images/complex/6.png","0","null","","200","661.2149996683002","","","","background"
"","null","html-keyboard-response","116","185863","0.0-14.0-0.48","SS1604515995769","","null","","","","","","","","","","","","<img src=images/blank.png width =""500"" height = ""500"" style=""border:5px solid black"">",""
"","189.0700003132224","stimulus-presentation","117","186259","0.0-14.0-1.48","SS1604515995769","<img src='images/complex/4.png' width ='500' height = '500' style='border:5px solid black'>","40","all_complex","images/complex/4.png","images/complex/7.png","images/complex/5.png,images/complex/1.png,images/complex/14.png,images/complex/3.png,images/complex/15.png,images/complex/11.png,images/complex/6.png","0","null","","200","389.0700003132224","","","","target"
"[{""page_index"":0,""viewing_time"":1910}]","1911","task-instructions","118","188175","0.0-15.0","SS1604515995769","","","","","","","","","","","","","","",""
"[{""page_index"":0,""viewing_time"":690.2900002896786},{""page_index"":1,""viewing_time"":2348.25999988243},{""page_index"":2,""viewing_time"":1159.9849998019636}]","4199.065000284463","instructions","119","192379","0.0-16.0","SS1604515995769","","","","","","","","","","","","","","",""
"","null","html-keyboard-response","120","193294","0.0-17.0-0.0","SS1604515995769","","null","","","","","","","","","","","","<img src=images/blank.png width =""500"" height = ""500"" style=""border:5px solid black"">",""
"","373.44500003382564","stimulus-presentation","121","193874","0.0-17.0-1.0","SS1604515995769","<img src='images/complex/2.png' width ='500' height = '500' style='border:5px solid black'>","40","mixed_complex_deviant","images/simple/1.png","images/simple/3.png","images/complex/9.png,images/complex/16.png,images/complex/13.png,images/complex/10.png,images/complex/2.png,images/complex/18.png,images/complex/12.png","1","null","","200","573.4450000338256","","","","deviant"
"","null","html-keyboard-response","122","194866","0.0-17.0-0.1","SS1604515995769","","null","","","","","","","","","","","","<img src=images/blank.png width =""500"" height = ""500"" style=""border:5px solid black"">",""
"","316.2750001065433","stimulus-presentation","123","195394","0.0-17.0-1.1","SS1604515995769","<img src='images/simple/3.png' width ='500' height = '500' style='border:5px solid black'>","40","mixed_complex_deviant","images/simple/1.png","images/simple/3.png","images/complex/9.png,images/complex/16.png,images/complex/13.png,images/complex/10.png,images/complex/2.png,images/complex/18.png,images/complex/12.png","1","null","","200","516.2750001065433","","","","background"
"","null","html-keyboard-response","124","196507","0.0-17.0-0.2","SS1604515995769","","null","","","","","","","","","","","","<img src=images/blank.png width =""500"" height = ""500"" style=""border:5px solid black"">",""
"","902.6750000193715","stimulus-presentation","125","197617","0.0-17.0-1.2","SS1604515995769","<img src='images/simple/3.png' width ='500' height = '500' style='border:5px solid black'>","40","mixed_complex_deviant","images/simple/1.png","images/simple/3.png","images/complex/9.png,images/complex/16.png,images/complex/13.png,images/complex/10.png,images/complex/2.png,images/complex/18.png,images/complex/12.png","1","null","","200","1102.6750000193715","","","","background"
"","null","html-keyboard-response","126","198532","0.0-17.0-0.3","SS1604515995769","","null","","","","","","","","","","","","<img src=images/blank.png width =""500"" height = ""500"" style=""border:5px solid black"">",""
"","158.38999999687076","stimulus-presentation","127","198897","0.0-17.0-1.3","SS1604515995769","<img src='images/simple/3.png' width ='500' height = '500' style='border:5px solid black'>","40","mixed_complex_deviant","images/simple/1.png","images/simple/3.png","images/complex/9.png,images/complex/16.png,images/complex/13.png,images/complex/10.png,images/complex/2.png,images/complex/18.png,images/complex/12.png","1","null","","200","358.38999999687076","","","","background"
"","null","html-keyboard-response","128","200022","0.0-17.0-0.4","SS1604515995769","","null","","","","","","","","","","","","<img src=images/blank.png width =""500"" height = ""500"" style=""border:5px solid black"">",""
"","315.13499980792403","stimulus-presentation","129","200545","0.0-17.0-1.4","SS1604515995769","<img src='images/simple/3.png' width ='500' height = '500' style='border:5px solid black'>","40","mixed_complex_deviant","images/simple/1.png","images/simple/3.png","images/complex/9.png,images/complex/16.png,images/complex/13.png,images/complex/10.png,images/complex/2.png,images/complex/18.png,images/complex/12.png","1","null","","200","515.134999807924","","","","background"
"","null","html-keyboard-response","130","201783","0.0-17.0-0.5","SS1604515995769","","null","","","","","","","","","","","","<img src=images/blank.png width =""500"" height = ""500"" style=""border:5px solid black"">",""
"","312.8599999472499","stimulus-presentation","131","202304","0.0-17.0-1.5","SS1604515995769","<img src='images/simple/3.png' width ='500' height = '500' style='border:5px solid black'>","40","mixed_complex_deviant","images/simple/1.png","images/simple/3.png","images/complex/9.png,images/complex/16.png,images/complex/13.png,images/complex/10.png,images/complex/2.png,images/complex/18.png,images/complex/12.png","1","null","","200","512.8599999472499","","","","background"
"","null","html-keyboard-response","132","203379","0.0-17.0-0.6","SS1604515995769","","null","","","","","","","","","","","","<img src=images/blank.png width =""500"" height = ""500"" style=""border:5px solid black"">",""
"","773.7949998117983","stimulus-presentation","133","204361","0.0-17.0-1.6","SS1604515995769","<img src='images/simple/1.png' width ='500' height = '500' style='border:5px solid black'>","40","mixed_complex_deviant","images/simple/1.png","images/simple/3.png","images/complex/9.png,images/complex/16.png,images/complex/13.png,images/complex/10.png,images/complex/2.png,images/complex/18.png,images/complex/12.png","1","null","","200","973.7949998117983","","","","target"
"","null","html-keyboard-response","134","205455","0.0-17.0-0.7","SS1604515995769","","null","","","","","","","","","","","","<img src=images/blank.png width =""500"" height = ""500"" style=""border:5px solid black"">",""
"","953.0950002372265","stimulus-presentation","135","206616","0.0-17.0-1.7","SS1604515995769","<img src='images/simple/3.png' width ='500' height = '500' style='border:5px solid black'>","40","mixed_complex_deviant","images/simple/1.png","images/simple/3.png","images/complex/9.png,images/complex/16.png,images/complex/13.png,images/complex/10.png,images/complex/2.png,images/complex/18.png,images/complex/12.png","1","null","","200","1153.0950002372265","","","","background"
"","null","html-keyboard-response","136","207900","0.0-17.0-0.8","SS1604515995769","","null","","","","","","","","","","","","<img src=images/blank.png width =""500"" height = ""500"" style=""border:5px solid black"">",""
"","270.2699997462332","stimulus-presentation","137","208385","0.0-17.0-1.8","SS1604515995769","<img src='images/simple/3.png' width ='500' height = '500' style='border:5px solid black'>","40","mixed_complex_deviant","images/simple/1.png","images/simple/3.png","images/complex/9.png,images/complex/16.png,images/complex/13.png,images/complex/10.png,images/complex/2.png,images/complex/18.png,images/complex/12.png","1","null","","200","470.2699997462332","","","","background"
"","null","html-keyboard-response","138","209518","0.0-17.0-0.9","SS1604515995769","","null","","","","","","","","","","","","<img src=images/blank.png width =""500"" height = ""500"" style=""border:5px solid black"">",""
"","554.2500000447035","stimulus-presentation","139","210279","0.0-17.0-1.9","SS1604515995769","<img src='images/complex/16.png' width ='500' height = '500' style='border:5px solid black'>","40","mixed_complex_deviant","images/simple/1.png","images/simple/3.png","images/complex/9.png,images/complex/16.png,images/complex/13.png,images/complex/10.png,images/complex/2.png,images/complex/18.png,images/complex/12.png","1","null","","200","754.2500000447035","","","","deviant"
"","null","html-keyboard-response","140","211358","0.0-17.0-0.10","SS1604515995769","","null","","","","","","","","","","","","<img src=images/blank.png width =""500"" height = ""500"" style=""border:5px solid black"">",""
"","570.005000103265","stimulus-presentation","141","212135","0.0-17.0-1.10","SS1604515995769","<img src='images/simple/3.png' width ='500' height = '500' style='border:5px solid black'>","40","mixed_complex_deviant","images/simple/1.png","images/simple/3.png","images/complex/9.png,images/complex/16.png,images/complex/13.png,images/complex/10.png,images/complex/2.png,images/complex/18.png,images/complex/12.png","1","null","","200","770.005000103265","","","","background"
"","null","html-keyboard-response","142","213405","0.0-17.0-0.11","SS1604515995769","","null","","","","","","","","","","","","<img src=images/blank.png width =""500"" height = ""500"" style=""border:5px solid black"">",""
"","6145.740000065416","stimulus-presentation","143","219758","0.0-17.0-1.11","SS1604515995769","<img src='images/simple/3.png' width ='500' height = '500' style='border:5px solid black'>","40","mixed_complex_deviant","images/simple/1.png","images/simple/3.png","images/complex/9.png,images/complex/16.png,images/complex/13.png,images/complex/10.png,images/complex/2.png,images/complex/18.png,images/complex/12.png","1","null","","200","6345.740000065416","","","","background"
"","null","html-keyboard-response","144","220776","0.0-17.0-0.12","SS1604515995769","","null","","","","","","","","","","","","<img src=images/blank.png width =""500"" height = ""500"" style=""border:5px solid black"">",""
"","414.22499995678663","stimulus-presentation","145","221398","0.0-17.0-1.12","SS1604515995769","<img src='images/simple/3.png' width ='500' height = '500' style='border:5px solid black'>","40","mixed_complex_deviant","images/simple/1.png","images/simple/3.png","images/complex/9.png,images/complex/16.png,images/complex/13.png,images/complex/10.png,images/complex/2.png,images/complex/18.png,images/complex/12.png","1","null","","200","614.2249999567866","","","","background"
"","null","html-keyboard-response","146","222642","0.0-17.0-0.13","SS1604515995769","","null","","","","","","","","","","","","<img src=images/blank.png width =""500"" height = ""500"" style=""border:5px solid black"">",""
"","530.8099999092519","stimulus-presentation","147","223381","0.0-17.0-1.13","SS1604515995769","<img src='images/complex/12.png' width ='500' height = '500' style='border:5px solid black'>","40","mixed_complex_deviant","images/simple/1.png","images/simple/3.png","images/complex/9.png,images/complex/16.png,images/complex/13.png,images/complex/10.png,images/complex/2.png,images/complex/18.png,images/complex/12.png","1","null","","200","730.8099999092519","","","","deviant"
"","null","html-keyboard-response","148","224295","0.0-17.0-0.14","SS1604515995769","","null","","","","","","","","","","","","<img src=images/blank.png width =""500"" height = ""500"" style=""border:5px solid black"">",""
"","245.43500039726496","stimulus-presentation","149","224749","0.0-17.0-1.14","SS1604515995769","<img src='images/simple/3.png' width ='500' height = '500' style='border:5px solid black'>","40","mixed_complex_deviant","images/simple/1.png","images/simple/3.png","images/complex/9.png,images/complex/16.png,images/complex/13.png,images/complex/10.png,images/complex/2.png,images/complex/18.png,images/complex/12.png","1","null","","200","445.43500039726496","","","","background"
"","null","html-keyboard-response","150","226035","0.0-17.0-0.15","SS1604515995769","","null","","","","","","","","","","","","<img src=images/blank.png width =""500"" height = ""500"" style=""border:5px solid black"">",""
"","219.02499999850988","stimulus-presentation","151","226462","0.0-17.0-1.15","SS1604515995769","<img src='images/simple/3.png' width ='500' height = '500' style='border:5px solid black'>","40","mixed_complex_deviant","images/simple/1.png","images/simple/3.png","images/complex/9.png,images/complex/16.png,images/complex/13.png,images/complex/10.png,images/complex/2.png,images/complex/18.png,images/complex/12.png","1","null","","200","419.0249999985099","","","","background"
"","null","html-keyboard-response","152","227310","0.0-17.0-0.16","SS1604515995769","","null","","","","","","","","","","","","<img src=images/blank.png width =""500"" height = ""500"" style=""border:5px solid black"">",""
"","207.99499982967973","stimulus-presentation","153","227733","0.0-17.0-1.16","SS1604515995769","<img src='images/simple/3.png' width ='500' height = '500' style='border:5px solid black'>","40","mixed_complex_deviant","images/simple/1.png","images/simple/3.png","images/complex/9.png,images/complex/16.png,images/complex/13.png,images/complex/10.png,images/complex/2.png,images/complex/18.png,images/complex/12.png","1","null","","200","407.9949998296797","","","","background"
"","null","html-keyboard-response","154","229008","0.0-17.0-0.17","SS1604515995769","","null","","","","","","","","","","","","<img src=images/blank.png width =""500"" height = ""500"" style=""border:5px solid black"">",""
"","1211.5650000050664","stimulus-presentation","155","230428","0.0-17.0-1.17","SS1604515995769","<img src='images/simple/3.png' width ='500' height = '500' style='border:5px solid black'>","40","mixed_complex_deviant","images/simple/1.png","images/simple/3.png","images/complex/9.png,images/complex/16.png,images/complex/13.png,images/complex/10.png,images/complex/2.png,images/complex/18.png,images/complex/12.png","1","null","","200","1411.5650000050664","","","","background"
"","null","html-keyboard-response","156","231573","0.0-17.0-0.18","SS1604515995769","","null","","","","","","","","","","","","<img src=images/blank.png width =""500"" height = ""500"" style=""border:5px solid black"">",""
"","504.6149999834597","stimulus-presentation","157","232285","0.0-17.0-1.18","SS1604515995769","<img src='images/simple/3.png' width ='500' height = '500' style='border:5px solid black'>","40","mixed_complex_deviant","images/simple/1.png","images/simple/3.png","images/complex/9.png,images/complex/16.png,images/complex/13.png,images/complex/10.png,images/complex/2.png,images/complex/18.png,images/complex/12.png","1","null","","200","704.6149999834597","","","","background"
"","null","html-keyboard-response","158","233162","0.0-17.0-0.19","SS1604515995769","","null","","","","","","","","","","","","<img src=images/blank.png width =""500"" height = ""500"" style=""border:5px solid black"">",""
"","2128.5749999806285","stimulus-presentation","159","235500","0.0-17.0-1.19","SS1604515995769","<img src='images/complex/13.png' width ='500' height = '500' style='border:5px solid black'>","40","mixed_complex_deviant","images/simple/1.png","images/simple/3.png","images/complex/9.png,images/complex/16.png,images/complex/13.png,images/complex/10.png,images/complex/2.png,images/complex/18.png,images/complex/12.png","1","null","","200","2328.5749999806285","","","","deviant"
"","null","html-keyboard-response","160","236363","0.0-17.0-0.20","SS1604515995769","","null","","","","","","","","","","","","<img src=images/blank.png width =""500"" height = ""500"" style=""border:5px solid black"">",""
"","1506.105000153184","stimulus-presentation","161","238078","0.0-17.0-1.20","SS1604515995769","<img src='images/simple/3.png' width ='500' height = '500' style='border:5px solid black'>","40","mixed_complex_deviant","images/simple/1.png","images/simple/3.png","images/complex/9.png,images/complex/16.png,images/complex/13.png,images/complex/10.png,images/complex/2.png,images/complex/18.png,images/complex/12.png","1","null","","200","1706.105000153184","","","","background"
"","null","html-keyboard-response","162","238908","0.0-17.0-0.21","SS1604515995769","","null","","","","","","","","","","","","<img src=images/blank.png width =""500"" height = ""500"" style=""border:5px solid black"">",""
"","647.6650000549853","stimulus-presentation","163","239763","0.0-17.0-1.21","SS1604515995769","<img src='images/simple/3.png' width ='500' height = '500' style='border:5px solid black'>","40","mixed_complex_deviant","images/simple/1.png","images/simple/3.png","images/complex/9.png,images/complex/16.png,images/complex/13.png,images/complex/10.png,images/complex/2.png,images/complex/18.png,images/complex/12.png","1","null","","200","847.6650000549853","","","","background"
"","null","html-keyboard-response","164","240885","0.0-17.0-0.22","SS1604515995769","","null","","","","","","","","","","","","<img src=images/blank.png width =""500"" height = ""500"" style=""border:5px solid black"">",""
"","1013.3050000295043","stimulus-presentation","165","242107","0.0-17.0-1.22","SS1604515995769","<img src='images/simple/3.png' width ='500' height = '500' style='border:5px solid black'>","40","mixed_complex_deviant","images/simple/1.png","images/simple/3.png","images/complex/9.png,images/complex/16.png,images/complex/13.png,images/complex/10.png,images/complex/2.png,images/complex/18.png,images/complex/12.png","1","null","","200","1213.3050000295043","","","","background"
"","null","html-keyboard-response","166","243144","0.0-17.0-0.23","SS1604515995769","","null","","","","","","","","","","","","<img src=images/blank.png width =""500"" height = ""500"" style=""border:5px solid black"">",""
"","652.4649998173118","stimulus-presentation","167","244011","0.0-17.0-1.23","SS1604515995769","<img src='images/simple/1.png' width ='500' height = '500' style='border:5px solid black'>","40","mixed_complex_deviant","images/simple/1.png","images/simple/3.png","images/complex/9.png,images/complex/16.png,images/complex/13.png,images/complex/10.png,images/complex/2.png,images/complex/18.png,images/complex/12.png","1","null","","200","852.4649998173118","","","","target"
"","null","html-keyboard-response","168","245036","0.0-17.0-0.24","SS1604515995769","","null","","","","","","","","","","","","<img src=images/blank.png width =""500"" height = ""500"" style=""border:5px solid black"">",""
"","564.5750002004206","stimulus-presentation","169","245810","0.0-17.0-1.24","SS1604515995769","<img src='images/simple/3.png' width ='500' height = '500' style='border:5px solid black'>","40","mixed_complex_deviant","images/simple/1.png","images/simple/3.png","images/complex/9.png,images/complex/16.png,images/complex/13.png,images/complex/10.png,images/complex/2.png,images/complex/18.png,images/complex/12.png","1","null","","200","764.5750002004206","","","","background"
"","null","html-keyboard-response","170","247020","0.0-17.0-0.25","SS1604515995769","","null","","","","","","","","","","","","<img src=images/blank.png width =""500"" height = ""500"" style=""border:5px solid black"">",""
"","446.32000010460615","stimulus-presentation","171","247674","0.0-17.0-1.25","SS1604515995769","<img src='images/simple/3.png' width ='500' height = '500' style='border:5px solid black'>","40","mixed_complex_deviant","images/simple/1.png","images/simple/3.png","images/complex/9.png,images/complex/16.png,images/complex/13.png,images/complex/10.png,images/complex/2.png,images/complex/18.png,images/complex/12.png","1","null","","200","646.3200001046062","","","","background"
"","null","html-keyboard-response","172","248526","0.0-17.0-0.26","SS1604515995769","","null","","","","","","","","","","","","<img src=images/blank.png width =""500"" height = ""500"" style=""border:5px solid black"">",""
"","155.62999993562698","stimulus-presentation","173","248891","0.0-17.0-1.26","SS1604515995769","<img src='images/complex/9.png' width ='500' height = '500' style='border:5px solid black'>","40","mixed_complex_deviant","images/simple/1.png","images/simple/3.png","images/complex/9.png,images/complex/16.png,images/complex/13.png,images/complex/10.png,images/complex/2.png,images/complex/18.png,images/complex/12.png","1","null","","200","355.629999935627","","","","deviant"
"","null","html-keyboard-response","174","250193","0.0-17.0-0.27","SS1604515995769","","null","","","","","","","","","","","","<img src=images/blank.png width =""500"" height = ""500"" style=""border:5px solid black"">",""
"","320.5799995921552","stimulus-presentation","175","250722","0.0-17.0-1.27","SS1604515995769","<img src='images/simple/3.png' width ='500' height = '500' style='border:5px solid black'>","40","mixed_complex_deviant","images/simple/1.png","images/simple/3.png","images/complex/9.png,images/complex/16.png,images/complex/13.png,images/complex/10.png,images/complex/2.png,images/complex/18.png,images/complex/12.png","1","null","","200","520.5799995921552","","","","background"
"","null","html-keyboard-response","176","251950","0.0-17.0-0.28","SS1604515995769","","null","","","","","","","","","","","","<img src=images/blank.png width =""500"" height = ""500"" style=""border:5px solid black"">",""
"","564.2650001682341","stimulus-presentation","177","252723","0.0-17.0-1.28","SS1604515995769","<img src='images/simple/1.png' width ='500' height = '500' style='border:5px solid black'>","40","mixed_complex_deviant","images/simple/1.png","images/simple/3.png","images/complex/9.png,images/complex/16.png,images/complex/13.png,images/complex/10.png,images/complex/2.png,images/complex/18.png,images/complex/12.png","1","null","","200","764.2650001682341","","","","target"
"","null","html-keyboard-response","178","253674","0.0-17.0-0.29","SS1604515995769","","null","","","","","","","","","","","","<img src=images/blank.png width =""500"" height = ""500"" style=""border:5px solid black"">",""
"","318.02000012248755","stimulus-presentation","179","254201","0.0-17.0-1.29","SS1604515995769","<img src='images/simple/1.png' width ='500' height = '500' style='border:5px solid black'>","40","mixed_complex_deviant","images/simple/1.png","images/simple/3.png","images/complex/9.png,images/complex/16.png,images/complex/13.png,images/complex/10.png,images/complex/2.png,images/complex/18.png,images/complex/12.png","1","null","","200","518.0200001224875","","","","target"
"","null","html-keyboard-response","180","255231","0.0-17.0-0.30","SS1604515995769","","null","","","","","","","","","","","","<img src=images/blank.png width =""500"" height = ""500"" style=""border:5px solid black"">",""
"","2728.385000023991","stimulus-presentation","181","258169","0.0-17.0-1.30","SS1604515995769","<img src='images/simple/3.png' width ='500' height = '500' style='border:5px solid black'>","40","mixed_complex_deviant","images/simple/1.png","images/simple/3.png","images/complex/9.png,images/complex/16.png,images/complex/13.png,images/complex/10.png,images/complex/2.png,images/complex/18.png,images/complex/12.png","1","null","","200","2928.385000023991","","","","background"
"","null","html-keyboard-response","182","259047","0.0-17.0-0.31","SS1604515995769","","null","","","","","","","","","","","","<img src=images/blank.png width =""500"" height = ""500"" style=""border:5px solid black"">",""
"","1232.5150002725422","stimulus-presentation","183","260489","0.0-17.0-1.31","SS1604515995769","<img src='images/simple/3.png' width ='500' height = '500' style='border:5px solid black'>","40","mixed_complex_deviant","images/simple/1.png","images/simple/3.png","images/complex/9.png,images/complex/16.png,images/complex/13.png,images/complex/10.png,images/complex/2.png,images/complex/18.png,images/complex/12.png","1","null","","200","1432.5150002725422","","","","background"
"","null","html-keyboard-response","184","261458","0.0-17.0-0.32","SS1604515995769","","null","","","","","","","","","","","","<img src=images/blank.png width =""500"" height = ""500"" style=""border:5px solid black"">",""
"","205.51500003784895","stimulus-presentation","185","261872","0.0-17.0-1.32","SS1604515995769","<img src='images/simple/3.png' width ='500' height = '500' style='border:5px solid black'>","40","mixed_complex_deviant","images/simple/1.png","images/simple/3.png","images/complex/9.png,images/complex/16.png,images/complex/13.png,images/complex/10.png,images/complex/2.png,images/complex/18.png,images/complex/12.png","1","null","","200","405.51500003784895","","","","background"
"","null","html-keyboard-response","186","263093","0.0-17.0-0.33","SS1604515995769","","null","","","","","","","","","","","","<img src=images/blank.png width =""500"" height = ""500"" style=""border:5px solid black"">",""
"","178.2450000755489","stimulus-presentation","187","263488","0.0-17.0-1.33","SS1604515995769","<img src='images/simple/3.png' width ='500' height = '500' style='border:5px solid black'>","40","mixed_complex_deviant","images/simple/1.png","images/simple/3.png","images/complex/9.png,images/complex/16.png,images/complex/13.png,images/complex/10.png,images/complex/2.png,images/complex/18.png,images/complex/12.png","1","null","","200","378.2450000755489","","","","background"
"","null","html-keyboard-response","188","264515","0.0-17.0-0.34","SS1604515995769","","null","","","","","","","","","","","","<img src=images/blank.png width =""500"" height = ""500"" style=""border:5px solid black"">",""
"","186.8850002065301","stimulus-presentation","189","264912","0.0-17.0-1.34","SS1604515995769","<img src='images/simple/1.png' width ='500' height = '500' style='border:5px solid black'>","40","mixed_complex_deviant","images/simple/1.png","images/simple/3.png","images/complex/9.png,images/complex/16.png,images/complex/13.png,images/complex/10.png,images/complex/2.png,images/complex/18.png,images/complex/12.png","1","null","","200","386.8850002065301","","","","target"
"","null","html-keyboard-response","190","266181","0.0-17.0-0.35","SS1604515995769","","null","","","","","","","","","","","","<img src=images/blank.png width =""500"" height = ""500"" style=""border:5px solid black"">",""
"","103.27500011771917","stimulus-presentation","191","266495","0.0-17.0-1.35","SS1604515995769","<img src='images/simple/1.png' width ='500' height = '500' style='border:5px solid black'>","40","mixed_complex_deviant","images/simple/1.png","images/simple/3.png","images/complex/9.png,images/complex/16.png,images/complex/13.png,images/complex/10.png,images/complex/2.png,images/complex/18.png,images/complex/12.png","1","null","","200","303.2750001177192","","","","target"
"","null","html-keyboard-response","192","267402","0.0-17.0-0.36","SS1604515995769","","null","","","","","","","","","","","","<img src=images/blank.png width =""500"" height = ""500"" style=""border:5px solid black"">",""
"","668.6350000090897","stimulus-presentation","193","268280","0.0-17.0-1.36","SS1604515995769","<img src='images/simple/3.png' width ='500' height = '500' style='border:5px solid black'>","40","mixed_complex_deviant","images/simple/1.png","images/simple/3.png","images/complex/9.png,images/complex/16.png,images/complex/13.png,images/complex/10.png,images/complex/2.png,images/complex/18.png,images/complex/12.png","1","null","","200","868.6350000090897","","","","background"
"","null","html-keyboard-response","194","269139","0.0-17.0-0.37","SS1604515995769","","null","","","","","","","","","","","","<img src=images/blank.png width =""500"" height = ""500"" style=""border:5px solid black"">",""
"","196.01499987766147","stimulus-presentation","195","269543","0.0-17.0-1.37","SS1604515995769","<img src='images/complex/10.png' width ='500' height = '500' style='border:5px solid black'>","40","mixed_complex_deviant","images/simple/1.png","images/simple/3.png","images/complex/9.png,images/complex/16.png,images/complex/13.png,images/complex/10.png,images/complex/2.png,images/complex/18.png,images/complex/12.png","1","null","","200","396.01499987766147","","","","deviant"
"","null","html-keyboard-response","196","270761","0.0-17.0-0.38","SS1604515995769","","null","","","","","","","","","","","","<img src=images/blank.png width =""500"" height = ""500"" style=""border:5px solid black"">",""
"","182.4400001205504","stimulus-presentation","197","271151","0.0-17.0-1.38","SS1604515995769","<img src='images/simple/3.png' width ='500' height = '500' style='border:5px solid black'>","40","mixed_complex_deviant","images/simple/1.png","images/simple/3.png","images/complex/9.png,images/complex/16.png,images/complex/13.png,images/complex/10.png,images/complex/2.png,images/complex/18.png,images/complex/12.png","1","null","","200","382.4400001205504","","","","background"
"","null","html-keyboard-response","198","272284","0.0-17.0-0.39","SS1604515995769","","null","","","","","","","","","","","","<img src=images/blank.png width =""500"" height = ""500"" style=""border:5px solid black"">",""
"","146.49999979883432","stimulus-presentation","199","272639","0.0-17.0-1.39","SS1604515995769","<img src='images/simple/3.png' width ='500' height = '500' style='border:5px solid black'>","40","mixed_complex_deviant","images/simple/1.png","images/simple/3.png","images/complex/9.png,images/complex/16.png,images/complex/13.png,images/complex/10.png,images/complex/2.png,images/complex/18.png,images/complex/12.png","1","null","","200","346.4999997988343","","","","background"
"","null","html-keyboard-response","200","273756","0.0-17.0-0.40","SS1604515995769","","null","","","","","","","","","","","","<img src=images/blank.png width =""500"" height = ""500"" style=""border:5px solid black"">",""
"","242.74499993771315","stimulus-presentation","201","274216","0.0-17.0-1.40","SS1604515995769","<img src='images/simple/3.png' width ='500' height = '500' style='border:5px solid black'>","40","mixed_complex_deviant","images/simple/1.png","images/simple/3.png","images/complex/9.png,images/complex/16.png,images/complex/13.png,images/complex/10.png,images/complex/2.png,images/complex/18.png,images/complex/12.png","1","null","","200","442.74499993771315","","","","background"
"","null","html-keyboard-response","202","275242","0.0-17.0-0.41","SS1604515995769","","null","","","","","","","","","","","","<img src=images/blank.png width =""500"" height = ""500"" style=""border:5px solid black"">",""
"","162.8450001589954","stimulus-presentation","203","275614","0.0-17.0-1.41","SS1604515995769","<img src='images/simple/3.png' width ='500' height = '500' style='border:5px solid black'>","40","mixed_complex_deviant","images/simple/1.png","images/simple/3.png","images/complex/9.png,images/complex/16.png,images/complex/13.png,images/complex/10.png,images/complex/2.png,images/complex/18.png,images/complex/12.png","1","null","","200","362.8450001589954","","","","background"
"","null","html-keyboard-response","204","276859","0.0-17.0-0.42","SS1604515995769","","null","","","","","","","","","","","","<img src=images/blank.png width =""500"" height = ""500"" style=""border:5px solid black"">",""
"","97.62499993667006","stimulus-presentation","205","277166","0.0-17.0-1.42","SS1604515995769","<img src='images/simple/3.png' width ='500' height = '500' style='border:5px solid black'>","40","mixed_complex_deviant","images/simple/1.png","images/simple/3.png","images/complex/9.png,images/complex/16.png,images/complex/13.png,images/complex/10.png,images/complex/2.png,images/complex/18.png,images/complex/12.png","1","null","","200","297.62499993667006","","","","background"
"","null","html-keyboard-response","206","278270","0.0-17.0-0.43","SS1604515995769","","null","","","","","","","","","","","","<img src=images/blank.png width =""500"" height = ""500"" style=""border:5px solid black"">",""
"","342.8199999034405","stimulus-presentation","207","278823","0.0-17.0-1.43","SS1604515995769","<img src='images/simple/3.png' width ='500' height = '500' style='border:5px solid black'>","40","mixed_complex_deviant","images/simple/1.png","images/simple/3.png","images/complex/9.png,images/complex/16.png,images/complex/13.png,images/complex/10.png,images/complex/2.png,images/complex/18.png,images/complex/12.png","1","null","","200","542.8199999034405","","","","background"
"","null","html-keyboard-response","208","280062","0.0-17.0-0.44","SS1604515995769","","null","","","","","","","","","","","","<img src=images/blank.png width =""500"" height = ""500"" style=""border:5px solid black"">",""
"","1518.5549999587238","stimulus-presentation","209","281790","0.0-17.0-1.44","SS1604515995769","<img src='images/simple/1.png' width ='500' height = '500' style='border:5px solid black'>","40","mixed_complex_deviant","images/simple/1.png","images/simple/3.png","images/complex/9.png,images/complex/16.png,images/complex/13.png,images/complex/10.png,images/complex/2.png,images/complex/18.png,images/complex/12.png","1","null","","200","1718.5549999587238","","","","target"
"","null","html-keyboard-response","210","283008","0.0-17.0-0.45","SS1604515995769","","null","","","","","","","","","","","","<img src=images/blank.png width =""500"" height = ""500"" style=""border:5px solid black"">",""
"","1170.6099999137223","stimulus-presentation","211","284390","0.0-17.0-1.45","SS1604515995769","<img src='images/simple/3.png' width ='500' height = '500' style='border:5px solid black'>","40","mixed_complex_deviant","images/simple/1.png","images/simple/3.png","images/complex/9.png,images/complex/16.png,images/complex/13.png,images/complex/10.png,images/complex/2.png,images/complex/18.png,images/complex/12.png","1","null","","200","1370.6099999137223","","","","background"
"","null","html-keyboard-response","212","285575","0.0-17.0-0.46","SS1604515995769","","null","","","","","","","","","","","","<img src=images/blank.png width =""500"" height = ""500"" style=""border:5px solid black"">",""
"","202.9850003309548","stimulus-presentation","213","285989","0.0-17.0-1.46","SS1604515995769","<img src='images/complex/18.png' width ='500' height = '500' style='border:5px solid black'>","40","mixed_complex_deviant","images/simple/1.png","images/simple/3.png","images/complex/9.png,images/complex/16.png,images/complex/13.png,images/complex/10.png,images/complex/2.png,images/complex/18.png,images/complex/12.png","1","null","","200","402.9850003309548","","","","deviant"
"","null","html-keyboard-response","214","287037","0.0-17.0-0.47","SS1604515995769","","null","","","","","","","","","","","","<img src=images/blank.png width =""500"" height = ""500"" style=""border:5px solid black"">",""
"","268.5099998489022","stimulus-presentation","215","287516","0.0-17.0-1.47","SS1604515995769","<img src='images/simple/3.png' width ='500' height = '500' style='border:5px solid black'>","40","mixed_complex_deviant","images/simple/1.png","images/simple/3.png","images/complex/9.png,images/complex/16.png,images/complex/13.png,images/complex/10.png,images/complex/2.png,images/complex/18.png,images/complex/12.png","1","null","","200","468.5099998489022","","","","background"
"","null","html-keyboard-response","216","288537","0.0-17.0-0.48","SS1604515995769","","null","","","","","","","","","","","","<img src=images/blank.png width =""500"" height = ""500"" style=""border:5px solid black"">",""
"","241.0249998793006","stimulus-presentation","217","288990","0.0-17.0-1.48","SS1604515995769","<img src='images/simple/3.png' width ='500' height = '500' style='border:5px solid black'>","40","mixed_complex_deviant","images/simple/1.png","images/simple/3.png","images/complex/9.png,images/complex/16.png,images/complex/13.png,images/complex/10.png,images/complex/2.png,images/complex/18.png,images/complex/12.png","1","null","","200","441.0249998793006","","","","background"
"[{""page_index"":0,""viewing_time"":2480}]","2481","task-instructions","218","291488","0.0-18.0","SS1604515995769","","","","","","","","","","","","","","",""
"[{""page_index"":0,""viewing_time"":1615.2200000360608},{""page_index"":1,""viewing_time"":4391.139999963343},{""page_index"":2,""viewing_time"":1428.844999987632}]","7436.085000168532","instructions","219","298934","0.0-19.0","SS1604515995769","","","","","","","","","","","","","","",""
"","null","html-keyboard-response","220","299796","0.0-20.0-0.0","SS1604515995769","","null","","","","","","","","","","","","<img src=images/blank.png width =""500"" height = ""500"" style=""border:5px solid black"">",""
"","453.21499975398183","stimulus-presentation","221","300460","0.0-20.0-1.0","SS1604515995769","<img src='images/simple/15.png' width ='500' height = '500' style='border:5px solid black'>","40","all_simple","images/simple/10.png","images/simple/12.png","images/simple/14.png,images/simple/18.png,images/simple/6.png,images/simple/2.png,images/simple/11.png,images/simple/15.png,images/simple/16.png","2","null","","200","653.2149997539818","","","","deviant"
"","null","html-keyboard-response","222","301314","0.0-20.0-0.1","SS1604515995769","","null","","","","","","","","","","","","<img src=images/blank.png width =""500"" height = ""500"" style=""border:5px solid black"">",""
"","302.91999969631433","stimulus-presentation","223","301828","0.0-20.0-1.1","SS1604515995769","<img src='images/simple/12.png' width ='500' height = '500' style='border:5px solid black'>","40","all_simple","images/simple/10.png","images/simple/12.png","images/simple/14.png,images/simple/18.png,images/simple/6.png,images/simple/2.png,images/simple/11.png,images/simple/15.png,images/simple/16.png","2","null","","200","502.91999969631433","","","","background"
"","null","html-keyboard-response","224","302882","0.0-20.0-0.2","SS1604515995769","","null","","","","","","","","","","","","<img src=images/blank.png width =""500"" height = ""500"" style=""border:5px solid black"">",""
"","432.33999982476234","stimulus-presentation","225","303524","0.0-20.0-1.2","SS1604515995769","<img src='images/simple/12.png' width ='500' height = '500' style='border:5px solid black'>","40","all_simple","images/simple/10.png","images/simple/12.png","images/simple/14.png,images/simple/18.png,images/simple/6.png,images/simple/2.png,images/simple/11.png,images/simple/15.png,images/simple/16.png","2","null","","200","632.3399998247623","","","","background"
"","null","html-keyboard-response","226","304475","0.0-20.0-0.3","SS1604515995769","","null","","","","","","","","","","","","<img src=images/blank.png width =""500"" height = ""500"" style=""border:5px solid black"">",""
"","476.95000004023314","stimulus-presentation","227","305171","0.0-20.0-1.3","SS1604515995769","<img src='images/simple/12.png' width ='500' height = '500' style='border:5px solid black'>","40","all_simple","images/simple/10.png","images/simple/12.png","images/simple/14.png,images/simple/18.png,images/simple/6.png,images/simple/2.png,images/simple/11.png,images/simple/15.png,images/simple/16.png","2","null","","200","676.9500000402331","","","","background"
"","null","html-keyboard-response","228","306015","0.0-20.0-0.4","SS1604515995769","","null","","","","","","","","","","","","<img src=images/blank.png width =""500"" height = ""500"" style=""border:5px solid black"">",""
"","459.04000010341406","stimulus-presentation","229","306683","0.0-20.0-1.4","SS1604515995769","<img src='images/simple/16.png' width ='500' height = '500' style='border:5px solid black'>","40","all_simple","images/simple/10.png","images/simple/12.png","images/simple/14.png,images/simple/18.png,images/simple/6.png,images/simple/2.png,images/simple/11.png,images/simple/15.png,images/simple/16.png","2","null","","200","659.0400001034141","","","","deviant"
"","null","html-keyboard-response","230","307556","0.0-20.0-0.5","SS1604515995769","","null","","","","","","","","","","","","<img src=images/blank.png width =""500"" height = ""500"" style=""border:5px solid black"">",""
"","565.5449996702373","stimulus-presentation","231","308331","0.0-20.0-1.5","SS1604515995769","<img src='images/simple/12.png' width ='500' height = '500' style='border:5px solid black'>","40","all_simple","images/simple/10.png","images/simple/12.png","images/simple/14.png,images/simple/18.png,images/simple/6.png,images/simple/2.png,images/simple/11.png,images/simple/15.png,images/simple/16.png","2","null","","200","765.5449996702373","","","","background"
"","null","html-keyboard-response","232","309630","0.0-20.0-0.6","SS1604515995769","","null","","","","","","","","","","","","<img src=images/blank.png width =""500"" height = ""500"" style=""border:5px solid black"">",""
"","474.4800003245473","stimulus-presentation","233","310323","0.0-20.0-1.6","SS1604515995769","<img src='images/simple/12.png' width ='500' height = '500' style='border:5px solid black'>","40","all_simple","images/simple/10.png","images/simple/12.png","images/simple/14.png,images/simple/18.png,images/simple/6.png,images/simple/2.png,images/simple/11.png,images/simple/15.png,images/simple/16.png","2","null","","200","674.4800003245473","","","","background"
"","null","html-keyboard-response","234","311506","0.0-20.0-0.7","SS1604515995769","","null","","","","","","","","","","","","<img src=images/blank.png width =""500"" height = ""500"" style=""border:5px solid black"">",""
"","646.9100001268089","stimulus-presentation","235","312362","0.0-20.0-1.7","SS1604515995769","<img src='images/simple/12.png' width ='500' height = '500' style='border:5px solid black'>","40","all_simple","images/simple/10.png","images/simple/12.png","images/simple/14.png,images/simple/18.png,images/simple/6.png,images/simple/2.png,images/simple/11.png,images/simple/15.png,images/simple/16.png","2","null","","200","846.9100001268089","","","","background"
"","null","html-keyboard-response","236","313405","0.0-20.0-0.8","SS1604515995769","","null","","","","","","","","","","","","<img src=images/blank.png width =""500"" height = ""500"" style=""border:5px solid black"">",""
"","237.43500001728535","stimulus-presentation","237","313852","0.0-20.0-1.8","SS1604515995769","<img src='images/simple/12.png' width ='500' height = '500' style='border:5px solid black'>","40","all_simple","images/simple/10.png","images/simple/12.png","images/simple/14.png,images/simple/18.png,images/simple/6.png,images/simple/2.png,images/simple/11.png,images/simple/15.png,images/simple/16.png","2","null","","200","437.43500001728535","","","","background"
"","null","html-keyboard-response","238","315127","0.0-20.0-0.9","SS1604515995769","","null","","","","","","","","","","","","<img src=images/blank.png width =""500"" height = ""500"" style=""border:5px solid black"">",""
"","217.2400001436472","stimulus-presentation","239","315554","0.0-20.0-1.9","SS1604515995769","<img src='images/simple/12.png' width ='500' height = '500' style='border:5px solid black'>","40","all_simple","images/simple/10.png","images/simple/12.png","images/simple/14.png,images/simple/18.png,images/simple/6.png,images/simple/2.png,images/simple/11.png,images/simple/15.png,images/simple/16.png","2","null","","200","417.2400001436472","","","","background"
"","null","html-keyboard-response","240","316719","0.0-20.0-0.10","SS1604515995769","","null","","","","","","","","","","","","<img src=images/blank.png width =""500"" height = ""500"" style=""border:5px solid black"">",""
"","272.9799998924136","stimulus-presentation","241","317201","0.0-20.0-1.10","SS1604515995769","<img src='images/simple/12.png' width ='500' height = '500' style='border:5px solid black'>","40","all_simple","images/simple/10.png","images/simple/12.png","images/simple/14.png,images/simple/18.png,images/simple/6.png,images/simple/2.png,images/simple/11.png,images/simple/15.png,images/simple/16.png","2","null","","200","472.9799998924136","","","","background"
"","null","html-keyboard-response","242","318472","0.0-20.0-0.11","SS1604515995769","","null","","","","","","","","","","","","<img src=images/blank.png width =""500"" height = ""500"" style=""border:5px solid black"">",""
"","264.54500015825033","stimulus-presentation","243","318947","0.0-20.0-1.11","SS1604515995769","<img src='images/simple/12.png' width ='500' height = '500' style='border:5px solid black'>","40","all_simple","images/simple/10.png","images/simple/12.png","images/simple/14.png,images/simple/18.png,images/simple/6.png,images/simple/2.png,images/simple/11.png,images/simple/15.png,images/simple/16.png","2","null","","200","464.54500015825033","","","","background"
"","null","html-keyboard-response","244","320259","0.0-20.0-0.12","SS1604515995769","","null","","","","","","","","","","","","<img src=images/blank.png width =""500"" height = ""500"" style=""border:5px solid black"">",""
"","296.26999981701374","stimulus-presentation","245","320769","0.0-20.0-1.12","SS1604515995769","<img src='images/simple/10.png' width ='500' height = '500' style='border:5px solid black'>","40","all_simple","images/simple/10.png","images/simple/12.png","images/simple/14.png,images/simple/18.png,images/simple/6.png,images/simple/2.png,images/simple/11.png,images/simple/15.png,images/simple/16.png","2","null","","200","496.26999981701374","","","","target"
"","null","html-keyboard-response","246","321690","0.0-20.0-0.13","SS1604515995769","","null","","","","","","","","","","","","<img src=images/blank.png width =""500"" height = ""500"" style=""border:5px solid black"">",""
"","427.0449997857213","stimulus-presentation","247","322329","0.0-20.0-1.13","SS1604515995769","<img src='images/simple/6.png' width ='500' height = '500' style='border:5px solid black'>","40","all_simple","images/simple/10.png","images/simple/12.png","images/simple/14.png,images/simple/18.png,images/simple/6.png,images/simple/2.png,images/simple/11.png,images/simple/15.png,images/simple/16.png","2","null","","200","627.0449997857213","","","","deviant"
"","null","html-keyboard-response","248","323234","0.0-20.0-0.14","SS1604515995769","","null","","","","","","","","","","","","<img src=images/blank.png width =""500"" height = ""500"" style=""border:5px solid black"">",""
"","284.9299996159971","stimulus-presentation","249","323729","0.0-20.0-1.14","SS1604515995769","<img src='images/simple/12.png' width ='500' height = '500' style='border:5px solid black'>","40","all_simple","images/simple/10.png","images/simple/12.png","images/simple/14.png,images/simple/18.png,images/simple/6.png,images/simple/2.png,images/simple/11.png,images/simple/15.png,images/simple/16.png","2","null","","200","484.9299996159971","","","","background"
"","null","html-keyboard-response","250","324659","0.0-20.0-0.15","SS1604515995769","","null","","","","","","","","","","","","<img src=images/blank.png width =""500"" height = ""500"" style=""border:5px solid black"">",""
"","1404.0749999694526","stimulus-presentation","251","326273","0.0-20.0-1.15","SS1604515995769","<img src='images/simple/12.png' width ='500' height = '500' style='border:5px solid black'>","40","all_simple","images/simple/10.png","images/simple/12.png","images/simple/14.png,images/simple/18.png,images/simple/6.png,images/simple/2.png,images/simple/11.png,images/simple/15.png,images/simple/16.png","2","null","","200","1604.0749999694526","","","","background"
"","null","html-keyboard-response","252","327471","0.0-20.0-0.16","SS1604515995769","","null","","","","","","","","","","","","<img src=images/blank.png width =""500"" height = ""500"" style=""border:5px solid black"">",""
"","390.6749999150634","stimulus-presentation","253","328072","0.0-20.0-1.16","SS1604515995769","<img src='images/simple/12.png' width ='500' height = '500' style='border:5px solid black'>","40","all_simple","images/simple/10.png","images/simple/12.png","images/simple/14.png,images/simple/18.png,images/simple/6.png,images/simple/2.png,images/simple/11.png,images/simple/15.png,images/simple/16.png","2","null","","200","590.6749999150634","","","","background"
"","null","html-keyboard-response","254","329370","0.0-20.0-0.17","SS1604515995769","","null","","","","","","","","","","","","<img src=images/blank.png width =""500"" height = ""500"" style=""border:5px solid black"">",""
"","235.53000018000603","stimulus-presentation","255","329816","0.0-20.0-1.17","SS1604515995769","<img src='images/simple/12.png' width ='500' height = '500' style='border:5px solid black'>","40","all_simple","images/simple/10.png","images/simple/12.png","images/simple/14.png,images/simple/18.png,images/simple/6.png,images/simple/2.png,images/simple/11.png,images/simple/15.png,images/simple/16.png","2","null","","200","435.530000180006","","","","background"
"","null","html-keyboard-response","256","330840","0.0-20.0-0.18","SS1604515995769","","null","","","","","","","","","","","","<img src=images/blank.png width =""500"" height = ""500"" style=""border:5px solid black"">",""
"","245.23499980568886","stimulus-presentation","257","331295","0.0-20.0-1.18","SS1604515995769","<img src='images/simple/12.png' width ='500' height = '500' style='border:5px solid black'>","40","all_simple","images/simple/10.png","images/simple/12.png","images/simple/14.png,images/simple/18.png,images/simple/6.png,images/simple/2.png,images/simple/11.png,images/simple/15.png,images/simple/16.png","2","null","","200","445.23499980568886","","","","background"
"","null","html-keyboard-response","258","332280","0.0-20.0-0.19","SS1604515995769","","null","","","","","","","","","","","","<img src=images/blank.png width =""500"" height = ""500"" style=""border:5px solid black"">",""
"","626.9149999134243","stimulus-presentation","259","333119","0.0-20.0-1.19","SS1604515995769","<img src='images/simple/2.png' width ='500' height = '500' style='border:5px solid black'>","40","all_simple","images/simple/10.png","images/simple/12.png","images/simple/14.png,images/simple/18.png,images/simple/6.png,images/simple/2.png,images/simple/11.png,images/simple/15.png,images/simple/16.png","2","null","","200","826.9149999134243","","","","deviant"
"","null","html-keyboard-response","260","334161","0.0-20.0-0.20","SS1604515995769","","null","","","","","","","","","","","","<img src=images/blank.png width =""500"" height = ""500"" style=""border:5px solid black"">",""
"","1026.5500000678003","stimulus-presentation","261","335407","0.0-20.0-1.20","SS1604515995769","<img src='images/simple/12.png' width ='500' height = '500' style='border:5px solid black'>","40","all_simple","images/simple/10.png","images/simple/12.png","images/simple/14.png,images/simple/18.png,images/simple/6.png,images/simple/2.png,images/simple/11.png,images/simple/15.png,images/simple/16.png","2","null","","200","1226.5500000678003","","","","background"
"","null","html-keyboard-response","262","336534","0.0-20.0-0.21","SS1604515995769","","null","","","","","","","","","","","","<img src=images/blank.png width =""500"" height = ""500"" style=""border:5px solid black"">",""
"","775.8349999785423","stimulus-presentation","263","337519","0.0-20.0-1.21","SS1604515995769","<img src='images/simple/12.png' width ='500' height = '500' style='border:5px solid black'>","40","all_simple","images/simple/10.png","images/simple/12.png","images/simple/14.png,images/simple/18.png,images/simple/6.png,images/simple/2.png,images/simple/11.png,images/simple/15.png,images/simple/16.png","2","null","","200","975.8349999785423","","","","background"
"","null","html-keyboard-response","264","338699","0.0-20.0-0.22","SS1604515995769","","null","","","","","","","","","","","","<img src=images/blank.png width =""500"" height = ""500"" style=""border:5px solid black"">",""
"","544.4299997761846","stimulus-presentation","265","339454","0.0-20.0-1.22","SS1604515995769","<img src='images/simple/12.png' width ='500' height = '500' style='border:5px solid black'>","40","all_simple","images/simple/10.png","images/simple/12.png","images/simple/14.png,images/simple/18.png,images/simple/6.png,images/simple/2.png,images/simple/11.png,images/simple/15.png,images/simple/16.png","2","null","","200","744.4299997761846","","","","background"
"","null","html-keyboard-response","266","340511","0.0-20.0-0.23","SS1604515995769","","null","","","","","","","","","","","","<img src=images/blank.png width =""500"" height = ""500"" style=""border:5px solid black"">",""
"","427.3900003172457","stimulus-presentation","267","341150","0.0-20.0-1.23","SS1604515995769","<img src='images/simple/10.png' width ='500' height = '500' style='border:5px solid black'>","40","all_simple","images/simple/10.png","images/simple/12.png","images/simple/14.png,images/simple/18.png,images/simple/6.png,images/simple/2.png,images/simple/11.png,images/simple/15.png,images/simple/16.png","2","null","","200","627.3900003172457","","","","target"
"","null","html-keyboard-response","268","342044","0.0-20.0-0.24","SS1604515995769","","null","","","","","","","","","","","","<img src=images/blank.png width =""500"" height = ""500"" style=""border:5px solid black"">",""
"","502.040000166744","stimulus-presentation","269","342758","0.0-20.0-1.24","SS1604515995769","<img src='images/simple/10.png' width ='500' height = '500' style='border:5px solid black'>","40","all_simple","images/simple/10.png","images/simple/12.png","images/simple/14.png,images/simple/18.png,images/simple/6.png,images/simple/2.png,images/simple/11.png,images/simple/15.png,images/simple/16.png","2","null","","200","702.040000166744","","","","target"
"","null","html-keyboard-response","270","343790","0.0-20.0-0.25","SS1604515995769","","null","","","","","","","","","","","","<img src=images/blank.png width =""500"" height = ""500"" style=""border:5px solid black"">",""
"","538.5349998250604","stimulus-presentation","271","344549","0.0-20.0-1.25","SS1604515995769","<img src='images/simple/18.png' width ='500' height = '500' style='border:5px solid black'>","40","all_simple","images/simple/10.png","images/simple/12.png","images/simple/14.png,images/simple/18.png,images/simple/6.png,images/simple/2.png,images/simple/11.png,images/simple/15.png,images/simple/16.png","2","null","","200","738.5349998250604","","","","deviant"
"","null","html-keyboard-response","272","345632","0.0-20.0-0.26","SS1604515995769","","null","","","","","","","","","","","","<img src=images/blank.png width =""500"" height = ""500"" style=""border:5px solid black"">",""
"","842.414999846369","stimulus-presentation","273","346685","0.0-20.0-1.26","SS1604515995769","<img src='images/simple/12.png' width ='500' height = '500' style='border:5px solid black'>","40","all_simple","images/simple/10.png","images/simple/12.png","images/simple/14.png,images/simple/18.png,images/simple/6.png,images/simple/2.png,images/simple/11.png,images/simple/15.png,images/simple/16.png","2","null","","200","1042.414999846369","","","","background"
"","null","html-keyboard-response","274","347714","0.0-20.0-0.27","SS1604515995769","","null","","","","","","","","","","","","<img src=images/blank.png width =""500"" height = ""500"" style=""border:5px solid black"">",""
"","305.6850000284612","stimulus-presentation","275","348230","0.0-20.0-1.27","SS1604515995769","<img src='images/simple/12.png' width ='500' height = '500' style='border:5px solid black'>","40","all_simple","images/simple/10.png","images/simple/12.png","images/simple/14.png,images/simple/18.png,images/simple/6.png,images/simple/2.png,images/simple/11.png,images/simple/15.png,images/simple/16.png","2","null","","200","505.6850000284612","","","","background"
"","null","html-keyboard-response","276","349479","0.0-20.0-0.28","SS1604515995769","","null","","","","","","","","","","","","<img src=images/blank.png width =""500"" height = ""500"" style=""border:5px solid black"">",""
"","371.7300002463162","stimulus-presentation","277","350061","0.0-20.0-1.28","SS1604515995769","<img src='images/simple/12.png' width ='500' height = '500' style='border:5px solid black'>","40","all_simple","images/simple/10.png","images/simple/12.png","images/simple/14.png,images/simple/18.png,images/simple/6.png,images/simple/2.png,images/simple/11.png,images/simple/15.png,images/simple/16.png","2","null","","200","571.7300002463162","","","","background"
"","null","html-keyboard-response","278","350978","0.0-20.0-0.29","SS1604515995769","","null","","","","","","","","","","","","<img src=images/blank.png width =""500"" height = ""500"" style=""border:5px solid black"">",""
"","384.3700001016259","stimulus-presentation","279","351572","0.0-20.0-1.29","SS1604515995769","<img src='images/simple/12.png' width ='500' height = '500' style='border:5px solid black'>","40","all_simple","images/simple/10.png","images/simple/12.png","images/simple/14.png,images/simple/18.png,images/simple/6.png,images/simple/2.png,images/simple/11.png,images/simple/15.png,images/simple/16.png","2","null","","200","584.3700001016259","","","","background"
"","null","html-keyboard-response","280","352646","0.0-20.0-0.30","SS1604515995769","","null","","","","","","","","","","","","<img src=images/blank.png width =""500"" height = ""500"" style=""border:5px solid black"">",""
"","524.0350002422929","stimulus-presentation","281","353380","0.0-20.0-1.30","SS1604515995769","<img src='images/simple/10.png' width ='500' height = '500' style='border:5px solid black'>","40","all_simple","images/simple/10.png","images/simple/12.png","images/simple/14.png,images/simple/18.png,images/simple/6.png,images/simple/2.png,images/simple/11.png,images/simple/15.png,images/simple/16.png","2","null","","200","724.0350002422929","","","","target"
"","null","html-keyboard-response","282","354634","0.0-20.0-0.31","SS1604515995769","","null","","","","","","","","","","","","<img src=images/blank.png width =""500"" height = ""500"" style=""border:5px solid black"">",""
"","1828.5749997012317","stimulus-presentation","283","356684","0.0-20.0-1.31","SS1604515995769","<img src='images/simple/11.png' width ='500' height = '500' style='border:5px solid black'>","40","all_simple","images/simple/10.png","images/simple/12.png","images/simple/14.png,images/simple/18.png,images/simple/6.png,images/simple/2.png,images/simple/11.png,images/simple/15.png,images/simple/16.png","2","null","","200","2028.5749997012317","","","","deviant"
"","null","html-keyboard-response","284","357957","0.0-20.0-0.32","SS1604515995769","","null","","","","","","","","","","","","<img src=images/blank.png width =""500"" height = ""500"" style=""border:5px solid black"">",""
"","308.99500008672476","stimulus-presentation","285","358476","0.0-20.0-1.32","SS1604515995769","<img src='images/simple/12.png' width ='500' height = '500' style='border:5px solid black'>","40","all_simple","images/simple/10.png","images/simple/12.png","images/simple/14.png,images/simple/18.png,images/simple/6.png,images/simple/2.png,images/simple/11.png,images/simple/15.png,images/simple/16.png","2","null","","200","508.99500008672476","","","","background"
"","null","html-keyboard-response","286","359652","0.0-20.0-0.33","SS1604515995769","","null","","","","","","","","","","","","<img src=images/blank.png width =""500"" height = ""500"" style=""border:5px solid black"">",""
"","327.55000004544854","stimulus-presentation","287","360205","0.0-20.0-1.33","SS1604515995769","<img src='images/simple/12.png' width ='500' height = '500' style='border:5px solid black'>","40","all_simple","images/simple/10.png","images/simple/12.png","images/simple/14.png,images/simple/18.png,images/simple/6.png,images/simple/2.png,images/simple/11.png,images/simple/15.png,images/simple/16.png","2","null","","200","527.5500000454485","","","","background"
"","null","html-keyboard-response","288","361202","0.0-20.0-0.34","SS1604515995769","","null","","","","","","","","","","","","<img src=images/blank.png width =""500"" height = ""500"" style=""border:5px solid black"">",""
"","645.4199999570847","stimulus-presentation","289","362059","0.0-20.0-1.34","SS1604515995769","<img src='images/simple/12.png' width ='500' height = '500' style='border:5px solid black'>","40","all_simple","images/simple/10.png","images/simple/12.png","images/simple/14.png,images/simple/18.png,images/simple/6.png,images/simple/2.png,images/simple/11.png,images/simple/15.png,images/simple/16.png","2","null","","200","845.4199999570847","","","","background"
"","null","html-keyboard-response","290","363364","0.0-20.0-0.35","SS1604515995769","","null","","","","","","","","","","","","<img src=images/blank.png width =""500"" height = ""500"" style=""border:5px solid black"">",""
