"view_history","rt","trial_type","trial_index","time_elapsed","internal_node_id","subject","trial_stimulus","key_press","task_type","task_target_stimulus","task_background_stimulus","task_deviant_stimuli","task_order_number","block_order_number","trial_order_number","minimum_viewing_duration","trial_looking_time","trial_pressed_space_bar","trial_space_bar_rt","stimulus","trial_stimulus_type","responses","question_order"
"[{""page_index"":0,""viewing_time"":2001.5300000086427}]","2002.0200000144541","instructions","0","2009","0.0-0.0","SS1604513254023","","","","","","","","","","","","","","","","",""
"[{""page_index"":0,""viewing_time"":3009.5650000148453},{""page_index"":1,""viewing_time"":1743.1700000015553},{""page_index"":2,""viewing_time"":2509.0649999910966},{""page_index"":3,""viewing_time"":3563.9899999951012},{""page_index"":4,""viewing_time"":2755.2250000007916},{""page_index"":5,""viewing_time"":4393.215000018245},{""page_index"":6,""viewing_time"":1135.7799999823328},{""page_index"":7,""viewing_time"":2593.0999999982305},{""page_index"":8,""viewing_time"":1174.5499999960884}]","22878.040000010515","instructions","1","24890","0.0-1.0","SS1604513254023","","","","","","","","","","","","","","","","",""
"[{""page_index"":0,""viewing_time"":1873.9349999814294},{""page_index"":1,""viewing_time"":5551.970000000438},{""page_index"":2,""viewing_time"":993.994999997085}]","8420.304999977816","instructions","2","33313","0.0-2.0","SS1604513254023","","","","","","","","","","","","","","","","",""
"","1663.555000006454","practice-block","3","35183","0.0-3.0","SS1604513254023","<img src='images/practice/practice_background.jpeg' width ='500' height = '500' style='border:5px solid black'>","40","null","images/practice/practice_target.jpg","null","null","null","null","","200","1863.555000006454","","","","","",""
"","null","html-keyboard-response","4","36368","0.0-4.0","SS1604513254023","","null","","","","","","","","","","","","<img src=images/blank.png width =""500"" height = ""500"" style=""border:5px solid black"">","","",""
"","121.44000001717359","practice-block","5","36695","0.0-5.0","SS1604513254023","<img src='images/practice/practice_background.jpeg' width ='500' height = '500' style='border:5px solid black'>","40","null","images/practice/practice_target.jpg","null","null","null","null","","200","321.4400000171736","","","","","",""
"","null","html-keyboard-response","6","37533","0.0-6.0","SS1604513254023","","null","","","","","","","","","","","","<img src=images/blank.png width =""500"" height = ""500"" style=""border:5px solid black"">","","",""
"","733.6599999980535","practice-block","7","38471","0.0-7.0","SS1604513254023","<img src='images/practice/practice_deviant.jpeg' width ='500' height = '500' style='border:5px solid black'>","40","null","images/practice/practice_target.jpg","null","null","null","null","","200","933.6599999980535","","","","","",""
"","null","html-keyboard-response","8","39766","0.0-8.0","SS1604513254023","","null","","","","","","","","","","","","<img src=images/blank.png width =""500"" height = ""500"" style=""border:5px solid black"">","","",""
"","2081.6800000029616","practice-block","9","42055","0.0-9.0-0.0","SS1604513254023","<img src='images/practice/practice_target.jpg' width ='500' height = '500' style='border:5px solid black'>","40","null","images/practice/practice_target.jpg","null","null","null","null","","200","2281.6800000029616","yes","217.4349999986589","","","",""
"","null","html-keyboard-response","10","42876","0.0-10.0","SS1604513254023","","null","","","","","","","","","","","","<img src=images/blank.png width =""500"" height = ""500"" style=""border:5px solid black"">","","",""
"","73.99499998427927","practice-block","11","43153","0.0-11.0","SS1604513254023","<img src='images/practice/practice_background.jpeg' width ='500' height = '500' style='border:5px solid black'>","40","null","images/practice/practice_target.jpg","null","null","null","null","","200","273.9949999842793","","","","","",""
"[{""page_index"":0,""viewing_time"":2622}]","2622","task-instructions","12","45778","0.0-12.0","SS1604513254023","","","","","","","","","","","","","","","","",""
"[{""page_index"":0,""viewing_time"":1865.5950000102166},{""page_index"":1,""viewing_time"":3391.6599999938626},{""page_index"":2,""viewing_time"":1369.3199999979697}]","6627.110000001267","instructions","13","52408","0.0-13.0","SS1604513254023","","","","","","","","","","","","","","","","",""
"","null","html-keyboard-response","14","53218","0.0-14.0-0.0","SS1604513254023","","null","","","","","","","","","","","","<img src=images/blank.png width =""500"" height = ""500"" style=""border:5px solid black"">","","",""
"","561.9550000119489","stimulus-presentation","15","53993","0.0-14.0-1.0","SS1604513254023","<img src='images/complex/4.png' width ='500' height = '500' style='border:5px solid black'>","40","all_complex","images/complex/1.png","images/complex/4.png","images/complex/3.png,images/complex/8.png,images/complex/10.png,images/complex/6.png,images/complex/12.png,images/complex/17.png,images/complex/14.png","0","null","","200","761.9550000119489","","","","background","",""
"","null","html-keyboard-response","16","54950","0.0-14.0-0.1","SS1604513254023","","null","","","","","","","","","","","","<img src=images/blank.png width =""500"" height = ""500"" style=""border:5px solid black"">","","",""
"","91.03499999037012","stimulus-presentation","17","55246","0.0-14.0-1.1","SS1604513254023","<img src='images/complex/4.png' width ='500' height = '500' style='border:5px solid black'>","40","all_complex","images/complex/1.png","images/complex/4.png","images/complex/3.png,images/complex/8.png,images/complex/10.png,images/complex/6.png,images/complex/12.png,images/complex/17.png,images/complex/14.png","0","null","","200","291.0349999903701","","","","background","",""
"","null","html-keyboard-response","18","56363","0.0-14.0-0.2","SS1604513254023","","null","","","","","","","","","","","","<img src=images/blank.png width =""500"" height = ""500"" style=""border:5px solid black"">","","",""
"","92.71999998600222","stimulus-presentation","19","56663","0.0-14.0-1.2","SS1604513254023","<img src='images/complex/4.png' width ='500' height = '500' style='border:5px solid black'>","40","all_complex","images/complex/1.png","images/complex/4.png","images/complex/3.png,images/complex/8.png,images/complex/10.png,images/complex/6.png,images/complex/12.png,images/complex/17.png,images/complex/14.png","0","null","","200","292.7199999860022","","","","background","",""
"","null","html-keyboard-response","20","57725","0.0-14.0-0.3","SS1604513254023","","null","","","","","","","","","","","","<img src=images/blank.png width =""500"" height = ""500"" style=""border:5px solid black"">","","",""
"","133.13000000198372","stimulus-presentation","21","58063","0.0-14.0-1.3","SS1604513254023","<img src='images/complex/12.png' width ='500' height = '500' style='border:5px solid black'>","40","all_complex","images/complex/1.png","images/complex/4.png","images/complex/3.png,images/complex/8.png,images/complex/10.png,images/complex/6.png,images/complex/12.png,images/complex/17.png,images/complex/14.png","0","null","","200","333.1300000019837","","","","deviant","",""
"","null","html-keyboard-response","22","59229","0.0-14.0-0.4","SS1604513254023","","null","","","","","","","","","","","","<img src=images/blank.png width =""500"" height = ""500"" style=""border:5px solid black"">","","",""
"","138.03500001085922","stimulus-presentation","23","59575","0.0-14.0-1.4","SS1604513254023","<img src='images/complex/4.png' width ='500' height = '500' style='border:5px solid black'>","40","all_complex","images/complex/1.png","images/complex/4.png","images/complex/3.png,images/complex/8.png,images/complex/10.png,images/complex/6.png,images/complex/12.png,images/complex/17.png,images/complex/14.png","0","null","","200","338.0350000108592","","","","background","",""
"","null","html-keyboard-response","24","60536","0.0-14.0-0.5","SS1604513254023","","null","","","","","","","","","","","","<img src=images/blank.png width =""500"" height = ""500"" style=""border:5px solid black"">","","",""
"","161.96999998646788","stimulus-presentation","25","60903","0.0-14.0-1.5","SS1604513254023","<img src='images/complex/4.png' width ='500' height = '500' style='border:5px solid black'>","40","all_complex","images/complex/1.png","images/complex/4.png","images/complex/3.png,images/complex/8.png,images/complex/10.png,images/complex/6.png,images/complex/12.png,images/complex/17.png,images/complex/14.png","0","null","","200","361.9699999864679","","","","background","",""
"","null","html-keyboard-response","26","61746","0.0-14.0-0.6","SS1604513254023","","null","","","","","","","","","","","","<img src=images/blank.png width =""500"" height = ""500"" style=""border:5px solid black"">","","",""
"","129.10499999998137","stimulus-presentation","27","62078","0.0-14.0-1.6","SS1604513254023","<img src='images/complex/4.png' width ='500' height = '500' style='border:5px solid black'>","40","all_complex","images/complex/1.png","images/complex/4.png","images/complex/3.png,images/complex/8.png,images/complex/10.png,images/complex/6.png,images/complex/12.png,images/complex/17.png,images/complex/14.png","0","null","","200","329.1049999999814","","","","background","",""
"","null","html-keyboard-response","28","63000","0.0-14.0-0.7","SS1604513254023","","null","","","","","","","","","","","","<img src=images/blank.png width =""500"" height = ""500"" style=""border:5px solid black"">","","",""
"","81.50500000920147","stimulus-presentation","29","63287","0.0-14.0-1.7","SS1604513254023","<img src='images/complex/4.png' width ='500' height = '500' style='border:5px solid black'>","40","all_complex","images/complex/1.png","images/complex/4.png","images/complex/3.png,images/complex/8.png,images/complex/10.png,images/complex/6.png,images/complex/12.png,images/complex/17.png,images/complex/14.png","0","null","","200","281.50500000920147","","","","background","",""
"","null","html-keyboard-response","30","64237","0.0-14.0-0.8","SS1604513254023","","null","","","","","","","","","","","","<img src=images/blank.png width =""500"" height = ""500"" style=""border:5px solid black"">","","",""
"","302.3049999901559","stimulus-presentation","31","64744","0.0-14.0-1.8","SS1604513254023","<img src='images/complex/17.png' width ='500' height = '500' style='border:5px solid black'>","40","all_complex","images/complex/1.png","images/complex/4.png","images/complex/3.png,images/complex/8.png,images/complex/10.png,images/complex/6.png,images/complex/12.png,images/complex/17.png,images/complex/14.png","0","null","","200","502.3049999901559","","","","deviant","",""
"","null","html-keyboard-response","32","65933","0.0-14.0-0.9","SS1604513254023","","null","","","","","","","","","","","","<img src=images/blank.png width =""500"" height = ""500"" style=""border:5px solid black"">","","",""
"","141.1450000014156","stimulus-presentation","33","66280","0.0-14.0-1.9","SS1604513254023","<img src='images/complex/4.png' width ='500' height = '500' style='border:5px solid black'>","40","all_complex","images/complex/1.png","images/complex/4.png","images/complex/3.png,images/complex/8.png,images/complex/10.png,images/complex/6.png,images/complex/12.png,images/complex/17.png,images/complex/14.png","0","null","","200","341.1450000014156","","","","background","",""
"","null","html-keyboard-response","34","67243","0.0-14.0-0.10","SS1604513254023","","null","","","","","","","","","","","","<img src=images/blank.png width =""500"" height = ""500"" style=""border:5px solid black"">","","",""
"","94.95500000775792","stimulus-presentation","35","67543","0.0-14.0-1.10","SS1604513254023","<img src='images/complex/4.png' width ='500' height = '500' style='border:5px solid black'>","40","all_complex","images/complex/1.png","images/complex/4.png","images/complex/3.png,images/complex/8.png,images/complex/10.png,images/complex/6.png,images/complex/12.png,images/complex/17.png,images/complex/14.png","0","null","","200","294.9550000077579","","","","background","",""
"","null","html-keyboard-response","36","68390","0.0-14.0-0.11","SS1604513254023","","null","","","","","","","","","","","","<img src=images/blank.png width =""500"" height = ""500"" style=""border:5px solid black"">","","",""
"","162.31000001425855","stimulus-presentation","37","68758","0.0-14.0-1.11","SS1604513254023","<img src='images/complex/1.png' width ='500' height = '500' style='border:5px solid black'>","40","all_complex","images/complex/1.png","images/complex/4.png","images/complex/3.png,images/complex/8.png,images/complex/10.png,images/complex/6.png,images/complex/12.png,images/complex/17.png,images/complex/14.png","0","null","","200","362.31000001425855","","","","target","",""
"","null","html-keyboard-response","38","70003","0.0-14.0-0.12","SS1604513254023","","null","","","","","","","","","","","","<img src=images/blank.png width =""500"" height = ""500"" style=""border:5px solid black"">","","",""
"","326.2749999994412","stimulus-presentation","39","70535","0.0-14.0-1.12","SS1604513254023","<img src='images/complex/4.png' width ='500' height = '500' style='border:5px solid black'>","40","all_complex","images/complex/1.png","images/complex/4.png","images/complex/3.png,images/complex/8.png,images/complex/10.png,images/complex/6.png,images/complex/12.png,images/complex/17.png,images/complex/14.png","0","null","","200","526.2749999994412","","","","background","",""
"","null","html-keyboard-response","40","71399","0.0-14.0-0.13","SS1604513254023","","null","","","","","","","","","","","","<img src=images/blank.png width =""500"" height = ""500"" style=""border:5px solid black"">","","",""
"","233.83499999181367","stimulus-presentation","41","71839","0.0-14.0-1.13","SS1604513254023","<img src='images/complex/4.png' width ='500' height = '500' style='border:5px solid black'>","40","all_complex","images/complex/1.png","images/complex/4.png","images/complex/3.png,images/complex/8.png,images/complex/10.png,images/complex/6.png,images/complex/12.png,images/complex/17.png,images/complex/14.png","0","null","","200","433.8349999918137","","","","background","",""
"","null","html-keyboard-response","42","72742","0.0-14.0-0.14","SS1604513254023","","null","","","","","","","","","","","","<img src=images/blank.png width =""500"" height = ""500"" style=""border:5px solid black"">","","",""
"","340.57500000926666","stimulus-presentation","43","73287","0.0-14.0-1.14","SS1604513254023","<img src='images/complex/3.png' width ='500' height = '500' style='border:5px solid black'>","40","all_complex","images/complex/1.png","images/complex/4.png","images/complex/3.png,images/complex/8.png,images/complex/10.png,images/complex/6.png,images/complex/12.png,images/complex/17.png,images/complex/14.png","0","null","","200","540.5750000092667","","","","deviant","",""
"","null","html-keyboard-response","44","74287","0.0-14.0-0.15","SS1604513254023","","null","","","","","","","","","","","","<img src=images/blank.png width =""500"" height = ""500"" style=""border:5px solid black"">","","",""
"","267.5349999917671","stimulus-presentation","45","74761","0.0-14.0-1.15","SS1604513254023","<img src='images/complex/4.png' width ='500' height = '500' style='border:5px solid black'>","40","all_complex","images/complex/1.png","images/complex/4.png","images/complex/3.png,images/complex/8.png,images/complex/10.png,images/complex/6.png,images/complex/12.png,images/complex/17.png,images/complex/14.png","0","null","","200","467.5349999917671","","","","background","",""
"","null","html-keyboard-response","46","75792","0.0-14.0-0.16","SS1604513254023","","null","","","","","","","","","","","","<img src=images/blank.png width =""500"" height = ""500"" style=""border:5px solid black"">","","",""
"","162.4899999878835","stimulus-presentation","47","76159","0.0-14.0-1.16","SS1604513254023","<img src='images/complex/4.png' width ='500' height = '500' style='border:5px solid black'>","40","all_complex","images/complex/1.png","images/complex/4.png","images/complex/3.png,images/complex/8.png,images/complex/10.png,images/complex/6.png,images/complex/12.png,images/complex/17.png,images/complex/14.png","0","null","","200","362.4899999878835","","","","background","",""
"","null","html-keyboard-response","48","77252","0.0-14.0-0.17","SS1604513254023","","null","","","","","","","","","","","","<img src=images/blank.png width =""500"" height = ""500"" style=""border:5px solid black"">","","",""
"","550.6999999925029","stimulus-presentation","49","78007","0.0-14.0-1.17","SS1604513254023","<img src='images/complex/10.png' width ='500' height = '500' style='border:5px solid black'>","40","all_complex","images/complex/1.png","images/complex/4.png","images/complex/3.png,images/complex/8.png,images/complex/10.png,images/complex/6.png,images/complex/12.png,images/complex/17.png,images/complex/14.png","0","null","","200","750.6999999925029","","","","deviant","",""
"","null","html-keyboard-response","50","79302","0.0-14.0-0.18","SS1604513254023","","null","","","","","","","","","","","","<img src=images/blank.png width =""500"" height = ""500"" style=""border:5px solid black"">","","",""
"","219.55000000889413","stimulus-presentation","51","79727","0.0-14.0-1.18","SS1604513254023","<img src='images/complex/4.png' width ='500' height = '500' style='border:5px solid black'>","40","all_complex","images/complex/1.png","images/complex/4.png","images/complex/3.png,images/complex/8.png,images/complex/10.png,images/complex/6.png,images/complex/12.png,images/complex/17.png,images/complex/14.png","0","null","","200","419.55000000889413","","","","background","",""
"","null","html-keyboard-response","52","80832","0.0-14.0-0.19","SS1604513254023","","null","","","","","","","","","","","","<img src=images/blank.png width =""500"" height = ""500"" style=""border:5px solid black"">","","",""
"","160.1000000082422","stimulus-presentation","53","81198","0.0-14.0-1.19","SS1604513254023","<img src='images/complex/4.png' width ='500' height = '500' style='border:5px solid black'>","40","all_complex","images/complex/1.png","images/complex/4.png","images/complex/3.png,images/complex/8.png,images/complex/10.png,images/complex/6.png,images/complex/12.png,images/complex/17.png,images/complex/14.png","0","null","","200","360.1000000082422","","","","background","",""
"","null","html-keyboard-response","54","82490","0.0-14.0-0.20","SS1604513254023","","null","","","","","","","","","","","","<img src=images/blank.png width =""500"" height = ""500"" style=""border:5px solid black"">","","",""
"","888.1599999731407","stimulus-presentation","55","83583","0.0-14.0-1.20","SS1604513254023","<img src='images/complex/1.png' width ='500' height = '500' style='border:5px solid black'>","40","all_complex","images/complex/1.png","images/complex/4.png","images/complex/3.png,images/complex/8.png,images/complex/10.png,images/complex/6.png,images/complex/12.png,images/complex/17.png,images/complex/14.png","0","null","","200","1088.1599999731407","yes","304.2049999930896","","target","",""
"","null","html-keyboard-response","56","84845","0.0-14.0-0.21","SS1604513254023","","null","","","","","","","","","","","","<img src=images/blank.png width =""500"" height = ""500"" style=""border:5px solid black"">","","",""
"","102.38500000559725","stimulus-presentation","57","85153","0.0-14.0-1.21","SS1604513254023","<img src='images/complex/4.png' width ='500' height = '500' style='border:5px solid black'>","40","all_complex","images/complex/1.png","images/complex/4.png","images/complex/3.png,images/complex/8.png,images/complex/10.png,images/complex/6.png,images/complex/12.png,images/complex/17.png,images/complex/14.png","0","null","","200","302.38500000559725","","","","background","",""
"","null","html-keyboard-response","58","86269","0.0-14.0-0.22","SS1604513254023","","null","","","","","","","","","","","","<img src=images/blank.png width =""500"" height = ""500"" style=""border:5px solid black"">","","",""
"","149.02000001166016","stimulus-presentation","59","86623","0.0-14.0-1.22","SS1604513254023","<img src='images/complex/4.png' width ='500' height = '500' style='border:5px solid black'>","40","all_complex","images/complex/1.png","images/complex/4.png","images/complex/3.png,images/complex/8.png,images/complex/10.png,images/complex/6.png,images/complex/12.png,images/complex/17.png,images/complex/14.png","0","null","","200","349.02000001166016","","","","background","",""
"","null","html-keyboard-response","60","87600","0.0-14.0-0.23","SS1604513254023","","null","","","","","","","","","","","","<img src=images/blank.png width =""500"" height = ""500"" style=""border:5px solid black"">","","",""
"","1535.9649999882095","stimulus-presentation","61","89343","0.0-14.0-1.23","SS1604513254023","<img src='images/complex/1.png' width ='500' height = '500' style='border:5px solid black'>","40","all_complex","images/complex/1.png","images/complex/4.png","images/complex/3.png,images/complex/8.png,images/complex/10.png,images/complex/6.png,images/complex/12.png,images/complex/17.png,images/complex/14.png","0","null","","200","1735.9649999882095","yes","328.78499999060296","","target","",""
"","null","html-keyboard-response","62","90343","0.0-14.0-0.24","SS1604513254023","","null","","","","","","","","","","","","<img src=images/blank.png width =""500"" height = ""500"" style=""border:5px solid black"">","","",""
"","1482.1400000073481","stimulus-presentation","63","92030","0.0-14.0-1.24","SS1604513254023","<img src='images/complex/1.png' width ='500' height = '500' style='border:5px solid black'>","40","all_complex","images/complex/1.png","images/complex/4.png","images/complex/3.png,images/complex/8.png,images/complex/10.png,images/complex/6.png,images/complex/12.png,images/complex/17.png,images/complex/14.png","0","null","","200","1682.1400000073481","yes","234.53499999595806","","target","",""
"","null","html-keyboard-response","64","92882","0.0-14.0-0.25","SS1604513254023","","null","","","","","","","","","","","","<img src=images/blank.png width =""500"" height = ""500"" style=""border:5px solid black"">","","",""
"","191.07999998959713","stimulus-presentation","65","93279","0.0-14.0-1.25","SS1604513254023","<img src='images/complex/4.png' width ='500' height = '500' style='border:5px solid black'>","40","all_complex","images/complex/1.png","images/complex/4.png","images/complex/3.png,images/complex/8.png,images/complex/10.png,images/complex/6.png,images/complex/12.png,images/complex/17.png,images/complex/14.png","0","null","","200","391.0799999895971","","","","background","",""
"","null","html-keyboard-response","66","94230","0.0-14.0-0.26","SS1604513254023","","null","","","","","","","","","","","","<img src=images/blank.png width =""500"" height = ""500"" style=""border:5px solid black"">","","",""
"","139.4399999990128","stimulus-presentation","67","94575","0.0-14.0-1.26","SS1604513254023","<img src='images/complex/4.png' width ='500' height = '500' style='border:5px solid black'>","40","all_complex","images/complex/1.png","images/complex/4.png","images/complex/3.png,images/complex/8.png,images/complex/10.png,images/complex/6.png,images/complex/12.png,images/complex/17.png,images/complex/14.png","0","null","","200","339.4399999990128","","","","background","",""
"","null","html-keyboard-response","68","95673","0.0-14.0-0.27","SS1604513254023","","null","","","","","","","","","","","","<img src=images/blank.png width =""500"" height = ""500"" style=""border:5px solid black"">","","",""
"","140.9900000144262","stimulus-presentation","69","96024","0.0-14.0-1.27","SS1604513254023","<img src='images/complex/4.png' width ='500' height = '500' style='border:5px solid black'>","40","all_complex","images/complex/1.png","images/complex/4.png","images/complex/3.png,images/complex/8.png,images/complex/10.png,images/complex/6.png,images/complex/12.png,images/complex/17.png,images/complex/14.png","0","null","","200","340.9900000144262","","","","background","",""
"","null","html-keyboard-response","70","97012","0.0-14.0-0.28","SS1604513254023","","null","","","","","","","","","","","","<img src=images/blank.png width =""500"" height = ""500"" style=""border:5px solid black"">","","",""
"","333.1250000046566","stimulus-presentation","71","97550","0.0-14.0-1.28","SS1604513254023","<img src='images/complex/6.png' width ='500' height = '500' style='border:5px solid black'>","40","all_complex","images/complex/1.png","images/complex/4.png","images/complex/3.png,images/complex/8.png,images/complex/10.png,images/complex/6.png,images/complex/12.png,images/complex/17.png,images/complex/14.png","0","null","","200","533.1250000046566","","","","deviant","",""
"","null","html-keyboard-response","72","98593","0.0-14.0-0.29","SS1604513254023","","null","","","","","","","","","","","","<img src=images/blank.png width =""500"" height = ""500"" style=""border:5px solid black"">","","",""
"","1423.2750000082888","stimulus-presentation","73","100222","0.0-14.0-1.29","SS1604513254023","<img src='images/complex/1.png' width ='500' height = '500' style='border:5px solid black'>","40","all_complex","images/complex/1.png","images/complex/4.png","images/complex/3.png,images/complex/8.png,images/complex/10.png,images/complex/6.png,images/complex/12.png,images/complex/17.png,images/complex/14.png","0","null","","200","1623.2750000082888","yes","239.19000002206303","","target","",""
"","null","html-keyboard-response","74","101388","0.0-14.0-0.30","SS1604513254023","","null","","","","","","","","","","","","<img src=images/blank.png width =""500"" height = ""500"" style=""border:5px solid black"">","","",""
"","174.21500000637025","stimulus-presentation","75","101767","0.0-14.0-1.30","SS1604513254023","<img src='images/complex/4.png' width ='500' height = '500' style='border:5px solid black'>","40","all_complex","images/complex/1.png","images/complex/4.png","images/complex/3.png,images/complex/8.png,images/complex/10.png,images/complex/6.png,images/complex/12.png,images/complex/17.png,images/complex/14.png","0","null","","200","374.21500000637025","","","","background","",""
"","null","html-keyboard-response","76","102687","0.0-14.0-0.31","SS1604513254023","","null","","","","","","","","","","","","<img src=images/blank.png width =""500"" height = ""500"" style=""border:5px solid black"">","","",""
"","163.8999999850057","stimulus-presentation","77","103056","0.0-14.0-1.31","SS1604513254023","<img src='images/complex/4.png' width ='500' height = '500' style='border:5px solid black'>","40","all_complex","images/complex/1.png","images/complex/4.png","images/complex/3.png,images/complex/8.png,images/complex/10.png,images/complex/6.png,images/complex/12.png,images/complex/17.png,images/complex/14.png","0","null","","200","363.8999999850057","","","","background","",""
"","null","html-keyboard-response","78","104140","0.0-14.0-0.32","SS1604513254023","","null","","","","","","","","","","","","<img src=images/blank.png width =""500"" height = ""500"" style=""border:5px solid black"">","","",""
"","156.12999998847954","stimulus-presentation","79","104503","0.0-14.0-1.32","SS1604513254023","<img src='images/complex/4.png' width ='500' height = '500' style='border:5px solid black'>","40","all_complex","images/complex/1.png","images/complex/4.png","images/complex/3.png,images/complex/8.png,images/complex/10.png,images/complex/6.png,images/complex/12.png,images/complex/17.png,images/complex/14.png","0","null","","200","356.12999998847954","","","","background","",""
"","null","html-keyboard-response","80","105621","0.0-14.0-0.33","SS1604513254023","","null","","","","","","","","","","","","<img src=images/blank.png width =""500"" height = ""500"" style=""border:5px solid black"">","","",""
"","133.23499998659827","stimulus-presentation","81","105960","0.0-14.0-1.33","SS1604513254023","<img src='images/complex/4.png' width ='500' height = '500' style='border:5px solid black'>","40","all_complex","images/complex/1.png","images/complex/4.png","images/complex/3.png,images/complex/8.png,images/complex/10.png,images/complex/6.png,images/complex/12.png,images/complex/17.png,images/complex/14.png","0","null","","200","333.23499998659827","","","","background","",""
"","null","html-keyboard-response","82","107160","0.0-14.0-0.34","SS1604513254023","","null","","","","","","","","","","","","<img src=images/blank.png width =""500"" height = ""500"" style=""border:5px solid black"">","","",""
"","433.7750000122469","stimulus-presentation","83","107801","0.0-14.0-1.34","SS1604513254023","<img src='images/complex/14.png' width ='500' height = '500' style='border:5px solid black'>","40","all_complex","images/complex/1.png","images/complex/4.png","images/complex/3.png,images/complex/8.png,images/complex/10.png,images/complex/6.png,images/complex/12.png,images/complex/17.png,images/complex/14.png","0","null","","200","633.7750000122469","","","","deviant","",""
"","null","html-keyboard-response","84","108825","0.0-14.0-0.35","SS1604513254023","","null","","","","","","","","","","","","<img src=images/blank.png width =""500"" height = ""500"" style=""border:5px solid black"">","","",""
"","255.30999997863546","stimulus-presentation","85","109287","0.0-14.0-1.35","SS1604513254023","<img src='images/complex/4.png' width ='500' height = '500' style='border:5px solid black'>","40","all_complex","images/complex/1.png","images/complex/4.png","images/complex/3.png,images/complex/8.png,images/complex/10.png,images/complex/6.png,images/complex/12.png,images/complex/17.png,images/complex/14.png","0","null","","200","455.30999997863546","","","","background","",""
"","null","html-keyboard-response","86","110323","0.0-14.0-0.36","SS1604513254023","","null","","","","","","","","","","","","<img src=images/blank.png width =""500"" height = ""500"" style=""border:5px solid black"">","","",""
"","214.40999998594634","stimulus-presentation","87","110743","0.0-14.0-1.36","SS1604513254023","<img src='images/complex/4.png' width ='500' height = '500' style='border:5px solid black'>","40","all_complex","images/complex/1.png","images/complex/4.png","images/complex/3.png,images/complex/8.png,images/complex/10.png,images/complex/6.png,images/complex/12.png,images/complex/17.png,images/complex/14.png","0","null","","200","414.40999998594634","","","","background","",""
"","null","html-keyboard-response","88","112005","0.0-14.0-0.37","SS1604513254023","","null","","","","","","","","","","","","<img src=images/blank.png width =""500"" height = ""500"" style=""border:5px solid black"">","","",""
"","148.9949999959208","stimulus-presentation","89","112359","0.0-14.0-1.37","SS1604513254023","<img src='images/complex/4.png' width ='500' height = '500' style='border:5px solid black'>","40","all_complex","images/complex/1.png","images/complex/4.png","images/complex/3.png,images/complex/8.png,images/complex/10.png,images/complex/6.png,images/complex/12.png,images/complex/17.png,images/complex/14.png","0","null","","200","348.9949999959208","","","","background","",""
"","null","html-keyboard-response","90","113348","0.0-14.0-0.38","SS1604513254023","","null","","","","","","","","","","","","<img src=images/blank.png width =""500"" height = ""500"" style=""border:5px solid black"">","","",""
"","123.12000000383705","stimulus-presentation","91","113679","0.0-14.0-1.38","SS1604513254023","<img src='images/complex/4.png' width ='500' height = '500' style='border:5px solid black'>","40","all_complex","images/complex/1.png","images/complex/4.png","images/complex/3.png,images/complex/8.png,images/complex/10.png,images/complex/6.png,images/complex/12.png,images/complex/17.png,images/complex/14.png","0","null","","200","323.12000000383705","","","","background","",""
"","null","html-keyboard-response","92","114680","0.0-14.0-0.39","SS1604513254023","","null","","","","","","","","","","","","<img src=images/blank.png width =""500"" height = ""500"" style=""border:5px solid black"">","","",""
"","288.1950000009965","stimulus-presentation","93","115175","0.0-14.0-1.39","SS1604513254023","<img src='images/complex/8.png' width ='500' height = '500' style='border:5px solid black'>","40","all_complex","images/complex/1.png","images/complex/4.png","images/complex/3.png,images/complex/8.png,images/complex/10.png,images/complex/6.png,images/complex/12.png,images/complex/17.png,images/complex/14.png","0","null","","200","488.1950000009965","","","","deviant","",""
"","null","html-keyboard-response","94","116454","0.0-14.0-0.40","SS1604513254023","","null","","","","","","","","","","","","<img src=images/blank.png width =""500"" height = ""500"" style=""border:5px solid black"">","","",""
"","131.4600000041537","stimulus-presentation","95","116791","0.0-14.0-1.40","SS1604513254023","<img src='images/complex/4.png' width ='500' height = '500' style='border:5px solid black'>","40","all_complex","images/complex/1.png","images/complex/4.png","images/complex/3.png,images/complex/8.png,images/complex/10.png,images/complex/6.png,images/complex/12.png,images/complex/17.png,images/complex/14.png","0","null","","200","331.4600000041537","","","","background","",""
"","null","html-keyboard-response","96","117898","0.0-14.0-0.41","SS1604513254023","","null","","","","","","","","","","","","<img src=images/blank.png width =""500"" height = ""500"" style=""border:5px solid black"">","","",""
"","142.91500000399537","stimulus-presentation","97","118248","0.0-14.0-1.41","SS1604513254023","<img src='images/complex/4.png' width ='500' height = '500' style='border:5px solid black'>","40","all_complex","images/complex/1.png","images/complex/4.png","images/complex/3.png,images/complex/8.png,images/complex/10.png,images/complex/6.png,images/complex/12.png,images/complex/17.png,images/complex/14.png","0","null","","200","342.9150000039954","","","","background","",""
"","null","html-keyboard-response","98","119345","0.0-14.0-0.42","SS1604513254023","","null","","","","","","","","","","","","<img src=images/blank.png width =""500"" height = ""500"" style=""border:5px solid black"">","","",""
"","135.69500000448897","stimulus-presentation","99","119687","0.0-14.0-1.42","SS1604513254023","<img src='images/complex/4.png' width ='500' height = '500' style='border:5px solid black'>","40","all_complex","images/complex/1.png","images/complex/4.png","images/complex/3.png,images/complex/8.png,images/complex/10.png,images/complex/6.png,images/complex/12.png,images/complex/17.png,images/complex/14.png","0","null","","200","335.695000004489","","","","background","",""
"","null","html-keyboard-response","100","120554","0.0-14.0-0.43","SS1604513254023","","null","","","","","","","","","","","","<img src=images/blank.png width =""500"" height = ""500"" style=""border:5px solid black"">","","",""
"","176.20499999611638","stimulus-presentation","101","120936","0.0-14.0-1.43","SS1604513254023","<img src='images/complex/4.png' width ='500' height = '500' style='border:5px solid black'>","40","all_complex","images/complex/1.png","images/complex/4.png","images/complex/3.png,images/complex/8.png,images/complex/10.png,images/complex/6.png,images/complex/12.png,images/complex/17.png,images/complex/14.png","0","null","","200","376.2049999961164","","","","background","",""
"","null","html-keyboard-response","102","121811","0.0-14.0-0.44","SS1604513254023","","null","","","","","","","","","","","","<img src=images/blank.png width =""500"" height = ""500"" style=""border:5px solid black"">","","",""
"","141.17000001715496","stimulus-presentation","103","122159","0.0-14.0-1.44","SS1604513254023","<img src='images/complex/4.png' width ='500' height = '500' style='border:5px solid black'>","40","all_complex","images/complex/1.png","images/complex/4.png","images/complex/3.png,images/complex/8.png,images/complex/10.png,images/complex/6.png,images/complex/12.png,images/complex/17.png,images/complex/14.png","0","null","","200","341.17000001715496","","","","background","",""
"","null","html-keyboard-response","104","123242","0.0-14.0-0.45","SS1604513254023","","null","","","","","","","","","","","","<img src=images/blank.png width =""500"" height = ""500"" style=""border:5px solid black"">","","",""
"","142.98500001314096","stimulus-presentation","105","123591","0.0-14.0-1.45","SS1604513254023","<img src='images/complex/4.png' width ='500' height = '500' style='border:5px solid black'>","40","all_complex","images/complex/1.png","images/complex/4.png","images/complex/3.png,images/complex/8.png,images/complex/10.png,images/complex/6.png,images/complex/12.png,images/complex/17.png,images/complex/14.png","0","null","","200","342.98500001314096","","","","background","",""
"","null","html-keyboard-response","106","124877","0.0-14.0-0.46","SS1604513254023","","null","","","","","","","","","","","","<img src=images/blank.png width =""500"" height = ""500"" style=""border:5px solid black"">","","",""
"","141.46499999333173","stimulus-presentation","107","125223","0.0-14.0-1.46","SS1604513254023","<img src='images/complex/4.png' width ='500' height = '500' style='border:5px solid black'>","40","all_complex","images/complex/1.png","images/complex/4.png","images/complex/3.png,images/complex/8.png,images/complex/10.png,images/complex/6.png,images/complex/12.png,images/complex/17.png,images/complex/14.png","0","null","","200","341.46499999333173","","","","background","",""
"","null","html-keyboard-response","108","126287","0.0-14.0-0.47","SS1604513254023","","null","","","","","","","","","","","","<img src=images/blank.png width =""500"" height = ""500"" style=""border:5px solid black"">","","",""
"","72.76000001002103","stimulus-presentation","109","126567","0.0-14.0-1.47","SS1604513254023","<img src='images/complex/1.png' width ='500' height = '500' style='border:5px solid black'>","40","all_complex","images/complex/1.png","images/complex/4.png","images/complex/3.png,images/complex/8.png,images/complex/10.png,images/complex/6.png,images/complex/12.png,images/complex/17.png,images/complex/14.png","0","null","","200","272.76000001002103","","","","target","",""
"","null","html-keyboard-response","110","127574","0.0-14.0-0.48","SS1604513254023","","null","","","","","","","","","","","","<img src=images/blank.png width =""500"" height = ""500"" style=""border:5px solid black"">","","",""
"","1172.534999990603","stimulus-presentation","111","128952","0.0-14.0-1.48","SS1604513254023","<img src='images/complex/1.png' width ='500' height = '500' style='border:5px solid black'>","40","all_complex","images/complex/1.png","images/complex/4.png","images/complex/3.png,images/complex/8.png,images/complex/10.png,images/complex/6.png,images/complex/12.png,images/complex/17.png,images/complex/14.png","0","null","","200","1372.534999990603","yes","331.48999998229556","","target","",""
"[{""page_index"":0,""viewing_time"":2220}]","2221","task-instructions","112","131178","0.0-15.0","SS1604513254023","","","","","","","","","","","","","","","","",""
"[{""page_index"":0,""viewing_time"":1140.160000009928},{""page_index"":1,""viewing_time"":1506.7249999847263},{""page_index"":2,""viewing_time"":934.1650000133086}]","3581.4400000090245","instructions","113","134764","0.0-16.0","SS1604513254023","","","","","","","","","","","","","","","","",""
"","null","html-keyboard-response","114","135766","0.0-17.0-0.0","SS1604513254023","","null","","","","","","","","","","","","<img src=images/blank.png width =""500"" height = ""500"" style=""border:5px solid black"">","","",""
"","1288.0350000050385","stimulus-presentation","115","137263","0.0-17.0-1.0","SS1604513254023","<img src='images/simple/17.png' width ='500' height = '500' style='border:5px solid black'>","40","all_simple","images/simple/17.png","images/simple/2.png","images/simple/16.png,images/simple/14.png,images/simple/18.png,images/simple/3.png,images/simple/7.png,images/simple/13.png,images/simple/1.png","1","null","","200","1488.0350000050385","yes","472.51000002142973","","target","",""
"","null","html-keyboard-response","116","138388","0.0-17.0-0.1","SS1604513254023","","null","","","","","","","","","","","","<img src=images/blank.png width =""500"" height = ""500"" style=""border:5px solid black"">","","",""
"","644.6749999886379","stimulus-presentation","117","139240","0.0-17.0-1.1","SS1604513254023","<img src='images/simple/17.png' width ='500' height = '500' style='border:5px solid black'>","40","all_simple","images/simple/17.png","images/simple/2.png","images/simple/16.png,images/simple/14.png,images/simple/18.png,images/simple/3.png,images/simple/7.png,images/simple/13.png,images/simple/1.png","1","null","","200","844.6749999886379","yes","195.16999999177642","","target","",""
"","null","html-keyboard-response","118","140444","0.0-17.0-0.2","SS1604513254023","","null","","","","","","","","","","","","<img src=images/blank.png width =""500"" height = ""500"" style=""border:5px solid black"">","","",""
"","476.55500000109896","stimulus-presentation","119","141127","0.0-17.0-1.2","SS1604513254023","<img src='images/simple/17.png' width ='500' height = '500' style='border:5px solid black'>","40","all_simple","images/simple/17.png","images/simple/2.png","images/simple/16.png,images/simple/14.png,images/simple/18.png,images/simple/3.png,images/simple/7.png,images/simple/13.png,images/simple/1.png","1","null","","200","676.555000001099","yes","132.36499999766238","","target","",""
"","null","html-keyboard-response","120","142339","0.0-17.0-0.3","SS1604513254023","","null","","","","","","","","","","","","<img src=images/blank.png width =""500"" height = ""500"" style=""border:5px solid black"">","","",""
"","295.82999998820014","stimulus-presentation","121","142855","0.0-17.0-1.3","SS1604513254023","<img src='images/simple/16.png' width ='500' height = '500' style='border:5px solid black'>","40","all_simple","images/simple/17.png","images/simple/2.png","images/simple/16.png,images/simple/14.png,images/simple/18.png,images/simple/3.png,images/simple/7.png,images/simple/13.png,images/simple/1.png","1","null","","200","495.82999998820014","","","","deviant","",""
"","null","html-keyboard-response","122","143882","0.0-17.0-0.4","SS1604513254023","","null","","","","","","","","","","","","<img src=images/blank.png width =""500"" height = ""500"" style=""border:5px solid black"">","","",""
"","493.54500000481494","stimulus-presentation","123","144583","0.0-17.0-1.4","SS1604513254023","<img src='images/simple/2.png' width ='500' height = '500' style='border:5px solid black'>","40","all_simple","images/simple/17.png","images/simple/2.png","images/simple/16.png,images/simple/14.png,images/simple/18.png,images/simple/3.png,images/simple/7.png,images/simple/13.png,images/simple/1.png","1","null","","200","693.5450000048149","","","","background","",""
"","null","html-keyboard-response","124","145475","0.0-17.0-0.5","SS1604513254023","","null","","","","","","","","","","","","<img src=images/blank.png width =""500"" height = ""500"" style=""border:5px solid black"">","","",""
"","263.2900000025984","stimulus-presentation","125","145943","0.0-17.0-1.5","SS1604513254023","<img src='images/simple/2.png' width ='500' height = '500' style='border:5px solid black'>","40","all_simple","images/simple/17.png","images/simple/2.png","images/simple/16.png,images/simple/14.png,images/simple/18.png,images/simple/3.png,images/simple/7.png,images/simple/13.png,images/simple/1.png","1","null","","200","463.2900000025984","","","","background","",""
"","null","html-keyboard-response","126","147043","0.0-17.0-0.6","SS1604513254023","","null","","","","","","","","","","","","<img src=images/blank.png width =""500"" height = ""500"" style=""border:5px solid black"">","","",""
"","373.34499999997206","stimulus-presentation","127","147623","0.0-17.0-1.6","SS1604513254023","<img src='images/simple/18.png' width ='500' height = '500' style='border:5px solid black'>","40","all_simple","images/simple/17.png","images/simple/2.png","images/simple/16.png,images/simple/14.png,images/simple/18.png,images/simple/3.png,images/simple/7.png,images/simple/13.png,images/simple/1.png","1","null","","200","573.3449999999721","","","","deviant","",""
"","null","html-keyboard-response","128","148913","0.0-17.0-0.7","SS1604513254023","","null","","","","","","","","","","","","<img src=images/blank.png width =""500"" height = ""500"" style=""border:5px solid black"">","","",""
"","143.3850000030361","stimulus-presentation","129","149264","0.0-17.0-1.7","SS1604513254023","<img src='images/simple/2.png' width ='500' height = '500' style='border:5px solid black'>","40","all_simple","images/simple/17.png","images/simple/2.png","images/simple/16.png,images/simple/14.png,images/simple/18.png,images/simple/3.png,images/simple/7.png,images/simple/13.png,images/simple/1.png","1","null","","200","343.3850000030361","","","","background","",""
"","null","html-keyboard-response","130","150292","0.0-17.0-0.8","SS1604513254023","","null","","","","","","","","","","","","<img src=images/blank.png width =""500"" height = ""500"" style=""border:5px solid black"">","","",""
"","164.55499999574386","stimulus-presentation","131","150663","0.0-17.0-1.8","SS1604513254023","<img src='images/simple/2.png' width ='500' height = '500' style='border:5px solid black'>","40","all_simple","images/simple/17.png","images/simple/2.png","images/simple/16.png,images/simple/14.png,images/simple/18.png,images/simple/3.png,images/simple/7.png,images/simple/13.png,images/simple/1.png","1","null","","200","364.55499999574386","","","","background","",""
"","null","html-keyboard-response","132","151638","0.0-17.0-0.9","SS1604513254023","","null","","","","","","","","","","","","<img src=images/blank.png width =""500"" height = ""500"" style=""border:5px solid black"">","","",""
"","89.24499998101965","stimulus-presentation","133","151935","0.0-17.0-1.9","SS1604513254023","<img src='images/simple/2.png' width ='500' height = '500' style='border:5px solid black'>","40","all_simple","images/simple/17.png","images/simple/2.png","images/simple/16.png,images/simple/14.png,images/simple/18.png,images/simple/3.png,images/simple/7.png,images/simple/13.png,images/simple/1.png","1","null","","200","289.24499998101965","","","","background","",""
"","null","html-keyboard-response","134","153186","0.0-17.0-0.10","SS1604513254023","","null","","","","","","","","","","","","<img src=images/blank.png width =""500"" height = ""500"" style=""border:5px solid black"">","","",""
"","380.5200000060722","stimulus-presentation","135","153775","0.0-17.0-1.10","SS1604513254023","<img src='images/simple/1.png' width ='500' height = '500' style='border:5px solid black'>","40","all_simple","images/simple/17.png","images/simple/2.png","images/simple/16.png,images/simple/14.png,images/simple/18.png,images/simple/3.png,images/simple/7.png,images/simple/13.png,images/simple/1.png","1","null","","200","580.5200000060722","","","","deviant","",""
"","null","html-keyboard-response","136","154700","0.0-17.0-0.11","SS1604513254023","","null","","","","","","","","","","","","<img src=images/blank.png width =""500"" height = ""500"" style=""border:5px solid black"">","","",""
"","144.53499999945052","stimulus-presentation","137","155055","0.0-17.0-1.11","SS1604513254023","<img src='images/simple/2.png' width ='500' height = '500' style='border:5px solid black'>","40","all_simple","images/simple/17.png","images/simple/2.png","images/simple/16.png,images/simple/14.png,images/simple/18.png,images/simple/3.png,images/simple/7.png,images/simple/13.png,images/simple/1.png","1","null","","200","344.5349999994505","","","","background","",""
"","null","html-keyboard-response","138","156152","0.0-17.0-0.12","SS1604513254023","","null","","","","","","","","","","","","<img src=images/blank.png width =""500"" height = ""500"" style=""border:5px solid black"">","","",""
"","100.33499999553896","stimulus-presentation","139","156463","0.0-17.0-1.12","SS1604513254023","<img src='images/simple/2.png' width ='500' height = '500' style='border:5px solid black'>","40","all_simple","images/simple/17.png","images/simple/2.png","images/simple/16.png,images/simple/14.png,images/simple/18.png,images/simple/3.png,images/simple/7.png,images/simple/13.png,images/simple/1.png","1","null","","200","300.33499999553896","","","","background","",""
"","null","html-keyboard-response","140","157405","0.0-17.0-0.13","SS1604513254023","","null","","","","","","","","","","","","<img src=images/blank.png width =""500"" height = ""500"" style=""border:5px solid black"">","","",""
"","137.61500001419336","stimulus-presentation","141","157751","0.0-17.0-1.13","SS1604513254023","<img src='images/simple/2.png' width ='500' height = '500' style='border:5px solid black'>","40","all_simple","images/simple/17.png","images/simple/2.png","images/simple/16.png,images/simple/14.png,images/simple/18.png,images/simple/3.png,images/simple/7.png,images/simple/13.png,images/simple/1.png","1","null","","200","337.61500001419336","","","","background","",""
"","null","html-keyboard-response","142","158794","0.0-17.0-0.14","SS1604513254023","","null","","","","","","","","","","","","<img src=images/blank.png width =""500"" height = ""500"" style=""border:5px solid black"">","","",""
"","141.77500002551824","stimulus-presentation","143","159144","0.0-17.0-1.14","SS1604513254023","<img src='images/simple/2.png' width ='500' height = '500' style='border:5px solid black'>","40","all_simple","images/simple/17.png","images/simple/2.png","images/simple/16.png,images/simple/14.png,images/simple/18.png,images/simple/3.png,images/simple/7.png,images/simple/13.png,images/simple/1.png","1","null","","200","341.77500002551824","","","","background","",""
"","null","html-keyboard-response","144","160383","0.0-17.0-0.15","SS1604513254023","","null","","","","","","","","","","","","<img src=images/blank.png width =""500"" height = ""500"" style=""border:5px solid black"">","","",""
"","1624.5800000033341","stimulus-presentation","145","162215","0.0-17.0-1.15","SS1604513254023","<img src='images/simple/17.png' width ='500' height = '500' style='border:5px solid black'>","40","all_simple","images/simple/17.png","images/simple/2.png","images/simple/16.png,images/simple/14.png,images/simple/18.png,images/simple/3.png,images/simple/7.png,images/simple/13.png,images/simple/1.png","1","null","","200","1824.5800000033341","yes","754.5899999968242","","target","",""
"","null","html-keyboard-response","146","163064","0.0-17.0-0.16","SS1604513254023","","null","","","","","","","","","","","","<img src=images/blank.png width =""500"" height = ""500"" style=""border:5px solid black"">","","",""
"","213.40999999665655","stimulus-presentation","147","163486","0.0-17.0-1.16","SS1604513254023","<img src='images/simple/14.png' width ='500' height = '500' style='border:5px solid black'>","40","all_simple","images/simple/17.png","images/simple/2.png","images/simple/16.png,images/simple/14.png,images/simple/18.png,images/simple/3.png,images/simple/7.png,images/simple/13.png,images/simple/1.png","1","null","","200","413.40999999665655","","","","deviant","",""
"","null","html-keyboard-response","148","164647","0.0-17.0-0.17","SS1604513254023","","null","","","","","","","","","","","","<img src=images/blank.png width =""500"" height = ""500"" style=""border:5px solid black"">","","",""
"","184.21999999554828","stimulus-presentation","149","165039","0.0-17.0-1.17","SS1604513254023","<img src='images/simple/2.png' width ='500' height = '500' style='border:5px solid black'>","40","all_simple","images/simple/17.png","images/simple/2.png","images/simple/16.png,images/simple/14.png,images/simple/18.png,images/simple/3.png,images/simple/7.png,images/simple/13.png,images/simple/1.png","1","null","","200","384.2199999955483","","","","background","",""
"","null","html-keyboard-response","150","166339","0.0-17.0-0.18","SS1604513254023","","null","","","","","","","","","","","","<img src=images/blank.png width =""500"" height = ""500"" style=""border:5px solid black"">","","",""
"","68.14499999745749","stimulus-presentation","151","166614","0.0-17.0-1.18","SS1604513254023","<img src='images/simple/2.png' width ='500' height = '500' style='border:5px solid black'>","40","all_simple","images/simple/17.png","images/simple/2.png","images/simple/16.png,images/simple/14.png,images/simple/18.png,images/simple/3.png,images/simple/7.png,images/simple/13.png,images/simple/1.png","1","null","","200","268.1449999974575","","","","background","",""
"","null","html-keyboard-response","152","167558","0.0-17.0-0.19","SS1604513254023","","null","","","","","","","","","","","","<img src=images/blank.png width =""500"" height = ""500"" style=""border:5px solid black"">","","",""
"","128.9950000063982","stimulus-presentation","153","167894","0.0-17.0-1.19","SS1604513254023","<img src='images/simple/2.png' width ='500' height = '500' style='border:5px solid black'>","40","all_simple","images/simple/17.png","images/simple/2.png","images/simple/16.png,images/simple/14.png,images/simple/18.png,images/simple/3.png,images/simple/7.png,images/simple/13.png,images/simple/1.png","1","null","","200","328.9950000063982","","","","background","",""
"","null","html-keyboard-response","154","168723","0.0-17.0-0.20","SS1604513254023","","null","","","","","","","","","","","","<img src=images/blank.png width =""500"" height = ""500"" style=""border:5px solid black"">","","",""
"","207.80000000377186","stimulus-presentation","155","169143","0.0-17.0-1.20","SS1604513254023","<img src='images/simple/2.png' width ='500' height = '500' style='border:5px solid black'>","40","all_simple","images/simple/17.png","images/simple/2.png","images/simple/16.png,images/simple/14.png,images/simple/18.png,images/simple/3.png,images/simple/7.png,images/simple/13.png,images/simple/1.png","1","null","","200","407.80000000377186","","","","background","",""
"","null","html-keyboard-response","156","170436","0.0-17.0-0.21","SS1604513254023","","null","","","","","","","","","","","","<img src=images/blank.png width =""500"" height = ""500"" style=""border:5px solid black"">","","",""
"","186.16499999188818","stimulus-presentation","157","170830","0.0-17.0-1.21","SS1604513254023","<img src='images/simple/3.png' width ='500' height = '500' style='border:5px solid black'>","40","all_simple","images/simple/17.png","images/simple/2.png","images/simple/16.png,images/simple/14.png,images/simple/18.png,images/simple/3.png,images/simple/7.png,images/simple/13.png,images/simple/1.png","1","null","","200","386.1649999918882","","","","deviant","",""
"","null","html-keyboard-response","158","172055","0.0-17.0-0.22","SS1604513254023","","null","","","","","","","","","","","","<img src=images/blank.png width =""500"" height = ""500"" style=""border:5px solid black"">","","",""
"","112.410000001546","stimulus-presentation","159","172376","0.0-17.0-1.22","SS1604513254023","<img src='images/simple/2.png' width ='500' height = '500' style='border:5px solid black'>","40","all_simple","images/simple/17.png","images/simple/2.png","images/simple/16.png,images/simple/14.png,images/simple/18.png,images/simple/3.png,images/simple/7.png,images/simple/13.png,images/simple/1.png","1","null","","200","312.410000001546","","","","background","",""
"","null","html-keyboard-response","160","173437","0.0-17.0-0.23","SS1604513254023","","null","","","","","","","","","","","","<img src=images/blank.png width =""500"" height = ""500"" style=""border:5px solid black"">","","",""
"","113.14000000129454","stimulus-presentation","161","173758","0.0-17.0-1.23","SS1604513254023","<img src='images/simple/2.png' width ='500' height = '500' style='border:5px solid black'>","40","all_simple","images/simple/17.png","images/simple/2.png","images/simple/16.png,images/simple/14.png,images/simple/18.png,images/simple/3.png,images/simple/7.png,images/simple/13.png,images/simple/1.png","1","null","","200","313.14000000129454","","","","background","",""
"","null","html-keyboard-response","162","174743","0.0-17.0-0.24","SS1604513254023","","null","","","","","","","","","","","","<img src=images/blank.png width =""500"" height = ""500"" style=""border:5px solid black"">","","",""
"","118.65999997826293","stimulus-presentation","163","175071","0.0-17.0-1.24","SS1604513254023","<img src='images/simple/2.png' width ='500' height = '500' style='border:5px solid black'>","40","all_simple","images/simple/17.png","images/simple/2.png","images/simple/16.png,images/simple/14.png,images/simple/18.png,images/simple/3.png,images/simple/7.png,images/simple/13.png,images/simple/1.png","1","null","","200","318.65999997826293","","","","background","",""
"","null","html-keyboard-response","164","176329","0.0-17.0-0.25","SS1604513254023","","null","","","","","","","","","","","","<img src=images/blank.png width =""500"" height = ""500"" style=""border:5px solid black"">","","",""
"","109.8900000215508","stimulus-presentation","165","176646","0.0-17.0-1.25","SS1604513254023","<img src='images/simple/2.png' width ='500' height = '500' style='border:5px solid black'>","40","all_simple","images/simple/17.png","images/simple/2.png","images/simple/16.png,images/simple/14.png,images/simple/18.png,images/simple/3.png,images/simple/7.png,images/simple/13.png,images/simple/1.png","1","null","","200","309.8900000215508","","","","background","",""
"","null","html-keyboard-response","166","177595","0.0-17.0-0.26","SS1604513254023","","null","","","","","","","","","","","","<img src=images/blank.png width =""500"" height = ""500"" style=""border:5px solid black"">","","",""
"","820.2049999963492","stimulus-presentation","167","178623","0.0-17.0-1.26","SS1604513254023","<img src='images/simple/17.png' width ='500' height = '500' style='border:5px solid black'>","40","all_simple","images/simple/17.png","images/simple/2.png","images/simple/16.png,images/simple/14.png,images/simple/18.png,images/simple/3.png,images/simple/7.png,images/simple/13.png,images/simple/1.png","1","null","","200","1020.2049999963492","yes","556.5500000084285","","target","",""
"","null","html-keyboard-response","168","179643","0.0-17.0-0.27","SS1604513254023","","null","","","","","","","","","","","","<img src=images/blank.png width =""500"" height = ""500"" style=""border:5px solid black"">","","",""
"","204.04000001144595","stimulus-presentation","169","180056","0.0-17.0-1.27","SS1604513254023","<img src='images/simple/2.png' width ='500' height = '500' style='border:5px solid black'>","40","all_simple","images/simple/17.png","images/simple/2.png","images/simple/16.png,images/simple/14.png,images/simple/18.png,images/simple/3.png,images/simple/7.png,images/simple/13.png,images/simple/1.png","1","null","","200","404.04000001144595","","","","background","",""
"","null","html-keyboard-response","170","181077","0.0-17.0-0.28","SS1604513254023","","null","","","","","","","","","","","","<img src=images/blank.png width =""500"" height = ""500"" style=""border:5px solid black"">","","",""
"","122.35499999951571","stimulus-presentation","171","181407","0.0-17.0-1.28","SS1604513254023","<img src='images/simple/2.png' width ='500' height = '500' style='border:5px solid black'>","40","all_simple","images/simple/17.png","images/simple/2.png","images/simple/16.png,images/simple/14.png,images/simple/18.png,images/simple/3.png,images/simple/7.png,images/simple/13.png,images/simple/1.png","1","null","","200","322.3549999995157","","","","background","",""
"","null","html-keyboard-response","172","182456","0.0-17.0-0.29","SS1604513254023","","null","","","","","","","","","","","","<img src=images/blank.png width =""500"" height = ""500"" style=""border:5px solid black"">","","",""
"","110.40499998489395","stimulus-presentation","173","182776","0.0-17.0-1.29","SS1604513254023","<img src='images/simple/2.png' width ='500' height = '500' style='border:5px solid black'>","40","all_simple","images/simple/17.png","images/simple/2.png","images/simple/16.png,images/simple/14.png,images/simple/18.png,images/simple/3.png,images/simple/7.png,images/simple/13.png,images/simple/1.png","1","null","","200","310.40499998489395","","","","background","",""
"","null","html-keyboard-response","174","183639","0.0-17.0-0.30","SS1604513254023","","null","","","","","","","","","","","","<img src=images/blank.png width =""500"" height = ""500"" style=""border:5px solid black"">","","",""
"","183.39500000001863","stimulus-presentation","175","184031","0.0-17.0-1.30","SS1604513254023","<img src='images/simple/2.png' width ='500' height = '500' style='border:5px solid black'>","40","all_simple","images/simple/17.png","images/simple/2.png","images/simple/16.png,images/simple/14.png,images/simple/18.png,images/simple/3.png,images/simple/7.png,images/simple/13.png,images/simple/1.png","1","null","","200","383.3950000000186","","","","background","",""
"","null","html-keyboard-response","176","184921","0.0-17.0-0.31","SS1604513254023","","null","","","","","","","","","","","","<img src=images/blank.png width =""500"" height = ""500"" style=""border:5px solid black"">","","",""
"","1686.7050000000745","stimulus-presentation","177","186815","0.0-17.0-1.31","SS1604513254023","<img src='images/simple/17.png' width ='500' height = '500' style='border:5px solid black'>","40","all_simple","images/simple/17.png","images/simple/2.png","images/simple/16.png,images/simple/14.png,images/simple/18.png,images/simple/3.png,images/simple/7.png,images/simple/13.png,images/simple/1.png","1","null","","200","1886.7050000000745","yes","318.5349999985192","","target","",""
"","null","html-keyboard-response","178","187896","0.0-17.0-0.32","SS1604513254023","","null","","","","","","","","","","","","<img src=images/blank.png width =""500"" height = ""500"" style=""border:5px solid black"">","","",""
"","110.71000000811182","stimulus-presentation","179","188215","0.0-17.0-1.32","SS1604513254023","<img src='images/simple/7.png' width ='500' height = '500' style='border:5px solid black'>","40","all_simple","images/simple/17.png","images/simple/2.png","images/simple/16.png,images/simple/14.png,images/simple/18.png,images/simple/3.png,images/simple/7.png,images/simple/13.png,images/simple/1.png","1","null","","200","310.7100000081118","","","","deviant","",""
"","null","html-keyboard-response","180","189341","0.0-17.0-0.33","SS1604513254023","","null","","","","","","","","","","","","<img src=images/blank.png width =""500"" height = ""500"" style=""border:5px solid black"">","","",""
"","49.33999999775551","stimulus-presentation","181","189598","0.0-17.0-1.33","SS1604513254023","<img src='images/simple/2.png' width ='500' height = '500' style='border:5px solid black'>","40","all_simple","images/simple/17.png","images/simple/2.png","images/simple/16.png,images/simple/14.png,images/simple/18.png,images/simple/3.png,images/simple/7.png,images/simple/13.png,images/simple/1.png","1","null","","200","249.3399999977555","","","","background","",""
"","null","html-keyboard-response","182","190640","0.0-17.0-0.34","SS1604513254023","","null","","","","","","","","","","","","<img src=images/blank.png width =""500"" height = ""500"" style=""border:5px solid black"">","","",""
"","111.29999998956919","stimulus-presentation","183","190959","0.0-17.0-1.34","SS1604513254023","<img src='images/simple/2.png' width ='500' height = '500' style='border:5px solid black'>","40","all_simple","images/simple/17.png","images/simple/2.png","images/simple/16.png,images/simple/14.png,images/simple/18.png,images/simple/3.png,images/simple/7.png,images/simple/13.png,images/simple/1.png","1","null","","200","311.2999999895692","","","","background","",""
"","null","html-keyboard-response","184","191945","0.0-17.0-0.35","SS1604513254023","","null","","","","","","","","","","","","<img src=images/blank.png width =""500"" height = ""500"" style=""border:5px solid black"">","","",""
"","126.11499999184161","stimulus-presentation","185","192278","0.0-17.0-1.35","SS1604513254023","<img src='images/simple/2.png' width ='500' height = '500' style='border:5px solid black'>","40","all_simple","images/simple/17.png","images/simple/2.png","images/simple/16.png,images/simple/14.png,images/simple/18.png,images/simple/3.png,images/simple/7.png,images/simple/13.png,images/simple/1.png","1","null","","200","326.1149999918416","","","","background","",""
"","null","html-keyboard-response","186","193400","0.0-17.0-0.36","SS1604513254023","","null","","","","","","","","","","","","<img src=images/blank.png width =""500"" height = ""500"" style=""border:5px solid black"">","","",""
"","151.46000002278015","stimulus-presentation","187","193760","0.0-17.0-1.36","SS1604513254023","<img src='images/simple/2.png' width ='500' height = '500' style='border:5px solid black'>","40","all_simple","images/simple/17.png","images/simple/2.png","images/simple/16.png,images/simple/14.png,images/simple/18.png,images/simple/3.png,images/simple/7.png,images/simple/13.png,images/simple/1.png","1","null","","200","351.46000002278015","","","","background","",""
"","null","html-keyboard-response","188","194713","0.0-17.0-0.37","SS1604513254023","","null","","","","","","","","","","","","<img src=images/blank.png width =""500"" height = ""500"" style=""border:5px solid black"">","","",""
"","182.4649999907706","stimulus-presentation","189","195103","0.0-17.0-1.37","SS1604513254023","<img src='images/simple/13.png' width ='500' height = '500' style='border:5px solid black'>","40","all_simple","images/simple/17.png","images/simple/2.png","images/simple/16.png,images/simple/14.png,images/simple/18.png,images/simple/3.png,images/simple/7.png,images/simple/13.png,images/simple/1.png","1","null","","200","382.4649999907706","","","","deviant","",""
"","null","html-keyboard-response","190","196098","0.0-17.0-0.38","SS1604513254023","","null","","","","","","","","","","","","<img src=images/blank.png width =""500"" height = ""500"" style=""border:5px solid black"">","","",""
"","172.01000000932254","stimulus-presentation","191","196478","0.0-17.0-1.38","SS1604513254023","<img src='images/simple/2.png' width ='500' height = '500' style='border:5px solid black'>","40","all_simple","images/simple/17.png","images/simple/2.png","images/simple/16.png,images/simple/14.png,images/simple/18.png,images/simple/3.png,images/simple/7.png,images/simple/13.png,images/simple/1.png","1","null","","200","372.01000000932254","","","","background","",""
"","null","html-keyboard-response","192","197533","0.0-17.0-0.39","SS1604513254023","","null","","","","","","","","","","","","<img src=images/blank.png width =""500"" height = ""500"" style=""border:5px solid black"">","","",""
"","128.9249999972526","stimulus-presentation","193","197870","0.0-17.0-1.39","SS1604513254023","<img src='images/simple/2.png' width ='500' height = '500' style='border:5px solid black'>","40","all_simple","images/simple/17.png","images/simple/2.png","images/simple/16.png,images/simple/14.png,images/simple/18.png,images/simple/3.png,images/simple/7.png,images/simple/13.png,images/simple/1.png","1","null","","200","328.9249999972526","","","","background","",""
"","null","html-keyboard-response","194","198889","0.0-17.0-0.40","SS1604513254023","","null","","","","","","","","","","","","<img src=images/blank.png width =""500"" height = ""500"" style=""border:5px solid black"">","","",""
"","165.99500001757406","stimulus-presentation","195","199262","0.0-17.0-1.40","SS1604513254023","<img src='images/simple/2.png' width ='500' height = '500' style='border:5px solid black'>","40","all_simple","images/simple/17.png","images/simple/2.png","images/simple/16.png,images/simple/14.png,images/simple/18.png,images/simple/3.png,images/simple/7.png,images/simple/13.png,images/simple/1.png","1","null","","200","365.99500001757406","","","","background","",""
"","null","html-keyboard-response","196","200487","0.0-17.0-0.41","SS1604513254023","","null","","","","","","","","","","","","<img src=images/blank.png width =""500"" height = ""500"" style=""border:5px solid black"">","","",""
"","166.31000000052154","stimulus-presentation","197","200863","0.0-17.0-1.41","SS1604513254023","<img src='images/simple/2.png' width ='500' height = '500' style='border:5px solid black'>","40","all_simple","images/simple/17.png","images/simple/2.png","images/simple/16.png,images/simple/14.png,images/simple/18.png,images/simple/3.png,images/simple/7.png,images/simple/13.png,images/simple/1.png","1","null","","200","366.31000000052154","","","","background","",""
"","null","html-keyboard-response","198","201950","0.0-17.0-0.42","SS1604513254023","","null","","","","","","","","","","","","<img src=images/blank.png width =""500"" height = ""500"" style=""border:5px solid black"">","","",""
"","159.53000000445172","stimulus-presentation","199","202318","0.0-17.0-1.42","SS1604513254023","<img src='images/simple/2.png' width ='500' height = '500' style='border:5px solid black'>","40","all_simple","images/simple/17.png","images/simple/2.png","images/simple/16.png,images/simple/14.png,images/simple/18.png,images/simple/3.png,images/simple/7.png,images/simple/13.png,images/simple/1.png","1","null","","200","359.5300000044517","","","","background","",""
"","null","html-keyboard-response","200","203603","0.0-17.0-0.43","SS1604513254023","","null","","","","","","","","","","","","<img src=images/blank.png width =""500"" height = ""500"" style=""border:5px solid black"">","","",""
"","1956.5399999846704","stimulus-presentation","201","205767","0.0-17.0-1.43","SS1604513254023","<img src='images/simple/17.png' width ='500' height = '500' style='border:5px solid black'>","40","all_simple","images/simple/17.png","images/simple/2.png","images/simple/16.png,images/simple/14.png,images/simple/18.png,images/simple/3.png,images/simple/7.png,images/simple/13.png,images/simple/1.png","1","null","","200","2156.5399999846704","yes","437.7199999871664","","target","",""
"","null","html-keyboard-response","202","206722","0.0-17.0-0.44","SS1604513254023","","null","","","","","","","","","","","","<img src=images/blank.png width =""500"" height = ""500"" style=""border:5px solid black"">","","",""
"","147.15000000433065","stimulus-presentation","203","207079","0.0-17.0-1.44","SS1604513254023","<img src='images/simple/2.png' width ='500' height = '500' style='border:5px solid black'>","40","all_simple","images/simple/17.png","images/simple/2.png","images/simple/16.png,images/simple/14.png,images/simple/18.png,images/simple/3.png,images/simple/7.png,images/simple/13.png,images/simple/1.png","1","null","","200","347.15000000433065","","","","background","",""
"","null","html-keyboard-response","204","208029","0.0-17.0-0.45","SS1604513254023","","null","","","","","","","","","","","","<img src=images/blank.png width =""500"" height = ""500"" style=""border:5px solid black"">","","",""
"","128.46999999601394","stimulus-presentation","205","208367","0.0-17.0-1.45","SS1604513254023","<img src='images/simple/2.png' width ='500' height = '500' style='border:5px solid black'>","40","all_simple","images/simple/17.png","images/simple/2.png","images/simple/16.png,images/simple/14.png,images/simple/18.png,images/simple/3.png,images/simple/7.png,images/simple/13.png,images/simple/1.png","1","null","","200","328.46999999601394","","","","background","",""
"","null","html-keyboard-response","206","209642","0.0-17.0-0.46","SS1604513254023","","null","","","","","","","","","","","","<img src=images/blank.png width =""500"" height = ""500"" style=""border:5px solid black"">","","",""
"","10.719999991124496","stimulus-presentation","207","209862","0.0-17.0-1.46","SS1604513254023","<img src='images/simple/2.png' width ='500' height = '500' style='border:5px solid black'>","40","all_simple","images/simple/17.png","images/simple/2.png","images/simple/16.png,images/simple/14.png,images/simple/18.png,images/simple/3.png,images/simple/7.png,images/simple/13.png,images/simple/1.png","1","null","","200","210.7199999911245","","","","background","",""
"","null","html-keyboard-response","208","211165","0.0-17.0-0.47","SS1604513254023","","null","","","","","","","","","","","","<img src=images/blank.png width =""500"" height = ""500"" style=""border:5px solid black"">","","",""
"","118.51000000024214","stimulus-presentation","209","211495","0.0-17.0-1.47","SS1604513254023","<img src='images/simple/2.png' width ='500' height = '500' style='border:5px solid black'>","40","all_simple","images/simple/17.png","images/simple/2.png","images/simple/16.png,images/simple/14.png,images/simple/18.png,images/simple/3.png,images/simple/7.png,images/simple/13.png,images/simple/1.png","1","null","","200","318.51000000024214","","","","background","",""
"","null","html-keyboard-response","210","212689","0.0-17.0-0.48","SS1604513254023","","null","","","","","","","","","","","","<img src=images/blank.png width =""500"" height = ""500"" style=""border:5px solid black"">","","",""
"","92.73999999277294","stimulus-presentation","211","212990","0.0-17.0-1.48","SS1604513254023","<img src='images/simple/2.png' width ='500' height = '500' style='border:5px solid black'>","40","all_simple","images/simple/17.png","images/simple/2.png","images/simple/16.png,images/simple/14.png,images/simple/18.png,images/simple/3.png,images/simple/7.png,images/simple/13.png,images/simple/1.png","1","null","","200","292.73999999277294","","","","background","",""
"[{""page_index"":0,""viewing_time"":2601}]","2602","task-instructions","212","215598","0.0-18.0","SS1604513254023","","","","","","","","","","","","","","","","",""
"[{""page_index"":0,""viewing_time"":875.1600000250619},{""page_index"":1,""viewing_time"":2305.129999993369},{""page_index"":2,""viewing_time"":1127.5000000023283}]","4308.149999997113","instructions","213","219913","0.0-19.0","SS1604513254023","","","","","","","","","","","","","","","","",""
"","null","html-keyboard-response","214","220858","0.0-20.0-0.0","SS1604513254023","","null","","","","","","","","","","","","<img src=images/blank.png width =""500"" height = ""500"" style=""border:5px solid black"">","","",""
"","402.9199999931734","stimulus-presentation","215","221470","0.0-20.0-1.0","SS1604513254023","<img src='images/simple/12.png' width ='500' height = '500' style='border:5px solid black'>","40","mixed_simple_deviant","images/complex/9.png","images/complex/16.png","images/simple/11.png,images/simple/12.png,images/simple/5.png,images/simple/10.png,images/simple/4.png,images/simple/9.png,images/simple/6.png","2","null","","200","602.9199999931734","","","","deviant","",""
"","null","html-keyboard-response","216","222692","0.0-20.0-0.1","SS1604513254023","","null","","","","","","","","","","","","<img src=images/blank.png width =""500"" height = ""500"" style=""border:5px solid black"">","","",""
"","377.9050000011921","stimulus-presentation","217","223279","0.0-20.0-1.1","SS1604513254023","<img src='images/complex/16.png' width ='500' height = '500' style='border:5px solid black'>","40","mixed_simple_deviant","images/complex/9.png","images/complex/16.png","images/simple/11.png,images/simple/12.png,images/simple/5.png,images/simple/10.png,images/simple/4.png,images/simple/9.png,images/simple/6.png","2","null","","200","577.9050000011921","","","","background","",""
"","null","html-keyboard-response","218","224362","0.0-20.0-0.2","SS1604513254023","","null","","","","","","","","","","","","<img src=images/blank.png width =""500"" height = ""500"" style=""border:5px solid black"">","","",""
"","164.92499999003485","stimulus-presentation","219","224735","0.0-20.0-1.2","SS1604513254023","<img src='images/complex/16.png' width ='500' height = '500' style='border:5px solid black'>","40","mixed_simple_deviant","images/complex/9.png","images/complex/16.png","images/simple/11.png,images/simple/12.png,images/simple/5.png,images/simple/10.png,images/simple/4.png,images/simple/9.png,images/simple/6.png","2","null","","200","364.92499999003485","","","","background","",""
"","null","html-keyboard-response","220","225567","0.0-20.0-0.3","SS1604513254023","","null","","","","","","","","","","","","<img src=images/blank.png width =""500"" height = ""500"" style=""border:5px solid black"">","","",""
"","174.01000001700595","stimulus-presentation","221","225952","0.0-20.0-1.3","SS1604513254023","<img src='images/complex/16.png' width ='500' height = '500' style='border:5px solid black'>","40","mixed_simple_deviant","images/complex/9.png","images/complex/16.png","images/simple/11.png,images/simple/12.png,images/simple/5.png,images/simple/10.png,images/simple/4.png,images/simple/9.png,images/simple/6.png","2","null","","200","374.01000001700595","","","","background","",""
"","null","html-keyboard-response","222","227079","0.0-20.0-0.4","SS1604513254023","","null","","","","","","","","","","","","<img src=images/blank.png width =""500"" height = ""500"" style=""border:5px solid black"">","","",""
"","142.74999999906868","stimulus-presentation","223","227432","0.0-20.0-1.4","SS1604513254023","<img src='images/complex/16.png' width ='500' height = '500' style='border:5px solid black'>","40","mixed_simple_deviant","images/complex/9.png","images/complex/16.png","images/simple/11.png,images/simple/12.png,images/simple/5.png,images/simple/10.png,images/simple/4.png,images/simple/9.png,images/simple/6.png","2","null","","200","342.7499999990687","","","","background","",""
"","null","html-keyboard-response","224","228682","0.0-20.0-0.5","SS1604513254023","","null","","","","","","","","","","","","<img src=images/blank.png width =""500"" height = ""500"" style=""border:5px solid black"">","","",""
"","189.00499999290332","stimulus-presentation","225","229079","0.0-20.0-1.5","SS1604513254023","<img src='images/simple/9.png' width ='500' height = '500' style='border:5px solid black'>","40","mixed_simple_deviant","images/complex/9.png","images/complex/16.png","images/simple/11.png,images/simple/12.png,images/simple/5.png,images/simple/10.png,images/simple/4.png,images/simple/9.png,images/simple/6.png","2","null","","200","389.0049999929033","","","","deviant","",""
"","null","html-keyboard-response","226","230333","0.0-20.0-0.6","SS1604513254023","","null","","","","","","","","","","","","<img src=images/blank.png width =""500"" height = ""500"" style=""border:5px solid black"">","","",""
"","150.85500001441687","stimulus-presentation","227","230695","0.0-20.0-1.6","SS1604513254023","<img src='images/complex/16.png' width ='500' height = '500' style='border:5px solid black'>","40","mixed_simple_deviant","images/complex/9.png","images/complex/16.png","images/simple/11.png,images/simple/12.png,images/simple/5.png,images/simple/10.png,images/simple/4.png,images/simple/9.png,images/simple/6.png","2","null","","200","350.8550000144169","","","","background","",""
"","null","html-keyboard-response","228","231759","0.0-20.0-0.7","SS1604513254023","","null","","","","","","","","","","","","<img src=images/blank.png width =""500"" height = ""500"" style=""border:5px solid black"">","","",""
"","167.05499999807216","stimulus-presentation","229","232135","0.0-20.0-1.7","SS1604513254023","<img src='images/complex/16.png' width ='500' height = '500' style='border:5px solid black'>","40","mixed_simple_deviant","images/complex/9.png","images/complex/16.png","images/simple/11.png,images/simple/12.png,images/simple/5.png,images/simple/10.png,images/simple/4.png,images/simple/9.png,images/simple/6.png","2","null","","200","367.05499999807216","","","","background","",""
"","null","html-keyboard-response","230","233292","0.0-20.0-0.8","SS1604513254023","","null","","","","","","","","","","","","<img src=images/blank.png width =""500"" height = ""500"" style=""border:5px solid black"">","","",""
"","131.09500001883134","stimulus-presentation","231","233631","0.0-20.0-1.8","SS1604513254023","<img src='images/complex/16.png' width ='500' height = '500' style='border:5px solid black'>","40","mixed_simple_deviant","images/complex/9.png","images/complex/16.png","images/simple/11.png,images/simple/12.png,images/simple/5.png,images/simple/10.png,images/simple/4.png,images/simple/9.png,images/simple/6.png","2","null","","200","331.09500001883134","","","","background","",""
"","null","html-keyboard-response","232","234618","0.0-20.0-0.9","SS1604513254023","","null","","","","","","","","","","","","<img src=images/blank.png width =""500"" height = ""500"" style=""border:5px solid black"">","","",""
"","139.9449999735225","stimulus-presentation","233","234967","0.0-20.0-1.9","SS1604513254023","<img src='images/complex/16.png' width ='500' height = '500' style='border:5px solid black'>","40","mixed_simple_deviant","images/complex/9.png","images/complex/16.png","images/simple/11.png,images/simple/12.png,images/simple/5.png,images/simple/10.png,images/simple/4.png,images/simple/9.png,images/simple/6.png","2","null","","200","339.9449999735225","","","","background","",""
"","null","html-keyboard-response","234","236234","0.0-20.0-0.10","SS1604513254023","","null","","","","","","","","","","","","<img src=images/blank.png width =""500"" height = ""500"" style=""border:5px solid black"">","","",""
"","155.79499999876134","stimulus-presentation","235","236600","0.0-20.0-1.10","SS1604513254023","<img src='images/simple/4.png' width ='500' height = '500' style='border:5px solid black'>","40","mixed_simple_deviant","images/complex/9.png","images/complex/16.png","images/simple/11.png,images/simple/12.png,images/simple/5.png,images/simple/10.png,images/simple/4.png,images/simple/9.png,images/simple/6.png","2","null","","200","355.79499999876134","","","","deviant","",""
"","null","html-keyboard-response","236","237708","0.0-20.0-0.11","SS1604513254023","","null","","","","","","","","","","","","<img src=images/blank.png width =""500"" height = ""500"" style=""border:5px solid black"">","","",""
"","180.00500000198372","stimulus-presentation","237","238096","0.0-20.0-1.11","SS1604513254023","<img src='images/complex/16.png' width ='500' height = '500' style='border:5px solid black'>","40","mixed_simple_deviant","images/complex/9.png","images/complex/16.png","images/simple/11.png,images/simple/12.png,images/simple/5.png,images/simple/10.png,images/simple/4.png,images/simple/9.png,images/simple/6.png","2","null","","200","380.0050000019837","","","","background","",""
"","null","html-keyboard-response","238","239196","0.0-20.0-0.12","SS1604513254023","","null","","","","","","","","","","","","<img src=images/blank.png width =""500"" height = ""500"" style=""border:5px solid black"">","","",""
"","145.74499998707324","stimulus-presentation","239","239551","0.0-20.0-1.12","SS1604513254023","<img src='images/complex/16.png' width ='500' height = '500' style='border:5px solid black'>","40","mixed_simple_deviant","images/complex/9.png","images/complex/16.png","images/simple/11.png,images/simple/12.png,images/simple/5.png,images/simple/10.png,images/simple/4.png,images/simple/9.png,images/simple/6.png","2","null","","200","345.74499998707324","","","","background","",""
"","null","html-keyboard-response","240","240856","0.0-20.0-0.13","SS1604513254023","","null","","","","","","","","","","","","<img src=images/blank.png width =""500"" height = ""500"" style=""border:5px solid black"">","","",""
"","121.19000000529923","stimulus-presentation","241","241199","0.0-20.0-1.13","SS1604513254023","<img src='images/complex/16.png' width ='500' height = '500' style='border:5px solid black'>","40","mixed_simple_deviant","images/complex/9.png","images/complex/16.png","images/simple/11.png,images/simple/12.png,images/simple/5.png,images/simple/10.png,images/simple/4.png,images/simple/9.png,images/simple/6.png","2","null","","200","321.1900000052992","","","","background","",""
"","null","html-keyboard-response","242","242011","0.0-20.0-0.14","SS1604513254023","","null","","","","","","","","","","","","<img src=images/blank.png width =""500"" height = ""500"" style=""border:5px solid black"">","","",""
"","234.87500002374873","stimulus-presentation","243","242455","0.0-20.0-1.14","SS1604513254023","<img src='images/complex/16.png' width ='500' height = '500' style='border:5px solid black'>","40","mixed_simple_deviant","images/complex/9.png","images/complex/16.png","images/simple/11.png,images/simple/12.png,images/simple/5.png,images/simple/10.png,images/simple/4.png,images/simple/9.png,images/simple/6.png","2","null","","200","434.8750000237487","","","","background","",""
"","null","html-keyboard-response","244","243377","0.0-20.0-0.15","SS1604513254023","","null","","","","","","","","","","","","<img src=images/blank.png width =""500"" height = ""500"" style=""border:5px solid black"">","","",""
"","115.5399999988731","stimulus-presentation","245","243703","0.0-20.0-1.15","SS1604513254023","<img src='images/complex/16.png' width ='500' height = '500' style='border:5px solid black'>","40","mixed_simple_deviant","images/complex/9.png","images/complex/16.png","images/simple/11.png,images/simple/12.png,images/simple/5.png,images/simple/10.png,images/simple/4.png,images/simple/9.png,images/simple/6.png","2","null","","200","315.5399999988731","","","","background","",""
"","null","html-keyboard-response","246","244779","0.0-20.0-0.16","SS1604513254023","","null","","","","","","","","","","","","<img src=images/blank.png width =""500"" height = ""500"" style=""border:5px solid black"">","","",""
"","322.29500001994893","stimulus-presentation","247","245311","0.0-20.0-1.16","SS1604513254023","<img src='images/simple/5.png' width ='500' height = '500' style='border:5px solid black'>","40","mixed_simple_deviant","images/complex/9.png","images/complex/16.png","images/simple/11.png,images/simple/12.png,images/simple/5.png,images/simple/10.png,images/simple/4.png,images/simple/9.png,images/simple/6.png","2","null","","200","522.2950000199489","","","","deviant","",""
"","null","html-keyboard-response","248","246343","0.0-20.0-0.17","SS1604513254023","","null","","","","","","","","","","","","<img src=images/blank.png width =""500"" height = ""500"" style=""border:5px solid black"">","","",""
"","95.12000001268461","stimulus-presentation","249","246648","0.0-20.0-1.17","SS1604513254023","<img src='images/complex/16.png' width ='500' height = '500' style='border:5px solid black'>","40","mixed_simple_deviant","images/complex/9.png","images/complex/16.png","images/simple/11.png,images/simple/12.png,images/simple/5.png,images/simple/10.png,images/simple/4.png,images/simple/9.png,images/simple/6.png","2","null","","200","295.1200000126846","","","","background","",""
"","null","html-keyboard-response","250","247809","0.0-20.0-0.18","SS1604513254023","","null","","","","","","","","","","","","<img src=images/blank.png width =""500"" height = ""500"" style=""border:5px solid black"">","","",""
"","118.31499999971129","stimulus-presentation","251","248135","0.0-20.0-1.18","SS1604513254023","<img src='images/complex/16.png' width ='500' height = '500' style='border:5px solid black'>","40","mixed_simple_deviant","images/complex/9.png","images/complex/16.png","images/simple/11.png,images/simple/12.png,images/simple/5.png,images/simple/10.png,images/simple/4.png,images/simple/9.png,images/simple/6.png","2","null","","200","318.3149999997113","","","","background","",""
"","null","html-keyboard-response","252","249005","0.0-20.0-0.19","SS1604513254023","","null","","","","","","","","","","","","<img src=images/blank.png width =""500"" height = ""500"" style=""border:5px solid black"">","","",""
"","126.80999998701736","stimulus-presentation","253","249343","0.0-20.0-1.19","SS1604513254023","<img src='images/complex/16.png' width ='500' height = '500' style='border:5px solid black'>","40","mixed_simple_deviant","images/complex/9.png","images/complex/16.png","images/simple/11.png,images/simple/12.png,images/simple/5.png,images/simple/10.png,images/simple/4.png,images/simple/9.png,images/simple/6.png","2","null","","200","326.80999998701736","","","","background","",""
"","null","html-keyboard-response","254","250343","0.0-20.0-0.20","SS1604513254023","","null","","","","","","","","","","","","<img src=images/blank.png width =""500"" height = ""500"" style=""border:5px solid black"">","","",""
"","103.95499999867752","stimulus-presentation","255","250655","0.0-20.0-1.20","SS1604513254023","<img src='images/complex/16.png' width ='500' height = '500' style='border:5px solid black'>","40","mixed_simple_deviant","images/complex/9.png","images/complex/16.png","images/simple/11.png,images/simple/12.png,images/simple/5.png,images/simple/10.png,images/simple/4.png,images/simple/9.png,images/simple/6.png","2","null","","200","303.9549999986775","","","","background","",""
"","null","html-keyboard-response","256","251930","0.0-20.0-0.21","SS1604513254023","","null","","","","","","","","","","","","<img src=images/blank.png width =""500"" height = ""500"" style=""border:5px solid black"">","","",""
"","110.67999998340383","stimulus-presentation","257","252255","0.0-20.0-1.21","SS1604513254023","<img src='images/complex/16.png' width ='500' height = '500' style='border:5px solid black'>","40","mixed_simple_deviant","images/complex/9.png","images/complex/16.png","images/simple/11.png,images/simple/12.png,images/simple/5.png,images/simple/10.png,images/simple/4.png,images/simple/9.png,images/simple/6.png","2","null","","200","310.67999998340383","","","","background","",""
"","null","html-keyboard-response","258","253406","0.0-20.0-0.22","SS1604513254023","","null","","","","","","","","","","","","<img src=images/blank.png width =""500"" height = ""500"" style=""border:5px solid black"">","","",""
"","62.455000006593764","stimulus-presentation","259","253680","0.0-20.0-1.22","SS1604513254023","<img src='images/complex/16.png' width ='500' height = '500' style='border:5px solid black'>","40","mixed_simple_deviant","images/complex/9.png","images/complex/16.png","images/simple/11.png,images/simple/12.png,images/simple/5.png,images/simple/10.png,images/simple/4.png,images/simple/9.png,images/simple/6.png","2","null","","200","262.45500000659376","","","","background","",""
"","null","html-keyboard-response","260","254624","0.0-20.0-0.23","SS1604513254023","","null","","","","","","","","","","","","<img src=images/blank.png width =""500"" height = ""500"" style=""border:5px solid black"">","","",""
"","838.1750000116881","stimulus-presentation","261","255671","0.0-20.0-1.23","SS1604513254023","<img src='images/complex/9.png' width ='500' height = '500' style='border:5px solid black'>","40","mixed_simple_deviant","images/complex/9.png","images/complex/16.png","images/simple/11.png,images/simple/12.png,images/simple/5.png,images/simple/10.png,images/simple/4.png,images/simple/9.png,images/simple/6.png","2","null","","200","1038.175000011688","yes","542.1550000028219","","target","",""
"","null","html-keyboard-response","262","256600","0.0-20.0-0.24","SS1604513254023","","null","","","","","","","","","","","","<img src=images/blank.png width =""500"" height = ""500"" style=""border:5px solid black"">","","",""
"","500.9600000048522","stimulus-presentation","263","257311","0.0-20.0-1.24","SS1604513254023","<img src='images/complex/9.png' width ='500' height = '500' style='border:5px solid black'>","40","mixed_simple_deviant","images/complex/9.png","images/complex/16.png","images/simple/11.png,images/simple/12.png,images/simple/5.png,images/simple/10.png,images/simple/4.png,images/simple/9.png,images/simple/6.png","2","null","","200","700.9600000048522","yes","310.6099999858998","","target","",""
"","null","html-keyboard-response","264","258303","0.0-20.0-0.25","SS1604513254023","","null","","","","","","","","","","","","<img src=images/blank.png width =""500"" height = ""500"" style=""border:5px solid black"">","","",""
"","189.87500001094304","stimulus-presentation","265","258703","0.0-20.0-1.25","SS1604513254023","<img src='images/complex/16.png' width ='500' height = '500' style='border:5px solid black'>","40","mixed_simple_deviant","images/complex/9.png","images/complex/16.png","images/simple/11.png,images/simple/12.png,images/simple/5.png,images/simple/10.png,images/simple/4.png,images/simple/9.png,images/simple/6.png","2","null","","200","389.87500001094304","","","","background","",""
"","null","html-keyboard-response","266","259585","0.0-20.0-0.26","SS1604513254023","","null","","","","","","","","","","","","<img src=images/blank.png width =""500"" height = ""500"" style=""border:5px solid black"">","","",""
"","27.35499999835156","stimulus-presentation","267","259823","0.0-20.0-1.26","SS1604513254023","<img src='images/complex/9.png' width ='500' height = '500' style='border:5px solid black'>","40","mixed_simple_deviant","images/complex/9.png","images/complex/16.png","images/simple/11.png,images/simple/12.png,images/simple/5.png,images/simple/10.png,images/simple/4.png,images/simple/9.png,images/simple/6.png","2","null","","200","227.35499999835156","","","","target","",""
"","null","html-keyboard-response","268","260934","0.0-20.0-0.27","SS1604513254023","","null","","","","","","","","","","","","<img src=images/blank.png width =""500"" height = ""500"" style=""border:5px solid black"">","","",""
"","326.0399999853689","stimulus-presentation","269","261471","0.0-20.0-1.27","SS1604513254023","<img src='images/complex/16.png' width ='500' height = '500' style='border:5px solid black'>","40","mixed_simple_deviant","images/complex/9.png","images/complex/16.png","images/simple/11.png,images/simple/12.png,images/simple/5.png,images/simple/10.png,images/simple/4.png,images/simple/9.png,images/simple/6.png","2","null","","200","526.0399999853689","","","","background","",""
"","null","html-keyboard-response","270","262749","0.0-20.0-0.28","SS1604513254023","","null","","","","","","","","","","","","<img src=images/blank.png width =""500"" height = ""500"" style=""border:5px solid black"">","","",""
"","169.51999999582767","stimulus-presentation","271","263127","0.0-20.0-1.28","SS1604513254023","<img src='images/complex/16.png' width ='500' height = '500' style='border:5px solid black'>","40","mixed_simple_deviant","images/complex/9.png","images/complex/16.png","images/simple/11.png,images/simple/12.png,images/simple/5.png,images/simple/10.png,images/simple/4.png,images/simple/9.png,images/simple/6.png","2","null","","200","369.5199999958277","","","","background","",""
"","null","html-keyboard-response","272","264052","0.0-20.0-0.29","SS1604513254023","","null","","","","","","","","","","","","<img src=images/blank.png width =""500"" height = ""500"" style=""border:5px solid black"">","","",""
"","170.05000001518056","stimulus-presentation","273","264431","0.0-20.0-1.29","SS1604513254023","<img src='images/complex/16.png' width ='500' height = '500' style='border:5px solid black'>","40","mixed_simple_deviant","images/complex/9.png","images/complex/16.png","images/simple/11.png,images/simple/12.png,images/simple/5.png,images/simple/10.png,images/simple/4.png,images/simple/9.png,images/simple/6.png","2","null","","200","370.05000001518056","","","","background","",""
"","null","html-keyboard-response","274","265396","0.0-20.0-0.30","SS1604513254023","","null","","","","","","","","","","","","<img src=images/blank.png width =""500"" height = ""500"" style=""border:5px solid black"">","","",""
"","145.45999999972992","stimulus-presentation","275","265751","0.0-20.0-1.30","SS1604513254023","<img src='images/complex/16.png' width ='500' height = '500' style='border:5px solid black'>","40","mixed_simple_deviant","images/complex/9.png","images/complex/16.png","images/simple/11.png,images/simple/12.png,images/simple/5.png,images/simple/10.png,images/simple/4.png,images/simple/9.png,images/simple/6.png","2","null","","200","345.4599999997299","","","","background","",""
"","null","html-keyboard-response","276","266602","0.0-20.0-0.31","SS1604513254023","","null","","","","","","","","","","","","<img src=images/blank.png width =""500"" height = ""500"" style=""border:5px solid black"">","","",""
"","532.6200000126846","stimulus-presentation","277","267344","0.0-20.0-1.31","SS1604513254023","<img src='images/simple/10.png' width ='500' height = '500' style='border:5px solid black'>","40","mixed_simple_deviant","images/complex/9.png","images/complex/16.png","images/simple/11.png,images/simple/12.png,images/simple/5.png,images/simple/10.png,images/simple/4.png,images/simple/9.png,images/simple/6.png","2","null","","200","732.6200000126846","","","","deviant","",""
"","null","html-keyboard-response","278","268515","0.0-20.0-0.32","SS1604513254023","","null","","","","","","","","","","","","<img src=images/blank.png width =""500"" height = ""500"" style=""border:5px solid black"">","","",""
"","171.2450000050012","stimulus-presentation","279","268895","0.0-20.0-1.32","SS1604513254023","<img src='images/complex/16.png' width ='500' height = '500' style='border:5px solid black'>","40","mixed_simple_deviant","images/complex/9.png","images/complex/16.png","images/simple/11.png,images/simple/12.png,images/simple/5.png,images/simple/10.png,images/simple/4.png,images/simple/9.png,images/simple/6.png","2","null","","200","371.2450000050012","","","","background","",""
"","null","html-keyboard-response","280","269799","0.0-20.0-0.33","SS1604513254023","","null","","","","","","","","","","","","<img src=images/blank.png width =""500"" height = ""500"" style=""border:5px solid black"">","","",""
"","198.9799999864772","stimulus-presentation","281","270207","0.0-20.0-1.33","SS1604513254023","<img src='images/complex/16.png' width ='500' height = '500' style='border:5px solid black'>","40","mixed_simple_deviant","images/complex/9.png","images/complex/16.png","images/simple/11.png,images/simple/12.png,images/simple/5.png,images/simple/10.png,images/simple/4.png,images/simple/9.png,images/simple/6.png","2","null","","200","398.9799999864772","","","","background","",""
"","null","html-keyboard-response","282","271382","0.0-20.0-0.34","SS1604513254023","","null","","","","","","","","","","","","<img src=images/blank.png width =""500"" height = ""500"" style=""border:5px solid black"">","","",""
"","168.9650000189431","stimulus-presentation","283","271759","0.0-20.0-1.34","SS1604513254023","<img src='images/complex/16.png' width ='500' height = '500' style='border:5px solid black'>","40","mixed_simple_deviant","images/complex/9.png","images/complex/16.png","images/simple/11.png,images/simple/12.png,images/simple/5.png,images/simple/10.png,images/simple/4.png,images/simple/9.png,images/simple/6.png","2","null","","200","368.9650000189431","","","","background","",""
"","null","html-keyboard-response","284","272734","0.0-20.0-0.35","SS1604513254023","","null","","","","","","","","","","","","<img src=images/blank.png width =""500"" height = ""500"" style=""border:5px solid black"">","","",""
