"view_history","rt","trial_type","trial_index","time_elapsed","internal_node_id","subject","trial_stimulus","key_press","task_type","task_target_stimulus","task_background_stimulus","task_deviant_stimuli","task_order_number","block_order_number","trial_order_number","minimum_viewing_duration","trial_looking_time","trial_pressed_space_bar","trial_space_bar_rt","stimulus","trial_stimulus_type","responses","question_order"
"[{""page_index"":0,""viewing_time"":4759.40000009723}]","4761.600000085309","instructions","0","4827","0.0-0.0","SS1604518916828","","","","","","","","","","","","","","","","",""
"[{""page_index"":0,""viewing_time"":13612.680000020191},{""page_index"":1,""viewing_time"":13967.814999865368},{""page_index"":2,""viewing_time"":9664.015000220388},{""page_index"":3,""viewing_time"":25111.399999819696},{""page_index"":4,""viewing_time"":10920.270000118762},{""page_index"":5,""viewing_time"":18335.844999877736},{""page_index"":6,""viewing_time"":8776.005000108853},{""page_index"":7,""viewing_time"":13687.489999923855},{""page_index"":8,""viewing_time"":7464.210000121966}]","121540.55500007235","instructions","1","126377","0.0-1.0","SS1604518916828","","","","","","","","","","","","","","","","",""
"[{""page_index"":0,""viewing_time"":23161.77500016056},{""page_index"":1,""viewing_time"":6311.944999964908},{""page_index"":2,""viewing_time"":2912.3700000345707}]","32387.000000104308","instructions","2","158769","0.0-2.0","SS1604518916828","","","","","","","","","","","","","","","","",""
"","2511.2600000575185","practice-block","3","161488","0.0-3.0","SS1604518916828","<img src='images/practice/practice_background.jpeg' width ='500' height = '500' style='border:5px solid black'>","40","null","images/practice/practice_target.jpg","null","null","null","null","","200","2711.2600000575185","","","","","",""
"","null","html-keyboard-response","4","162477","0.0-4.0","SS1604518916828","","null","","","","","","","","","","","","<img src=images/blank.png width =""500"" height = ""500"" style=""border:5px solid black"">","","",""
"","1312.5199999194592","practice-block","5","163999","0.0-5.0","SS1604518916828","<img src='images/practice/practice_background.jpeg' width ='500' height = '500' style='border:5px solid black'>","40","null","images/practice/practice_target.jpg","null","null","null","null","","200","1512.5199999194592","","","","","",""
"","null","html-keyboard-response","6","165000","0.0-6.0","SS1604518916828","","null","","","","","","","","","","","","<img src=images/blank.png width =""500"" height = ""500"" style=""border:5px solid black"">","","",""
"","1315.7999999821186","practice-block","7","166527","0.0-7.0","SS1604518916828","<img src='images/practice/practice_deviant.jpeg' width ='500' height = '500' style='border:5px solid black'>","40","null","images/practice/practice_target.jpg","null","null","null","null","","200","1515.7999999821186","","","","","",""
"","null","html-keyboard-response","8","167735","0.0-8.0","SS1604518916828","","null","","","","","","","","","","","","<img src=images/blank.png width =""500"" height = ""500"" style=""border:5px solid black"">","","",""
"","1014.035000000149","practice-block","9","171920","0.0-9.0-0.0","SS1604518916828","<img src='images/practice/practice_target.jpg' width ='500' height = '500' style='border:5px solid black'>","40","null","images/practice/practice_target.jpg","null","null","null","null","","200","1214.035000000149","","","","","",""
"","13276.035000104457","practice-block","10","185409","0.0-9.1-0.1","SS1604518916828","<img src='images/practice/practice_target.jpg' width ='500' height = '500' style='border:5px solid black'>","40","null","images/practice/practice_target.jpg","null","null","null","null","","200","13476.035000104457","yes","5562.990000005811","","","",""
"","null","html-keyboard-response","11","186556","0.0-10.0","SS1604518916828","","null","","","","","","","","","","","","<img src=images/blank.png width =""500"" height = ""500"" style=""border:5px solid black"">","","",""
"","1669.1499999724329","practice-block","12","188432","0.0-11.0","SS1604518916828","<img src='images/practice/practice_background.jpeg' width ='500' height = '500' style='border:5px solid black'>","40","null","images/practice/practice_target.jpg","null","null","null","null","","200","1869.1499999724329","","","","","",""
"[{""page_index"":0,""viewing_time"":2563}]","2564","task-instructions","13","191001","0.0-12.0","SS1604518916828","","","","","","","","","","","","","","","","",""
"[{""page_index"":0,""viewing_time"":1338.9350001234561},{""page_index"":1,""viewing_time"":14088.714999845251},{""page_index"":2,""viewing_time"":1231.1650000046939}]","16659.89000000991","instructions","14","207665","0.0-13.0","SS1604518916828","","","","","","","","","","","","","","","","",""
"","null","html-keyboard-response","15","208817","0.0-14.0-0.0","SS1604518916828","","null","","","","","","","","","","","","<img src=images/blank.png width =""500"" height = ""500"" style=""border:5px solid black"">","","",""
"","1620.9200001321733","stimulus-presentation","16","210649","0.0-14.0-1.0","SS1604518916828","<img src='images/complex/8.png' width ='500' height = '500' style='border:5px solid black'>","40","all_complex","images/complex/8.png","images/complex/4.png","images/complex/9.png,images/complex/15.png,images/complex/5.png,images/complex/18.png,images/complex/16.png,images/complex/1.png,images/complex/7.png","0","null","","200","1820.9200001321733","","","","target","",""
"","null","html-keyboard-response","17","211818","0.0-14.0-0.1","SS1604518916828","","null","","","","","","","","","","","","<img src=images/blank.png width =""500"" height = ""500"" style=""border:5px solid black"">","","",""
"","1161.9400000199676","stimulus-presentation","18","213192","0.0-14.0-1.1","SS1604518916828","<img src='images/complex/4.png' width ='500' height = '500' style='border:5px solid black'>","40","all_complex","images/complex/8.png","images/complex/4.png","images/complex/9.png,images/complex/15.png,images/complex/5.png,images/complex/18.png,images/complex/16.png,images/complex/1.png,images/complex/7.png","0","null","","200","1361.9400000199676","","","","background","",""
"","null","html-keyboard-response","19","214158","0.0-14.0-0.2","SS1604518916828","","null","","","","","","","","","","","","<img src=images/blank.png width =""500"" height = ""500"" style=""border:5px solid black"">","","",""
"","1224.5699998456985","stimulus-presentation","20","215592","0.0-14.0-1.2","SS1604518916828","<img src='images/complex/4.png' width ='500' height = '500' style='border:5px solid black'>","40","all_complex","images/complex/8.png","images/complex/4.png","images/complex/9.png,images/complex/15.png,images/complex/5.png,images/complex/18.png,images/complex/16.png,images/complex/1.png,images/complex/7.png","0","null","","200","1424.5699998456985","","","","background","",""
"","null","html-keyboard-response","21","216415","0.0-14.0-0.3","SS1604518916828","","null","","","","","","","","","","","","<img src=images/blank.png width =""500"" height = ""500"" style=""border:5px solid black"">","","",""
"","867.7850000094622","stimulus-presentation","22","217489","0.0-14.0-1.3","SS1604518916828","<img src='images/complex/4.png' width ='500' height = '500' style='border:5px solid black'>","40","all_complex","images/complex/8.png","images/complex/4.png","images/complex/9.png,images/complex/15.png,images/complex/5.png,images/complex/18.png,images/complex/16.png,images/complex/1.png,images/complex/7.png","0","null","","200","1067.7850000094622","","","","background","",""
"","null","html-keyboard-response","23","218660","0.0-14.0-0.4","SS1604518916828","","null","","","","","","","","","","","","<img src=images/blank.png width =""500"" height = ""500"" style=""border:5px solid black"">","","",""
"","484.5249999780208","stimulus-presentation","24","219352","0.0-14.0-1.4","SS1604518916828","<img src='images/complex/5.png' width ='500' height = '500' style='border:5px solid black'>","40","all_complex","images/complex/8.png","images/complex/4.png","images/complex/9.png,images/complex/15.png,images/complex/5.png,images/complex/18.png,images/complex/16.png,images/complex/1.png,images/complex/7.png","0","null","","200","684.5249999780208","","","","deviant","",""
"","null","html-keyboard-response","25","220635","0.0-14.0-0.5","SS1604518916828","","null","","","","","","","","","","","","<img src=images/blank.png width =""500"" height = ""500"" style=""border:5px solid black"">","","",""
"","486.3250001799315","stimulus-presentation","26","221327","0.0-14.0-1.5","SS1604518916828","<img src='images/complex/4.png' width ='500' height = '500' style='border:5px solid black'>","40","all_complex","images/complex/8.png","images/complex/4.png","images/complex/9.png,images/complex/15.png,images/complex/5.png,images/complex/18.png,images/complex/16.png,images/complex/1.png,images/complex/7.png","0","null","","200","686.3250001799315","","","","background","",""
"","null","html-keyboard-response","27","222167","0.0-14.0-0.6","SS1604518916828","","null","","","","","","","","","","","","<img src=images/blank.png width =""500"" height = ""500"" style=""border:5px solid black"">","","",""
"","338.3449998218566","stimulus-presentation","28","222712","0.0-14.0-1.6","SS1604518916828","<img src='images/complex/4.png' width ='500' height = '500' style='border:5px solid black'>","40","all_complex","images/complex/8.png","images/complex/4.png","images/complex/9.png,images/complex/15.png,images/complex/5.png,images/complex/18.png,images/complex/16.png,images/complex/1.png,images/complex/7.png","0","null","","200","538.3449998218566","","","","background","",""
"","null","html-keyboard-response","29","223797","0.0-14.0-0.7","SS1604518916828","","null","","","","","","","","","","","","<img src=images/blank.png width =""500"" height = ""500"" style=""border:5px solid black"">","","",""
"","298.9850000012666","stimulus-presentation","30","224303","0.0-14.0-1.7","SS1604518916828","<img src='images/complex/4.png' width ='500' height = '500' style='border:5px solid black'>","40","all_complex","images/complex/8.png","images/complex/4.png","images/complex/9.png,images/complex/15.png,images/complex/5.png,images/complex/18.png,images/complex/16.png,images/complex/1.png,images/complex/7.png","0","null","","200","498.9850000012666","","","","background","",""
"","null","html-keyboard-response","31","225318","0.0-14.0-0.8","SS1604518916828","","null","","","","","","","","","","","","<img src=images/blank.png width =""500"" height = ""500"" style=""border:5px solid black"">","","",""
"","354.74999994039536","stimulus-presentation","32","225879","0.0-14.0-1.8","SS1604518916828","<img src='images/complex/4.png' width ='500' height = '500' style='border:5px solid black'>","40","all_complex","images/complex/8.png","images/complex/4.png","images/complex/9.png,images/complex/15.png,images/complex/5.png,images/complex/18.png,images/complex/16.png,images/complex/1.png,images/complex/7.png","0","null","","200","554.7499999403954","","","","background","",""
"","null","html-keyboard-response","33","227072","0.0-14.0-0.9","SS1604518916828","","null","","","","","","","","","","","","<img src=images/blank.png width =""500"" height = ""500"" style=""border:5px solid black"">","","",""
"","391.94500003941357","stimulus-presentation","34","227672","0.0-14.0-1.9","SS1604518916828","<img src='images/complex/4.png' width ='500' height = '500' style='border:5px solid black'>","40","all_complex","images/complex/8.png","images/complex/4.png","images/complex/9.png,images/complex/15.png,images/complex/5.png,images/complex/18.png,images/complex/16.png,images/complex/1.png,images/complex/7.png","0","null","","200","591.9450000394136","","","","background","",""
"","null","html-keyboard-response","35","228646","0.0-14.0-0.10","SS1604518916828","","null","","","","","","","","","","","","<img src=images/blank.png width =""500"" height = ""500"" style=""border:5px solid black"">","","",""
"","529.7250000294298","stimulus-presentation","36","229383","0.0-14.0-1.10","SS1604518916828","<img src='images/complex/9.png' width ='500' height = '500' style='border:5px solid black'>","40","all_complex","images/complex/8.png","images/complex/4.png","images/complex/9.png,images/complex/15.png,images/complex/5.png,images/complex/18.png,images/complex/16.png,images/complex/1.png,images/complex/7.png","0","null","","200","729.7250000294298","","","","deviant","",""
"","null","html-keyboard-response","37","230628","0.0-14.0-0.11","SS1604518916828","","null","","","","","","","","","","","","<img src=images/blank.png width =""500"" height = ""500"" style=""border:5px solid black"">","","",""
"","414.3999998923391","stimulus-presentation","38","231250","0.0-14.0-1.11","SS1604518916828","<img src='images/complex/4.png' width ='500' height = '500' style='border:5px solid black'>","40","all_complex","images/complex/8.png","images/complex/4.png","images/complex/9.png,images/complex/15.png,images/complex/5.png,images/complex/18.png,images/complex/16.png,images/complex/1.png,images/complex/7.png","0","null","","200","614.3999998923391","","","","background","",""
"","null","html-keyboard-response","39","232144","0.0-14.0-0.12","SS1604518916828","","null","","","","","","","","","","","","<img src=images/blank.png width =""500"" height = ""500"" style=""border:5px solid black"">","","",""
"","303.54500003159046","stimulus-presentation","40","232655","0.0-14.0-1.12","SS1604518916828","<img src='images/complex/4.png' width ='500' height = '500' style='border:5px solid black'>","40","all_complex","images/complex/8.png","images/complex/4.png","images/complex/9.png,images/complex/15.png,images/complex/5.png,images/complex/18.png,images/complex/16.png,images/complex/1.png,images/complex/7.png","0","null","","200","503.54500003159046","","","","background","",""
"","null","html-keyboard-response","41","233624","0.0-14.0-0.13","SS1604518916828","","null","","","","","","","","","","","","<img src=images/blank.png width =""500"" height = ""500"" style=""border:5px solid black"">","","",""
"","664.5200001075864","stimulus-presentation","42","234495","0.0-14.0-1.13","SS1604518916828","<img src='images/complex/18.png' width ='500' height = '500' style='border:5px solid black'>","40","all_complex","images/complex/8.png","images/complex/4.png","images/complex/9.png,images/complex/15.png,images/complex/5.png,images/complex/18.png,images/complex/16.png,images/complex/1.png,images/complex/7.png","0","null","","200","864.5200001075864","","","","deviant","",""
"","null","html-keyboard-response","43","235723","0.0-14.0-0.14","SS1604518916828","","null","","","","","","","","","","","","<img src=images/blank.png width =""500"" height = ""500"" style=""border:5px solid black"">","","",""
"","1209.1300000902265","stimulus-presentation","44","237143","0.0-14.0-1.14","SS1604518916828","<img src='images/complex/8.png' width ='500' height = '500' style='border:5px solid black'>","40","all_complex","images/complex/8.png","images/complex/4.png","images/complex/9.png,images/complex/15.png,images/complex/5.png,images/complex/18.png,images/complex/16.png,images/complex/1.png,images/complex/7.png","0","null","","200","1409.1300000902265","","","","target","",""
"","null","html-keyboard-response","45","238049","0.0-14.0-0.15","SS1604518916828","","null","","","","","","","","","","","","<img src=images/blank.png width =""500"" height = ""500"" style=""border:5px solid black"">","","",""
"","1408.3050000481308","stimulus-presentation","46","239664","0.0-14.0-1.15","SS1604518916828","<img src='images/complex/4.png' width ='500' height = '500' style='border:5px solid black'>","40","all_complex","images/complex/8.png","images/complex/4.png","images/complex/9.png,images/complex/15.png,images/complex/5.png,images/complex/18.png,images/complex/16.png,images/complex/1.png,images/complex/7.png","0","null","","200","1608.3050000481308","","","","background","",""
"","null","html-keyboard-response","47","240928","0.0-14.0-0.16","SS1604518916828","","null","","","","","","","","","","","","<img src=images/blank.png width =""500"" height = ""500"" style=""border:5px solid black"">","","",""
"","1183.8650000281632","stimulus-presentation","48","242319","0.0-14.0-1.16","SS1604518916828","<img src='images/complex/4.png' width ='500' height = '500' style='border:5px solid black'>","40","all_complex","images/complex/8.png","images/complex/4.png","images/complex/9.png,images/complex/15.png,images/complex/5.png,images/complex/18.png,images/complex/16.png,images/complex/1.png,images/complex/7.png","0","null","","200","1383.8650000281632","","","","background","",""
"","null","html-keyboard-response","49","243140","0.0-14.0-0.17","SS1604518916828","","null","","","","","","","","","","","","<img src=images/blank.png width =""500"" height = ""500"" style=""border:5px solid black"">","","",""
"","643.8349999953061","stimulus-presentation","50","243991","0.0-14.0-1.17","SS1604518916828","<img src='images/complex/4.png' width ='500' height = '500' style='border:5px solid black'>","40","all_complex","images/complex/8.png","images/complex/4.png","images/complex/9.png,images/complex/15.png,images/complex/5.png,images/complex/18.png,images/complex/16.png,images/complex/1.png,images/complex/7.png","0","null","","200","843.8349999953061","","","","background","",""
"","null","html-keyboard-response","51","245189","0.0-14.0-0.18","SS1604518916828","","null","","","","","","","","","","","","<img src=images/blank.png width =""500"" height = ""500"" style=""border:5px solid black"">","","",""
"","1107.7799999620765","stimulus-presentation","52","246503","0.0-14.0-1.18","SS1604518916828","<img src='images/complex/8.png' width ='500' height = '500' style='border:5px solid black'>","40","all_complex","images/complex/8.png","images/complex/4.png","images/complex/9.png,images/complex/15.png,images/complex/5.png,images/complex/18.png,images/complex/16.png,images/complex/1.png,images/complex/7.png","0","null","","200","1307.7799999620765","","","","target","",""
"","null","html-keyboard-response","53","247455","0.0-14.0-0.19","SS1604518916828","","null","","","","","","","","","","","","<img src=images/blank.png width =""500"" height = ""500"" style=""border:5px solid black"">","","",""
"","1248.3800000045449","stimulus-presentation","54","248911","0.0-14.0-1.19","SS1604518916828","<img src='images/complex/4.png' width ='500' height = '500' style='border:5px solid black'>","40","all_complex","images/complex/8.png","images/complex/4.png","images/complex/9.png,images/complex/15.png,images/complex/5.png,images/complex/18.png,images/complex/16.png,images/complex/1.png,images/complex/7.png","0","null","","200","1448.3800000045449","","","","background","",""
"","null","html-keyboard-response","55","250160","0.0-14.0-0.20","SS1604518916828","","null","","","","","","","","","","","","<img src=images/blank.png width =""500"" height = ""500"" style=""border:5px solid black"">","","",""
"","279.74500018171966","stimulus-presentation","56","250648","0.0-14.0-1.20","SS1604518916828","<img src='images/complex/4.png' width ='500' height = '500' style='border:5px solid black'>","40","all_complex","images/complex/8.png","images/complex/4.png","images/complex/9.png,images/complex/15.png,images/complex/5.png,images/complex/18.png,images/complex/16.png,images/complex/1.png,images/complex/7.png","0","null","","200","479.74500018171966","","","","background","",""
"","null","html-keyboard-response","57","251940","0.0-14.0-0.21","SS1604518916828","","null","","","","","","","","","","","","<img src=images/blank.png width =""500"" height = ""500"" style=""border:5px solid black"">","","",""
"","1486.2649999558926","stimulus-presentation","58","253639","0.0-14.0-1.21","SS1604518916828","<img src='images/complex/7.png' width ='500' height = '500' style='border:5px solid black'>","40","all_complex","images/complex/8.png","images/complex/4.png","images/complex/9.png,images/complex/15.png,images/complex/5.png,images/complex/18.png,images/complex/16.png,images/complex/1.png,images/complex/7.png","0","null","","200","1686.2649999558926","","","","deviant","",""
"","null","html-keyboard-response","59","254591","0.0-14.0-0.22","SS1604518916828","","null","","","","","","","","","","","","<img src=images/blank.png width =""500"" height = ""500"" style=""border:5px solid black"">","","",""
"","1261.5799999330193","stimulus-presentation","60","256063","0.0-14.0-1.22","SS1604518916828","<img src='images/complex/4.png' width ='500' height = '500' style='border:5px solid black'>","40","all_complex","images/complex/8.png","images/complex/4.png","images/complex/9.png,images/complex/15.png,images/complex/5.png,images/complex/18.png,images/complex/16.png,images/complex/1.png,images/complex/7.png","0","null","","200","1461.5799999330193","","","","background","",""
"","null","html-keyboard-response","61","257362","0.0-14.0-0.23","SS1604518916828","","null","","","","","","","","","","","","<img src=images/blank.png width =""500"" height = ""500"" style=""border:5px solid black"">","","",""
"","1810.920000076294","stimulus-presentation","62","259383","0.0-14.0-1.23","SS1604518916828","<img src='images/complex/8.png' width ='500' height = '500' style='border:5px solid black'>","40","all_complex","images/complex/8.png","images/complex/4.png","images/complex/9.png,images/complex/15.png,images/complex/5.png,images/complex/18.png,images/complex/16.png,images/complex/1.png,images/complex/7.png","0","null","","200","2010.920000076294","","","","target","",""
"","null","html-keyboard-response","63","260248","0.0-14.0-0.24","SS1604518916828","","null","","","","","","","","","","","","<img src=images/blank.png width =""500"" height = ""500"" style=""border:5px solid black"">","","",""
"","1183.9999998919666","stimulus-presentation","64","261640","0.0-14.0-1.24","SS1604518916828","<img src='images/complex/8.png' width ='500' height = '500' style='border:5px solid black'>","40","all_complex","images/complex/8.png","images/complex/4.png","images/complex/9.png,images/complex/15.png,images/complex/5.png,images/complex/18.png,images/complex/16.png,images/complex/1.png,images/complex/7.png","0","null","","200","1383.9999998919666","","","","target","",""
"","null","html-keyboard-response","65","262737","0.0-14.0-0.25","SS1604518916828","","null","","","","","","","","","","","","<img src=images/blank.png width =""500"" height = ""500"" style=""border:5px solid black"">","","",""
"","240.7299999613315","stimulus-presentation","66","263191","0.0-14.0-1.25","SS1604518916828","<img src='images/complex/8.png' width ='500' height = '500' style='border:5px solid black'>","40","all_complex","images/complex/8.png","images/complex/4.png","images/complex/9.png,images/complex/15.png,images/complex/5.png,images/complex/18.png,images/complex/16.png,images/complex/1.png,images/complex/7.png","0","null","","200","440.7299999613315","","","","target","",""
"","null","html-keyboard-response","67","264191","0.0-14.0-0.26","SS1604518916828","","null","","","","","","","","","","","","<img src=images/blank.png width =""500"" height = ""500"" style=""border:5px solid black"">","","",""
"","1175.715000135824","stimulus-presentation","68","265575","0.0-14.0-1.26","SS1604518916828","<img src='images/complex/4.png' width ='500' height = '500' style='border:5px solid black'>","40","all_complex","images/complex/8.png","images/complex/4.png","images/complex/9.png,images/complex/15.png,images/complex/5.png,images/complex/18.png,images/complex/16.png,images/complex/1.png,images/complex/7.png","0","null","","200","1375.715000135824","","","","background","",""
"","null","html-keyboard-response","69","266571","0.0-14.0-0.27","SS1604518916828","","null","","","","","","","","","","","","<img src=images/blank.png width =""500"" height = ""500"" style=""border:5px solid black"">","","",""
"","403.73499994166195","stimulus-presentation","70","267183","0.0-14.0-1.27","SS1604518916828","<img src='images/complex/4.png' width ='500' height = '500' style='border:5px solid black'>","40","all_complex","images/complex/8.png","images/complex/4.png","images/complex/9.png,images/complex/15.png,images/complex/5.png,images/complex/18.png,images/complex/16.png,images/complex/1.png,images/complex/7.png","0","null","","200","603.734999941662","","","","background","",""
"","null","html-keyboard-response","71","268266","0.0-14.0-0.28","SS1604518916828","","null","","","","","","","","","","","","<img src=images/blank.png width =""500"" height = ""500"" style=""border:5px solid black"">","","",""
"","252.42499983869493","stimulus-presentation","72","268735","0.0-14.0-1.28","SS1604518916828","<img src='images/complex/4.png' width ='500' height = '500' style='border:5px solid black'>","40","all_complex","images/complex/8.png","images/complex/4.png","images/complex/9.png,images/complex/15.png,images/complex/5.png,images/complex/18.png,images/complex/16.png,images/complex/1.png,images/complex/7.png","0","null","","200","452.42499983869493","","","","background","",""
"","null","html-keyboard-response","73","269672","0.0-14.0-0.29","SS1604518916828","","null","","","","","","","","","","","","<img src=images/blank.png width =""500"" height = ""500"" style=""border:5px solid black"">","","",""
"","3584.6599999349564","stimulus-presentation","74","273464","0.0-14.0-1.29","SS1604518916828","<img src='images/complex/15.png' width ='500' height = '500' style='border:5px solid black'>","40","all_complex","images/complex/8.png","images/complex/4.png","images/complex/9.png,images/complex/15.png,images/complex/5.png,images/complex/18.png,images/complex/16.png,images/complex/1.png,images/complex/7.png","0","null","","200","3784.6599999349564","","","","deviant","",""
"","null","html-keyboard-response","75","274706","0.0-14.0-0.30","SS1604518916828","","null","","","","","","","","","","","","<img src=images/blank.png width =""500"" height = ""500"" style=""border:5px solid black"">","","",""
"","676.2399999424815","stimulus-presentation","76","275591","0.0-14.0-1.30","SS1604518916828","<img src='images/complex/4.png' width ='500' height = '500' style='border:5px solid black'>","40","all_complex","images/complex/8.png","images/complex/4.png","images/complex/9.png,images/complex/15.png,images/complex/5.png,images/complex/18.png,images/complex/16.png,images/complex/1.png,images/complex/7.png","0","null","","200","876.2399999424815","","","","background","",""
"","null","html-keyboard-response","77","276755","0.0-14.0-0.31","SS1604518916828","","null","","","","","","","","","","","","<img src=images/blank.png width =""500"" height = ""500"" style=""border:5px solid black"">","","",""
"","691.8399999849498","stimulus-presentation","78","277654","0.0-14.0-1.31","SS1604518916828","<img src='images/complex/8.png' width ='500' height = '500' style='border:5px solid black'>","40","all_complex","images/complex/8.png","images/complex/4.png","images/complex/9.png,images/complex/15.png,images/complex/5.png,images/complex/18.png,images/complex/16.png,images/complex/1.png,images/complex/7.png","0","null","","200","891.8399999849498","","","","target","",""
"","null","html-keyboard-response","79","278643","0.0-14.0-0.32","SS1604518916828","","null","","","","","","","","","","","","<img src=images/blank.png width =""500"" height = ""500"" style=""border:5px solid black"">","","",""
"","226.95499984547496","stimulus-presentation","80","279079","0.0-14.0-1.32","SS1604518916828","<img src='images/complex/4.png' width ='500' height = '500' style='border:5px solid black'>","40","all_complex","images/complex/8.png","images/complex/4.png","images/complex/9.png,images/complex/15.png,images/complex/5.png,images/complex/18.png,images/complex/16.png,images/complex/1.png,images/complex/7.png","0","null","","200","426.95499984547496","","","","background","",""
"","null","html-keyboard-response","81","279947","0.0-14.0-0.33","SS1604518916828","","null","","","","","","","","","","","","<img src=images/blank.png width =""500"" height = ""500"" style=""border:5px solid black"">","","",""
"","313.7399998959154","stimulus-presentation","82","280471","0.0-14.0-1.33","SS1604518916828","<img src='images/complex/4.png' width ='500' height = '500' style='border:5px solid black'>","40","all_complex","images/complex/8.png","images/complex/4.png","images/complex/9.png,images/complex/15.png,images/complex/5.png,images/complex/18.png,images/complex/16.png,images/complex/1.png,images/complex/7.png","0","null","","200","513.7399998959154","","","","background","",""
"","null","html-keyboard-response","83","281761","0.0-14.0-0.34","SS1604518916828","","null","","","","","","","","","","","","<img src=images/blank.png width =""500"" height = ""500"" style=""border:5px solid black"">","","",""
"","611.4600000437349","stimulus-presentation","84","282622","0.0-14.0-1.34","SS1604518916828","<img src='images/complex/1.png' width ='500' height = '500' style='border:5px solid black'>","40","all_complex","images/complex/8.png","images/complex/4.png","images/complex/9.png,images/complex/15.png,images/complex/5.png,images/complex/18.png,images/complex/16.png,images/complex/1.png,images/complex/7.png","0","null","","200","811.4600000437349","","","","deviant","",""
"","null","html-keyboard-response","85","283577","0.0-14.0-0.35","SS1604518916828","","null","","","","","","","","","","","","<img src=images/blank.png width =""500"" height = ""500"" style=""border:5px solid black"">","","",""
"","2078.944999957457","stimulus-presentation","86","285864","0.0-14.0-1.35","SS1604518916828","<img src='images/complex/4.png' width ='500' height = '500' style='border:5px solid black'>","40","all_complex","images/complex/8.png","images/complex/4.png","images/complex/9.png,images/complex/15.png,images/complex/5.png,images/complex/18.png,images/complex/16.png,images/complex/1.png,images/complex/7.png","0","null","","200","2278.944999957457","","","","background","",""
"","null","html-keyboard-response","87","286806","0.0-14.0-0.36","SS1604518916828","","null","","","","","","","","","","","","<img src=images/blank.png width =""500"" height = ""500"" style=""border:5px solid black"">","","",""
"","377.3849999997765","stimulus-presentation","88","287391","0.0-14.0-1.36","SS1604518916828","<img src='images/complex/4.png' width ='500' height = '500' style='border:5px solid black'>","40","all_complex","images/complex/8.png","images/complex/4.png","images/complex/9.png,images/complex/15.png,images/complex/5.png,images/complex/18.png,images/complex/16.png,images/complex/1.png,images/complex/7.png","0","null","","200","577.3849999997765","","","","background","",""
"","null","html-keyboard-response","89","288490","0.0-14.0-0.37","SS1604518916828","","null","","","","","","","","","","","","<img src=images/blank.png width =""500"" height = ""500"" style=""border:5px solid black"">","","",""
"","219.35999998822808","stimulus-presentation","90","288919","0.0-14.0-1.37","SS1604518916828","<img src='images/complex/4.png' width ='500' height = '500' style='border:5px solid black'>","40","all_complex","images/complex/8.png","images/complex/4.png","images/complex/9.png,images/complex/15.png,images/complex/5.png,images/complex/18.png,images/complex/16.png,images/complex/1.png,images/complex/7.png","0","null","","200","419.3599999882281","","","","background","",""
"","null","html-keyboard-response","91","290101","0.0-14.0-0.38","SS1604518916828","","null","","","","","","","","","","","","<img src=images/blank.png width =""500"" height = ""500"" style=""border:5px solid black"">","","",""
"","257.07499985583127","stimulus-presentation","92","290567","0.0-14.0-1.38","SS1604518916828","<img src='images/complex/4.png' width ='500' height = '500' style='border:5px solid black'>","40","all_complex","images/complex/8.png","images/complex/4.png","images/complex/9.png,images/complex/15.png,images/complex/5.png,images/complex/18.png,images/complex/16.png,images/complex/1.png,images/complex/7.png","0","null","","200","457.07499985583127","","","","background","",""
"","null","html-keyboard-response","93","291728","0.0-14.0-0.39","SS1604518916828","","null","","","","","","","","","","","","<img src=images/blank.png width =""500"" height = ""500"" style=""border:5px solid black"">","","",""
"","217.99499983899295","stimulus-presentation","94","292159","0.0-14.0-1.39","SS1604518916828","<img src='images/complex/4.png' width ='500' height = '500' style='border:5px solid black'>","40","all_complex","images/complex/8.png","images/complex/4.png","images/complex/9.png,images/complex/15.png,images/complex/5.png,images/complex/18.png,images/complex/16.png,images/complex/1.png,images/complex/7.png","0","null","","200","417.99499983899295","","","","background","",""
"","null","html-keyboard-response","95","293064","0.0-14.0-0.40","SS1604518916828","","null","","","","","","","","","","","","<img src=images/blank.png width =""500"" height = ""500"" style=""border:5px solid black"">","","",""
"","1293.9300001598895","stimulus-presentation","96","294566","0.0-14.0-1.40","SS1604518916828","<img src='images/complex/4.png' width ='500' height = '500' style='border:5px solid black'>","40","all_complex","images/complex/8.png","images/complex/4.png","images/complex/9.png,images/complex/15.png,images/complex/5.png,images/complex/18.png,images/complex/16.png,images/complex/1.png,images/complex/7.png","0","null","","200","1493.9300001598895","","","","background","",""
"","null","html-keyboard-response","97","295435","0.0-14.0-0.41","SS1604518916828","","null","","","","","","","","","","","","<img src=images/blank.png width =""500"" height = ""500"" style=""border:5px solid black"">","","",""
"","264.05499991960824","stimulus-presentation","98","295912","0.0-14.0-1.41","SS1604518916828","<img src='images/complex/4.png' width ='500' height = '500' style='border:5px solid black'>","40","all_complex","images/complex/8.png","images/complex/4.png","images/complex/9.png,images/complex/15.png,images/complex/5.png,images/complex/18.png,images/complex/16.png,images/complex/1.png,images/complex/7.png","0","null","","200","464.05499991960824","","","","background","",""
"","null","html-keyboard-response","99","296736","0.0-14.0-0.42","SS1604518916828","","null","","","","","","","","","","","","<img src=images/blank.png width =""500"" height = ""500"" style=""border:5px solid black"">","","",""
"","2213.9100001659244","stimulus-presentation","100","299159","0.0-14.0-1.42","SS1604518916828","<img src='images/complex/16.png' width ='500' height = '500' style='border:5px solid black'>","40","all_complex","images/complex/8.png","images/complex/4.png","images/complex/9.png,images/complex/15.png,images/complex/5.png,images/complex/18.png,images/complex/16.png,images/complex/1.png,images/complex/7.png","0","null","","200","2413.9100001659244","yes","941.8600001372397","","deviant","",""
"","null","html-keyboard-response","101","300417","0.0-14.0-0.43","SS1604518916828","","null","","","","","","","","","","","","<img src=images/blank.png width =""500"" height = ""500"" style=""border:5px solid black"">","","",""
"","556.7400001455098","stimulus-presentation","102","301183","0.0-14.0-1.43","SS1604518916828","<img src='images/complex/4.png' width ='500' height = '500' style='border:5px solid black'>","40","all_complex","images/complex/8.png","images/complex/4.png","images/complex/9.png,images/complex/15.png,images/complex/5.png,images/complex/18.png,images/complex/16.png,images/complex/1.png,images/complex/7.png","0","null","","200","756.7400001455098","","","","background","",""
"","null","html-keyboard-response","103","302057","0.0-14.0-0.44","SS1604518916828","","null","","","","","","","","","","","","<img src=images/blank.png width =""500"" height = ""500"" style=""border:5px solid black"">","","",""
"","339.8450000677258","stimulus-presentation","104","302607","0.0-14.0-1.44","SS1604518916828","<img src='images/complex/4.png' width ='500' height = '500' style='border:5px solid black'>","40","all_complex","images/complex/8.png","images/complex/4.png","images/complex/9.png,images/complex/15.png,images/complex/5.png,images/complex/18.png,images/complex/16.png,images/complex/1.png,images/complex/7.png","0","null","","200","539.8450000677258","","","","background","",""
"","null","html-keyboard-response","105","303591","0.0-14.0-0.45","SS1604518916828","","null","","","","","","","","","","","","<img src=images/blank.png width =""500"" height = ""500"" style=""border:5px solid black"">","","",""
"","270.5099999438971","stimulus-presentation","106","304071","0.0-14.0-1.45","SS1604518916828","<img src='images/complex/4.png' width ='500' height = '500' style='border:5px solid black'>","40","all_complex","images/complex/8.png","images/complex/4.png","images/complex/9.png,images/complex/15.png,images/complex/5.png,images/complex/18.png,images/complex/16.png,images/complex/1.png,images/complex/7.png","0","null","","200","470.5099999438971","","","","background","",""
"","null","html-keyboard-response","107","305062","0.0-14.0-0.46","SS1604518916828","","null","","","","","","","","","","","","<img src=images/blank.png width =""500"" height = ""500"" style=""border:5px solid black"">","","",""
"","335.3650001809001","stimulus-presentation","108","305607","0.0-14.0-1.46","SS1604518916828","<img src='images/complex/4.png' width ='500' height = '500' style='border:5px solid black'>","40","all_complex","images/complex/8.png","images/complex/4.png","images/complex/9.png,images/complex/15.png,images/complex/5.png,images/complex/18.png,images/complex/16.png,images/complex/1.png,images/complex/7.png","0","null","","200","535.3650001809001","","","","background","",""
"","null","html-keyboard-response","109","306858","0.0-14.0-0.47","SS1604518916828","","null","","","","","","","","","","","","<img src=images/blank.png width =""500"" height = ""500"" style=""border:5px solid black"">","","",""
"","251.50000001303852","stimulus-presentation","110","307320","0.0-14.0-1.47","SS1604518916828","<img src='images/complex/4.png' width ='500' height = '500' style='border:5px solid black'>","40","all_complex","images/complex/8.png","images/complex/4.png","images/complex/9.png,images/complex/15.png,images/complex/5.png,images/complex/18.png,images/complex/16.png,images/complex/1.png,images/complex/7.png","0","null","","200","451.5000000130385","","","","background","",""
"","null","html-keyboard-response","111","308352","0.0-14.0-0.48","SS1604518916828","","null","","","","","","","","","","","","<img src=images/blank.png width =""500"" height = ""500"" style=""border:5px solid black"">","","",""
"","384.2100000474602","stimulus-presentation","112","308951","0.0-14.0-1.48","SS1604518916828","<img src='images/complex/4.png' width ='500' height = '500' style='border:5px solid black'>","40","all_complex","images/complex/8.png","images/complex/4.png","images/complex/9.png,images/complex/15.png,images/complex/5.png,images/complex/18.png,images/complex/16.png,images/complex/1.png,images/complex/7.png","0","null","","200","584.2100000474602","","","","background","",""
"[{""page_index"":0,""viewing_time"":7018}]","7020","task-instructions","113","315977","0.0-15.0","SS1604518916828","","","","","","","","","","","","","","","","",""
"[{""page_index"":0,""viewing_time"":2591.0050000529736},{""page_index"":1,""viewing_time"":10528.189999982715},{""page_index"":2,""viewing_time"":1343.5049999970943}]","14463.574999943376","instructions","114","330448","0.0-16.0","SS1604518916828","","","","","","","","","","","","","","","","",""
"","null","html-keyboard-response","115","331446","0.0-17.0-0.0","SS1604518916828","","null","","","","","","","","","","","","<img src=images/blank.png width =""500"" height = ""500"" style=""border:5px solid black"">","","",""
"","1309.1550001408905","stimulus-presentation","116","332967","0.0-17.0-1.0","SS1604518916828","<img src='images/simple/5.png' width ='500' height = '500' style='border:5px solid black'>","40","all_simple","images/simple/5.png","images/simple/2.png","images/simple/4.png,images/simple/10.png,images/simple/12.png,images/simple/13.png,images/simple/3.png,images/simple/11.png,images/simple/18.png","1","null","","200","1509.1550001408905","","","","target","",""
"","null","html-keyboard-response","117","334022","0.0-17.0-0.1","SS1604518916828","","null","","","","","","","","","","","","<img src=images/blank.png width =""500"" height = ""500"" style=""border:5px solid black"">","","",""
"","870.76500011608","stimulus-presentation","118","335103","0.0-17.0-1.1","SS1604518916828","<img src='images/simple/5.png' width ='500' height = '500' style='border:5px solid black'>","40","all_simple","images/simple/5.png","images/simple/2.png","images/simple/4.png,images/simple/10.png,images/simple/12.png,images/simple/13.png,images/simple/3.png,images/simple/11.png,images/simple/18.png","1","null","","200","1070.76500011608","","","","target","",""
"","null","html-keyboard-response","119","336174","0.0-17.0-0.2","SS1604518916828","","null","","","","","","","","","","","","<img src=images/blank.png width =""500"" height = ""500"" style=""border:5px solid black"">","","",""
"","2198.8150000106543","stimulus-presentation","120","338583","0.0-17.0-1.2","SS1604518916828","<img src='images/simple/10.png' width ='500' height = '500' style='border:5px solid black'>","40","all_simple","images/simple/5.png","images/simple/2.png","images/simple/4.png,images/simple/10.png,images/simple/12.png,images/simple/13.png,images/simple/3.png,images/simple/11.png,images/simple/18.png","1","null","","200","2398.8150000106543","yes","638.7600000016391","","deviant","",""
"","null","html-keyboard-response","121","339510","0.0-17.0-0.3","SS1604518916828","","null","","","","","","","","","","","","<img src=images/blank.png width =""500"" height = ""500"" style=""border:5px solid black"">","","",""
"","1471.5950000099838","stimulus-presentation","122","341191","0.0-17.0-1.3","SS1604518916828","<img src='images/simple/2.png' width ='500' height = '500' style='border:5px solid black'>","40","all_simple","images/simple/5.png","images/simple/2.png","images/simple/4.png,images/simple/10.png,images/simple/12.png,images/simple/13.png,images/simple/3.png,images/simple/11.png,images/simple/18.png","1","null","","200","1671.5950000099838","yes","928.7100001238286","","background","",""
"","null","html-keyboard-response","123","342493","0.0-17.0-0.4","SS1604518916828","","null","","","","","","","","","","","","<img src=images/blank.png width =""500"" height = ""500"" style=""border:5px solid black"">","","",""
"","1687.279999954626","stimulus-presentation","124","344391","0.0-17.0-1.4","SS1604518916828","<img src='images/simple/2.png' width ='500' height = '500' style='border:5px solid black'>","40","all_simple","images/simple/5.png","images/simple/2.png","images/simple/4.png,images/simple/10.png,images/simple/12.png,images/simple/13.png,images/simple/3.png,images/simple/11.png,images/simple/18.png","1","null","","200","1887.279999954626","","","","background","",""
"","null","html-keyboard-response","125","345420","0.0-17.0-0.5","SS1604518916828","","null","","","","","","","","","","","","<img src=images/blank.png width =""500"" height = ""500"" style=""border:5px solid black"">","","",""
"","1068.0649999994785","stimulus-presentation","126","346702","0.0-17.0-1.5","SS1604518916828","<img src='images/simple/2.png' width ='500' height = '500' style='border:5px solid black'>","40","all_simple","images/simple/5.png","images/simple/2.png","images/simple/4.png,images/simple/10.png,images/simple/12.png,images/simple/13.png,images/simple/3.png,images/simple/11.png,images/simple/18.png","1","null","","200","1268.0649999994785","yes","588.1099998950958","","background","",""
"","null","html-keyboard-response","127","348000","0.0-17.0-0.6","SS1604518916828","","null","","","","","","","","","","","","<img src=images/blank.png width =""500"" height = ""500"" style=""border:5px solid black"">","","",""
"","354.89999991841614","stimulus-presentation","128","348567","0.0-17.0-1.6","SS1604518916828","<img src='images/simple/2.png' width ='500' height = '500' style='border:5px solid black'>","40","all_simple","images/simple/5.png","images/simple/2.png","images/simple/4.png,images/simple/10.png,images/simple/12.png,images/simple/13.png,images/simple/3.png,images/simple/11.png,images/simple/18.png","1","null","","200","554.8999999184161","","","","background","",""
"","null","html-keyboard-response","129","349552","0.0-17.0-0.7","SS1604518916828","","null","","","","","","","","","","","","<img src=images/blank.png width =""500"" height = ""500"" style=""border:5px solid black"">","","",""
"","764.7150000557303","stimulus-presentation","130","350527","0.0-17.0-1.7","SS1604518916828","<img src='images/simple/4.png' width ='500' height = '500' style='border:5px solid black'>","40","all_simple","images/simple/5.png","images/simple/2.png","images/simple/4.png,images/simple/10.png,images/simple/12.png,images/simple/13.png,images/simple/3.png,images/simple/11.png,images/simple/18.png","1","null","","200","964.7150000557303","","","","deviant","",""
"","null","html-keyboard-response","131","351480","0.0-17.0-0.8","SS1604518916828","","null","","","","","","","","","","","","<img src=images/blank.png width =""500"" height = ""500"" style=""border:5px solid black"">","","",""
"","1056.4400001894683","stimulus-presentation","132","352747","0.0-17.0-1.8","SS1604518916828","<img src='images/simple/2.png' width ='500' height = '500' style='border:5px solid black'>","40","all_simple","images/simple/5.png","images/simple/2.png","images/simple/4.png,images/simple/10.png,images/simple/12.png,images/simple/13.png,images/simple/3.png,images/simple/11.png,images/simple/18.png","1","null","","200","1256.4400001894683","","","","background","",""
"","null","html-keyboard-response","133","353928","0.0-17.0-0.9","SS1604518916828","","null","","","","","","","","","","","","<img src=images/blank.png width =""500"" height = ""500"" style=""border:5px solid black"">","","",""
"","932.6200000941753","stimulus-presentation","134","355071","0.0-17.0-1.9","SS1604518916828","<img src='images/simple/2.png' width ='500' height = '500' style='border:5px solid black'>","40","all_simple","images/simple/5.png","images/simple/2.png","images/simple/4.png,images/simple/10.png,images/simple/12.png,images/simple/13.png,images/simple/3.png,images/simple/11.png,images/simple/18.png","1","null","","200","1132.6200000941753","","","","background","",""
"","null","html-keyboard-response","135","356332","0.0-17.0-0.10","SS1604518916828","","null","","","","","","","","","","","","<img src=images/blank.png width =""500"" height = ""500"" style=""border:5px solid black"">","","",""
"","632.4700000695884","stimulus-presentation","136","357175","0.0-17.0-1.10","SS1604518916828","<img src='images/simple/5.png' width ='500' height = '500' style='border:5px solid black'>","40","all_simple","images/simple/5.png","images/simple/2.png","images/simple/4.png,images/simple/10.png,images/simple/12.png,images/simple/13.png,images/simple/3.png,images/simple/11.png,images/simple/18.png","1","null","","200","832.4700000695884","","","","target","",""
"","null","html-keyboard-response","137","358340","0.0-17.0-0.11","SS1604518916828","","null","","","","","","","","","","","","<img src=images/blank.png width =""500"" height = ""500"" style=""border:5px solid black"">","","",""
"","272.36999990418553","stimulus-presentation","138","358823","0.0-17.0-1.11","SS1604518916828","<img src='images/simple/2.png' width ='500' height = '500' style='border:5px solid black'>","40","all_simple","images/simple/5.png","images/simple/2.png","images/simple/4.png,images/simple/10.png,images/simple/12.png,images/simple/13.png,images/simple/3.png,images/simple/11.png,images/simple/18.png","1","null","","200","472.36999990418553","","","","background","",""
"","null","html-keyboard-response","139","359991","0.0-17.0-0.12","SS1604518916828","","null","","","","","","","","","","","","<img src=images/blank.png width =""500"" height = ""500"" style=""border:5px solid black"">","","",""
"","477.140000090003","stimulus-presentation","140","360679","0.0-17.0-1.12","SS1604518916828","<img src='images/simple/2.png' width ='500' height = '500' style='border:5px solid black'>","40","all_simple","images/simple/5.png","images/simple/2.png","images/simple/4.png,images/simple/10.png,images/simple/12.png,images/simple/13.png,images/simple/3.png,images/simple/11.png,images/simple/18.png","1","null","","200","677.140000090003","","","","background","",""
"","null","html-keyboard-response","141","361652","0.0-17.0-0.13","SS1604518916828","","null","","","","","","","","","","","","<img src=images/blank.png width =""500"" height = ""500"" style=""border:5px solid black"">","","",""
"","664.10499997437","stimulus-presentation","142","362527","0.0-17.0-1.13","SS1604518916828","<img src='images/simple/5.png' width ='500' height = '500' style='border:5px solid black'>","40","all_simple","images/simple/5.png","images/simple/2.png","images/simple/4.png,images/simple/10.png,images/simple/12.png,images/simple/13.png,images/simple/3.png,images/simple/11.png,images/simple/18.png","1","null","","200","864.10499997437","","","","target","",""
"","null","html-keyboard-response","143","363517","0.0-17.0-0.14","SS1604518916828","","null","","","","","","","","","","","","<img src=images/blank.png width =""500"" height = ""500"" style=""border:5px solid black"">","","",""
"","535.2399998810142","stimulus-presentation","144","364264","0.0-17.0-1.14","SS1604518916828","<img src='images/simple/2.png' width ='500' height = '500' style='border:5px solid black'>","40","all_simple","images/simple/5.png","images/simple/2.png","images/simple/4.png,images/simple/10.png,images/simple/12.png,images/simple/13.png,images/simple/3.png,images/simple/11.png,images/simple/18.png","1","null","","200","735.2399998810142","","","","background","",""
"","null","html-keyboard-response","145","365494","0.0-17.0-0.15","SS1604518916828","","null","","","","","","","","","","","","<img src=images/blank.png width =""500"" height = ""500"" style=""border:5px solid black"">","","",""
"","2685.795000055805","stimulus-presentation","146","368391","0.0-17.0-1.15","SS1604518916828","<img src='images/simple/3.png' width ='500' height = '500' style='border:5px solid black'>","40","all_simple","images/simple/5.png","images/simple/2.png","images/simple/4.png,images/simple/10.png,images/simple/12.png,images/simple/13.png,images/simple/3.png,images/simple/11.png,images/simple/18.png","1","null","","200","2885.795000055805","yes","901.8350001424551","","deviant","",""
"","null","html-keyboard-response","147","369643","0.0-17.0-0.16","SS1604518916828","","null","","","","","","","","","","","","<img src=images/blank.png width =""500"" height = ""500"" style=""border:5px solid black"">","","",""
"","330.6999998167157","stimulus-presentation","148","370183","0.0-17.0-1.16","SS1604518916828","<img src='images/simple/2.png' width ='500' height = '500' style='border:5px solid black'>","40","all_simple","images/simple/5.png","images/simple/2.png","images/simple/4.png,images/simple/10.png,images/simple/12.png,images/simple/13.png,images/simple/3.png,images/simple/11.png,images/simple/18.png","1","null","","200","530.6999998167157","","","","background","",""
"","null","html-keyboard-response","149","371273","0.0-17.0-0.17","SS1604518916828","","null","","","","","","","","","","","","<img src=images/blank.png width =""500"" height = ""500"" style=""border:5px solid black"">","","",""
"","371.61499983631074","stimulus-presentation","150","371855","0.0-17.0-1.17","SS1604518916828","<img src='images/simple/2.png' width ='500' height = '500' style='border:5px solid black'>","40","all_simple","images/simple/5.png","images/simple/2.png","images/simple/4.png,images/simple/10.png,images/simple/12.png,images/simple/13.png,images/simple/3.png,images/simple/11.png,images/simple/18.png","1","null","","200","571.6149998363107","","","","background","",""
"","null","html-keyboard-response","151","372673","0.0-17.0-0.18","SS1604518916828","","null","","","","","","","","","","","","<img src=images/blank.png width =""500"" height = ""500"" style=""border:5px solid black"">","","",""
"","171.53499997220933","stimulus-presentation","152","373055","0.0-17.0-1.18","SS1604518916828","<img src='images/simple/2.png' width ='500' height = '500' style='border:5px solid black'>","40","all_simple","images/simple/5.png","images/simple/2.png","images/simple/4.png,images/simple/10.png,images/simple/12.png,images/simple/13.png,images/simple/3.png,images/simple/11.png,images/simple/18.png","1","null","","200","371.53499997220933","","","","background","",""
"","null","html-keyboard-response","153","374114","0.0-17.0-0.19","SS1604518916828","","null","","","","","","","","","","","","<img src=images/blank.png width =""500"" height = ""500"" style=""border:5px solid black"">","","",""
"","162.65499987639487","stimulus-presentation","154","374488","0.0-17.0-1.19","SS1604518916828","<img src='images/simple/2.png' width ='500' height = '500' style='border:5px solid black'>","40","all_simple","images/simple/5.png","images/simple/2.png","images/simple/4.png,images/simple/10.png,images/simple/12.png,images/simple/13.png,images/simple/3.png,images/simple/11.png,images/simple/18.png","1","null","","200","362.65499987639487","","","","background","",""
"","null","html-keyboard-response","155","375663","0.0-17.0-0.20","SS1604518916828","","null","","","","","","","","","","","","<img src=images/blank.png width =""500"" height = ""500"" style=""border:5px solid black"">","","",""
"","148.38499994948506","stimulus-presentation","156","376023","0.0-17.0-1.20","SS1604518916828","<img src='images/simple/13.png' width ='500' height = '500' style='border:5px solid black'>","40","all_simple","images/simple/5.png","images/simple/2.png","images/simple/4.png,images/simple/10.png,images/simple/12.png,images/simple/13.png,images/simple/3.png,images/simple/11.png,images/simple/18.png","1","null","","200","348.38499994948506","","","","deviant","",""
"","null","html-keyboard-response","157","376900","0.0-17.0-0.21","SS1604518916828","","null","","","","","","","","","","","","<img src=images/blank.png width =""500"" height = ""500"" style=""border:5px solid black"">","","",""
"","1183.4249999374151","stimulus-presentation","158","378295","0.0-17.0-1.21","SS1604518916828","<img src='images/simple/2.png' width ='500' height = '500' style='border:5px solid black'>","40","all_simple","images/simple/5.png","images/simple/2.png","images/simple/4.png,images/simple/10.png,images/simple/12.png,images/simple/13.png,images/simple/3.png,images/simple/11.png,images/simple/18.png","1","null","","200","1383.4249999374151","","","","background","",""
"","null","html-keyboard-response","159","379289","0.0-17.0-0.22","SS1604518916828","","null","","","","","","","","","","","","<img src=images/blank.png width =""500"" height = ""500"" style=""border:5px solid black"">","","",""
"","2442.975000012666","stimulus-presentation","160","381943","0.0-17.0-1.22","SS1604518916828","<img src='images/simple/2.png' width ='500' height = '500' style='border:5px solid black'>","40","all_simple","images/simple/5.png","images/simple/2.png","images/simple/4.png,images/simple/10.png,images/simple/12.png,images/simple/13.png,images/simple/3.png,images/simple/11.png,images/simple/18.png","1","null","","200","2642.975000012666","","","","background","",""
"","null","html-keyboard-response","161","382805","0.0-17.0-0.23","SS1604518916828","","null","","","","","","","","","","","","<img src=images/blank.png width =""500"" height = ""500"" style=""border:5px solid black"">","","",""
"","1422.9449999984354","stimulus-presentation","162","384439","0.0-17.0-1.23","SS1604518916828","<img src='images/simple/2.png' width ='500' height = '500' style='border:5px solid black'>","40","all_simple","images/simple/5.png","images/simple/2.png","images/simple/4.png,images/simple/10.png,images/simple/12.png,images/simple/13.png,images/simple/3.png,images/simple/11.png,images/simple/18.png","1","null","","200","1622.9449999984354","","","","background","",""
"","null","html-keyboard-response","163","385506","0.0-17.0-0.24","SS1604518916828","","null","","","","","","","","","","","","<img src=images/blank.png width =""500"" height = ""500"" style=""border:5px solid black"">","","",""
"","3121.694999979809","stimulus-presentation","164","388839","0.0-17.0-1.24","SS1604518916828","<img src='images/simple/12.png' width ='500' height = '500' style='border:5px solid black'>","40","all_simple","images/simple/5.png","images/simple/2.png","images/simple/4.png,images/simple/10.png,images/simple/12.png,images/simple/13.png,images/simple/3.png,images/simple/11.png,images/simple/18.png","1","null","","200","3321.694999979809","yes","2563.0200000014156","","deviant","",""
"","null","html-keyboard-response","165","389807","0.0-17.0-0.25","SS1604518916828","","null","","","","","","","","","","","","<img src=images/blank.png width =""500"" height = ""500"" style=""border:5px solid black"">","","",""
"","564.6600001491606","stimulus-presentation","166","390583","0.0-17.0-1.25","SS1604518916828","<img src='images/simple/5.png' width ='500' height = '500' style='border:5px solid black'>","40","all_simple","images/simple/5.png","images/simple/2.png","images/simple/4.png,images/simple/10.png,images/simple/12.png,images/simple/13.png,images/simple/3.png,images/simple/11.png,images/simple/18.png","1","null","","200","764.6600001491606","","","","target","",""
"","null","html-keyboard-response","167","391536","0.0-17.0-0.26","SS1604518916828","","null","","","","","","","","","","","","<img src=images/blank.png width =""500"" height = ""500"" style=""border:5px solid black"">","","",""
"","585.4099998250604","stimulus-presentation","168","392335","0.0-17.0-1.26","SS1604518916828","<img src='images/simple/2.png' width ='500' height = '500' style='border:5px solid black'>","40","all_simple","images/simple/5.png","images/simple/2.png","images/simple/4.png,images/simple/10.png,images/simple/12.png,images/simple/13.png,images/simple/3.png,images/simple/11.png,images/simple/18.png","1","null","","200","785.4099998250604","","","","background","",""
"","null","html-keyboard-response","169","393373","0.0-17.0-0.27","SS1604518916828","","null","","","","","","","","","","","","<img src=images/blank.png width =""500"" height = ""500"" style=""border:5px solid black"">","","",""
"","190.37500000558794","stimulus-presentation","170","393775","0.0-17.0-1.27","SS1604518916828","<img src='images/simple/2.png' width ='500' height = '500' style='border:5px solid black'>","40","all_simple","images/simple/5.png","images/simple/2.png","images/simple/4.png,images/simple/10.png,images/simple/12.png,images/simple/13.png,images/simple/3.png,images/simple/11.png,images/simple/18.png","1","null","","200","390.37500000558794","","","","background","",""
"","null","html-keyboard-response","171","394785","0.0-17.0-0.28","SS1604518916828","","null","","","","","","","","","","","","<img src=images/blank.png width =""500"" height = ""500"" style=""border:5px solid black"">","","",""
"","505.074999993667","stimulus-presentation","172","395503","0.0-17.0-1.28","SS1604518916828","<img src='images/simple/5.png' width ='500' height = '500' style='border:5px solid black'>","40","all_simple","images/simple/5.png","images/simple/2.png","images/simple/4.png,images/simple/10.png,images/simple/12.png,images/simple/13.png,images/simple/3.png,images/simple/11.png,images/simple/18.png","1","null","","200","705.074999993667","","","","target","",""
"","null","html-keyboard-response","173","396666","0.0-17.0-0.29","SS1604518916828","","null","","","","","","","","","","","","<img src=images/blank.png width =""500"" height = ""500"" style=""border:5px solid black"">","","",""
"","288.02000009454787","stimulus-presentation","174","397167","0.0-17.0-1.29","SS1604518916828","<img src='images/simple/2.png' width ='500' height = '500' style='border:5px solid black'>","40","all_simple","images/simple/5.png","images/simple/2.png","images/simple/4.png,images/simple/10.png,images/simple/12.png,images/simple/13.png,images/simple/3.png,images/simple/11.png,images/simple/18.png","1","null","","200","488.02000009454787","","","","background","",""
"","null","html-keyboard-response","175","398060","0.0-17.0-0.30","SS1604518916828","","null","","","","","","","","","","","","<img src=images/blank.png width =""500"" height = ""500"" style=""border:5px solid black"">","","",""
"","208.21999991312623","stimulus-presentation","176","398480","0.0-17.0-1.30","SS1604518916828","<img src='images/simple/2.png' width ='500' height = '500' style='border:5px solid black'>","40","all_simple","images/simple/5.png","images/simple/2.png","images/simple/4.png,images/simple/10.png,images/simple/12.png,images/simple/13.png,images/simple/3.png,images/simple/11.png,images/simple/18.png","1","null","","200","408.21999991312623","","","","background","",""
"","null","html-keyboard-response","177","399712","0.0-17.0-0.31","SS1604518916828","","null","","","","","","","","","","","","<img src=images/blank.png width =""500"" height = ""500"" style=""border:5px solid black"">","","",""
"","362.82000015489757","stimulus-presentation","178","400287","0.0-17.0-1.31","SS1604518916828","<img src='images/simple/2.png' width ='500' height = '500' style='border:5px solid black'>","40","all_simple","images/simple/5.png","images/simple/2.png","images/simple/4.png,images/simple/10.png,images/simple/12.png,images/simple/13.png,images/simple/3.png,images/simple/11.png,images/simple/18.png","1","null","","200","562.8200001548976","","","","background","",""
"","null","html-keyboard-response","179","401274","0.0-17.0-0.32","SS1604518916828","","null","","","","","","","","","","","","<img src=images/blank.png width =""500"" height = ""500"" style=""border:5px solid black"">","","",""
"","200.71499980986118","stimulus-presentation","180","401687","0.0-17.0-1.32","SS1604518916828","<img src='images/simple/18.png' width ='500' height = '500' style='border:5px solid black'>","40","all_simple","images/simple/5.png","images/simple/2.png","images/simple/4.png,images/simple/10.png,images/simple/12.png,images/simple/13.png,images/simple/3.png,images/simple/11.png,images/simple/18.png","1","null","","200","400.7149998098612","","","","deviant","",""
"","null","html-keyboard-response","181","402881","0.0-17.0-0.33","SS1604518916828","","null","","","","","","","","","","","","<img src=images/blank.png width =""500"" height = ""500"" style=""border:5px solid black"">","","",""
"","473.73999981209636","stimulus-presentation","182","403567","0.0-17.0-1.33","SS1604518916828","<img src='images/simple/2.png' width ='500' height = '500' style='border:5px solid black'>","40","all_simple","images/simple/5.png","images/simple/2.png","images/simple/4.png,images/simple/10.png,images/simple/12.png,images/simple/13.png,images/simple/3.png,images/simple/11.png,images/simple/18.png","1","null","","200","673.7399998120964","","","","background","",""
"","null","html-keyboard-response","183","404432","0.0-17.0-0.34","SS1604518916828","","null","","","","","","","","","","","","<img src=images/blank.png width =""500"" height = ""500"" style=""border:5px solid black"">","","",""
"","193.58500000089407","stimulus-presentation","184","404839","0.0-17.0-1.34","SS1604518916828","<img src='images/simple/2.png' width ='500' height = '500' style='border:5px solid black'>","40","all_simple","images/simple/5.png","images/simple/2.png","images/simple/4.png,images/simple/10.png,images/simple/12.png,images/simple/13.png,images/simple/3.png,images/simple/11.png,images/simple/18.png","1","null","","200","393.58500000089407","","","","background","",""
"","null","html-keyboard-response","185","405912","0.0-17.0-0.35","SS1604518916828","","null","","","","","","","","","","","","<img src=images/blank.png width =""500"" height = ""500"" style=""border:5px solid black"">","","",""
"","538.5750001296401","stimulus-presentation","186","406663","0.0-17.0-1.35","SS1604518916828","<img src='images/simple/5.png' width ='500' height = '500' style='border:5px solid black'>","40","all_simple","images/simple/5.png","images/simple/2.png","images/simple/4.png,images/simple/10.png,images/simple/12.png,images/simple/13.png,images/simple/3.png,images/simple/11.png,images/simple/18.png","1","null","","200","738.5750001296401","","","","target","",""
"","null","html-keyboard-response","187","407734","0.0-17.0-0.36","SS1604518916828","","null","","","","","","","","","","","","<img src=images/blank.png width =""500"" height = ""500"" style=""border:5px solid black"">","","",""
"","403.7049999460578","stimulus-presentation","188","408351","0.0-17.0-1.36","SS1604518916828","<img src='images/simple/2.png' width ='500' height = '500' style='border:5px solid black'>","40","all_simple","images/simple/5.png","images/simple/2.png","images/simple/4.png,images/simple/10.png,images/simple/12.png,images/simple/13.png,images/simple/3.png,images/simple/11.png,images/simple/18.png","1","null","","200","603.7049999460578","","","","background","",""
"","null","html-keyboard-response","189","409262","0.0-17.0-0.37","SS1604518916828","","null","","","","","","","","","","","","<img src=images/blank.png width =""500"" height = ""500"" style=""border:5px solid black"">","","",""
"","2875.4050000570714","stimulus-presentation","190","412351","0.0-17.0-1.37","SS1604518916828","<img src='images/simple/11.png' width ='500' height = '500' style='border:5px solid black'>","40","all_simple","images/simple/5.png","images/simple/2.png","images/simple/4.png,images/simple/10.png,images/simple/12.png,images/simple/13.png,images/simple/3.png,images/simple/11.png,images/simple/18.png","1","null","","200","3075.4050000570714","yes","1268.709999974817","","deviant","",""
"","null","html-keyboard-response","191","413623","0.0-17.0-0.38","SS1604518916828","","null","","","","","","","","","","","","<img src=images/blank.png width =""500"" height = ""500"" style=""border:5px solid black"">","","",""
"","236.20000015944242","stimulus-presentation","192","414071","0.0-17.0-1.38","SS1604518916828","<img src='images/simple/2.png' width ='500' height = '500' style='border:5px solid black'>","40","all_simple","images/simple/5.png","images/simple/2.png","images/simple/4.png,images/simple/10.png,images/simple/12.png,images/simple/13.png,images/simple/3.png,images/simple/11.png,images/simple/18.png","1","null","","200","436.2000001594424","","","","background","",""
"","null","html-keyboard-response","193","414904","0.0-17.0-0.39","SS1604518916828","","null","","","","","","","","","","","","<img src=images/blank.png width =""500"" height = ""500"" style=""border:5px solid black"">","","",""
"","224.79999996721745","stimulus-presentation","194","415343","0.0-17.0-1.39","SS1604518916828","<img src='images/simple/2.png' width ='500' height = '500' style='border:5px solid black'>","40","all_simple","images/simple/5.png","images/simple/2.png","images/simple/4.png,images/simple/10.png,images/simple/12.png,images/simple/13.png,images/simple/3.png,images/simple/11.png,images/simple/18.png","1","null","","200","424.79999996721745","","","","background","",""
"","null","html-keyboard-response","195","416327","0.0-17.0-0.40","SS1604518916828","","null","","","","","","","","","","","","<img src=images/blank.png width =""500"" height = ""500"" style=""border:5px solid black"">","","",""
"","178.88000002130866","stimulus-presentation","196","416719","0.0-17.0-1.40","SS1604518916828","<img src='images/simple/2.png' width ='500' height = '500' style='border:5px solid black'>","40","all_simple","images/simple/5.png","images/simple/2.png","images/simple/4.png,images/simple/10.png,images/simple/12.png,images/simple/13.png,images/simple/3.png,images/simple/11.png,images/simple/18.png","1","null","","200","378.88000002130866","","","","background","",""
"","null","html-keyboard-response","197","417918","0.0-17.0-0.41","SS1604518916828","","null","","","","","","","","","","","","<img src=images/blank.png width =""500"" height = ""500"" style=""border:5px solid black"">","","",""
"","204.96500004082918","stimulus-presentation","198","418335","0.0-17.0-1.41","SS1604518916828","<img src='images/simple/2.png' width ='500' height = '500' style='border:5px solid black'>","40","all_simple","images/simple/5.png","images/simple/2.png","images/simple/4.png,images/simple/10.png,images/simple/12.png,images/simple/13.png,images/simple/3.png,images/simple/11.png,images/simple/18.png","1","null","","200","404.9650000408292","","","","background","",""
"","null","html-keyboard-response","199","419496","0.0-17.0-0.42","SS1604518916828","","null","","","","","","","","","","","","<img src=images/blank.png width =""500"" height = ""500"" style=""border:5px solid black"">","","",""
"","187.76499992236495","stimulus-presentation","200","419895","0.0-17.0-1.42","SS1604518916828","<img src='images/simple/2.png' width ='500' height = '500' style='border:5px solid black'>","40","all_simple","images/simple/5.png","images/simple/2.png","images/simple/4.png,images/simple/10.png,images/simple/12.png,images/simple/13.png,images/simple/3.png,images/simple/11.png,images/simple/18.png","1","null","","200","387.76499992236495","","","","background","",""
"","null","html-keyboard-response","201","421166","0.0-17.0-0.43","SS1604518916828","","null","","","","","","","","","","","","<img src=images/blank.png width =""500"" height = ""500"" style=""border:5px solid black"">","","",""
"","252.4049999192357","stimulus-presentation","202","421631","0.0-17.0-1.43","SS1604518916828","<img src='images/simple/2.png' width ='500' height = '500' style='border:5px solid black'>","40","all_simple","images/simple/5.png","images/simple/2.png","images/simple/4.png,images/simple/10.png,images/simple/12.png,images/simple/13.png,images/simple/3.png,images/simple/11.png,images/simple/18.png","1","null","","200","452.4049999192357","","","","background","",""
"","null","html-keyboard-response","203","422662","0.0-17.0-0.44","SS1604518916828","","null","","","","","","","","","","","","<img src=images/blank.png width =""500"" height = ""500"" style=""border:5px solid black"">","","",""
"","173.80999983288348","stimulus-presentation","204","423047","0.0-17.0-1.44","SS1604518916828","<img src='images/simple/2.png' width ='500' height = '500' style='border:5px solid black'>","40","all_simple","images/simple/5.png","images/simple/2.png","images/simple/4.png,images/simple/10.png,images/simple/12.png,images/simple/13.png,images/simple/3.png,images/simple/11.png,images/simple/18.png","1","null","","200","373.8099998328835","","","","background","",""
"","null","html-keyboard-response","205","424069","0.0-17.0-0.45","SS1604518916828","","null","","","","","","","","","","","","<img src=images/blank.png width =""500"" height = ""500"" style=""border:5px solid black"">","","",""
"","187.86499998532236","stimulus-presentation","206","424471","0.0-17.0-1.45","SS1604518916828","<img src='images/simple/2.png' width ='500' height = '500' style='border:5px solid black'>","40","all_simple","images/simple/5.png","images/simple/2.png","images/simple/4.png,images/simple/10.png,images/simple/12.png,images/simple/13.png,images/simple/3.png,images/simple/11.png,images/simple/18.png","1","null","","200","387.86499998532236","","","","background","",""
"","null","html-keyboard-response","207","425668","0.0-17.0-0.46","SS1604518916828","","null","","","","","","","","","","","","<img src=images/blank.png width =""500"" height = ""500"" style=""border:5px solid black"">","","",""
"","175.675000064075","stimulus-presentation","208","426055","0.0-17.0-1.46","SS1604518916828","<img src='images/simple/2.png' width ='500' height = '500' style='border:5px solid black'>","40","all_simple","images/simple/5.png","images/simple/2.png","images/simple/4.png,images/simple/10.png,images/simple/12.png,images/simple/13.png,images/simple/3.png,images/simple/11.png,images/simple/18.png","1","null","","200","375.675000064075","","","","background","",""
"","null","html-keyboard-response","209","426909","0.0-17.0-0.47","SS1604518916828","","null","","","","","","","","","","","","<img src=images/blank.png width =""500"" height = ""500"" style=""border:5px solid black"">","","",""
"","287.5350001268089","stimulus-presentation","210","427407","0.0-17.0-1.47","SS1604518916828","<img src='images/simple/2.png' width ='500' height = '500' style='border:5px solid black'>","40","all_simple","images/simple/5.png","images/simple/2.png","images/simple/4.png,images/simple/10.png,images/simple/12.png,images/simple/13.png,images/simple/3.png,images/simple/11.png,images/simple/18.png","1","null","","200","487.5350001268089","","","","background","",""
"","null","html-keyboard-response","211","428394","0.0-17.0-0.48","SS1604518916828","","null","","","","","","","","","","","","<img src=images/blank.png width =""500"" height = ""500"" style=""border:5px solid black"">","","",""
"","234.3349999282509","stimulus-presentation","212","428839","0.0-17.0-1.48","SS1604518916828","<img src='images/simple/2.png' width ='500' height = '500' style='border:5px solid black'>","40","all_simple","images/simple/5.png","images/simple/2.png","images/simple/4.png,images/simple/10.png,images/simple/12.png,images/simple/13.png,images/simple/3.png,images/simple/11.png,images/simple/18.png","1","null","","200","434.3349999282509","","","","background","",""
"[{""page_index"":0,""viewing_time"":4928}]","4929","task-instructions","213","433776","0.0-18.0","SS1604518916828","","","","","","","","","","","","","","","","",""
"[{""page_index"":0,""viewing_time"":1621.989999897778},{""page_index"":1,""viewing_time"":3536.0650001093745},{""page_index"":2,""viewing_time"":1576.0199998039752}]","6734.960000030696","instructions","214","440520","0.0-19.0","SS1604518916828","","","","","","","","","","","","","","","","",""
"","null","html-keyboard-response","215","441713","0.0-20.0-0.0","SS1604518916828","","null","","","","","","","","","","","","<img src=images/blank.png width =""500"" height = ""500"" style=""border:5px solid black"">","","",""
"","2586.5600001998246","stimulus-presentation","216","444511","0.0-20.0-1.0","SS1604518916828","<img src='images/complex/14.png' width ='500' height = '500' style='border:5px solid black'>","40","mixed_complex_deviant","images/simple/14.png","images/simple/8.png","images/complex/12.png,images/complex/2.png,images/complex/14.png,images/complex/10.png,images/complex/17.png,images/complex/3.png,images/complex/11.png","2","null","","200","2786.5600001998246","yes","2188.015000196174","","deviant","",""
"","null","html-keyboard-response","217","445621","0.0-20.0-0.1","SS1604518916828","","null","","","","","","","","","","","","<img src=images/blank.png width =""500"" height = ""500"" style=""border:5px solid black"">","","",""
"","622.3599999211729","stimulus-presentation","218","446455","0.0-20.0-1.1","SS1604518916828","<img src='images/simple/8.png' width ='500' height = '500' style='border:5px solid black'>","40","mixed_complex_deviant","images/simple/14.png","images/simple/8.png","images/complex/12.png,images/complex/2.png,images/complex/14.png,images/complex/10.png,images/complex/17.png,images/complex/3.png,images/complex/11.png","2","null","","200","822.3599999211729","","","","background","",""
"","null","html-keyboard-response","219","447587","0.0-20.0-0.2","SS1604518916828","","null","","","","","","","","","","","","<img src=images/blank.png width =""500"" height = ""500"" style=""border:5px solid black"">","","",""
"","1384.0799999888986","stimulus-presentation","220","449183","0.0-20.0-1.2","SS1604518916828","<img src='images/simple/8.png' width ='500' height = '500' style='border:5px solid black'>","40","mixed_complex_deviant","images/simple/14.png","images/simple/8.png","images/complex/12.png,images/complex/2.png,images/complex/14.png,images/complex/10.png,images/complex/17.png,images/complex/3.png,images/complex/11.png","2","null","","200","1584.0799999888986","","","","background","",""
"","null","html-keyboard-response","221","450334","0.0-20.0-0.3","SS1604518916828","","null","","","","","","","","","","","","<img src=images/blank.png width =""500"" height = ""500"" style=""border:5px solid black"">","","",""
"","818.1650000624359","stimulus-presentation","222","451367","0.0-20.0-1.3","SS1604518916828","<img src='images/simple/8.png' width ='500' height = '500' style='border:5px solid black'>","40","mixed_complex_deviant","images/simple/14.png","images/simple/8.png","images/complex/12.png,images/complex/2.png,images/complex/14.png,images/complex/10.png,images/complex/17.png,images/complex/3.png,images/complex/11.png","2","null","","200","1018.1650000624359","","","","background","",""
"","null","html-keyboard-response","223","452495","0.0-20.0-0.4","SS1604518916828","","null","","","","","","","","","","","","<img src=images/blank.png width =""500"" height = ""500"" style=""border:5px solid black"">","","",""
"","197.029999922961","stimulus-presentation","224","452903","0.0-20.0-1.4","SS1604518916828","<img src='images/simple/8.png' width ='500' height = '500' style='border:5px solid black'>","40","mixed_complex_deviant","images/simple/14.png","images/simple/8.png","images/complex/12.png,images/complex/2.png,images/complex/14.png,images/complex/10.png,images/complex/17.png,images/complex/3.png,images/complex/11.png","2","null","","200","397.029999922961","","","","background","",""
"","null","html-keyboard-response","225","453784","0.0-20.0-0.5","SS1604518916828","","null","","","","","","","","","","","","<img src=images/blank.png width =""500"" height = ""500"" style=""border:5px solid black"">","","",""
"","740.7649999950081","stimulus-presentation","226","454740","0.0-20.0-1.5","SS1604518916828","<img src='images/simple/8.png' width ='500' height = '500' style='border:5px solid black'>","40","mixed_complex_deviant","images/simple/14.png","images/simple/8.png","images/complex/12.png,images/complex/2.png,images/complex/14.png,images/complex/10.png,images/complex/17.png,images/complex/3.png,images/complex/11.png","2","null","","200","940.7649999950081","","","","background","",""
"","null","html-keyboard-response","227","455646","0.0-20.0-0.6","SS1604518916828","","null","","","","","","","","","","","","<img src=images/blank.png width =""500"" height = ""500"" style=""border:5px solid black"">","","",""
"","3385.664999950677","stimulus-presentation","228","459247","0.0-20.0-1.6","SS1604518916828","<img src='images/complex/12.png' width ='500' height = '500' style='border:5px solid black'>","40","mixed_complex_deviant","images/simple/14.png","images/simple/8.png","images/complex/12.png,images/complex/2.png,images/complex/14.png,images/complex/10.png,images/complex/17.png,images/complex/3.png,images/complex/11.png","2","null","","200","3585.664999950677","yes","1137.7349998801947","","deviant","",""
"","null","html-keyboard-response","229","460291","0.0-20.0-0.7","SS1604518916828","","null","","","","","","","","","","","","<img src=images/blank.png width =""500"" height = ""500"" style=""border:5px solid black"">","","",""
"","1453.5499999765307","stimulus-presentation","230","461959","0.0-20.0-1.7","SS1604518916828","<img src='images/simple/14.png' width ='500' height = '500' style='border:5px solid black'>","40","mixed_complex_deviant","images/simple/14.png","images/simple/8.png","images/complex/12.png,images/complex/2.png,images/complex/14.png,images/complex/10.png,images/complex/17.png,images/complex/3.png,images/complex/11.png","2","null","","200","1653.5499999765307","","","","target","",""
"","null","html-keyboard-response","231","463080","0.0-20.0-0.8","SS1604518916828","","null","","","","","","","","","","","","<img src=images/blank.png width =""500"" height = ""500"" style=""border:5px solid black"">","","",""
"","369.3800000473857","stimulus-presentation","232","463663","0.0-20.0-1.8","SS1604518916828","<img src='images/simple/8.png' width ='500' height = '500' style='border:5px solid black'>","40","mixed_complex_deviant","images/simple/14.png","images/simple/8.png","images/complex/12.png,images/complex/2.png,images/complex/14.png,images/complex/10.png,images/complex/17.png,images/complex/3.png,images/complex/11.png","2","null","","200","569.3800000473857","","","","background","",""
"","null","html-keyboard-response","233","464648","0.0-20.0-0.9","SS1604518916828","","null","","","","","","","","","","","","<img src=images/blank.png width =""500"" height = ""500"" style=""border:5px solid black"">","","",""
"","194.4900001399219","stimulus-presentation","234","465056","0.0-20.0-1.9","SS1604518916828","<img src='images/simple/8.png' width ='500' height = '500' style='border:5px solid black'>","40","mixed_complex_deviant","images/simple/14.png","images/simple/8.png","images/complex/12.png,images/complex/2.png,images/complex/14.png,images/complex/10.png,images/complex/17.png,images/complex/3.png,images/complex/11.png","2","null","","200","394.4900001399219","","","","background","",""
"","null","html-keyboard-response","235","466119","0.0-20.0-0.10","SS1604518916828","","null","","","","","","","","","","","","<img src=images/blank.png width =""500"" height = ""500"" style=""border:5px solid black"">","","",""
"","154.0550000499934","stimulus-presentation","236","466487","0.0-20.0-1.10","SS1604518916828","<img src='images/simple/14.png' width ='500' height = '500' style='border:5px solid black'>","40","mixed_complex_deviant","images/simple/14.png","images/simple/8.png","images/complex/12.png,images/complex/2.png,images/complex/14.png,images/complex/10.png,images/complex/17.png,images/complex/3.png,images/complex/11.png","2","null","","200","354.0550000499934","","","","target","",""
"","null","html-keyboard-response","237","467486","0.0-20.0-0.11","SS1604518916828","","null","","","","","","","","","","","","<img src=images/blank.png width =""500"" height = ""500"" style=""border:5px solid black"">","","",""
"","240.96999992616475","stimulus-presentation","238","467943","0.0-20.0-1.11","SS1604518916828","<img src='images/simple/14.png' width ='500' height = '500' style='border:5px solid black'>","40","mixed_complex_deviant","images/simple/14.png","images/simple/8.png","images/complex/12.png,images/complex/2.png,images/complex/14.png,images/complex/10.png,images/complex/17.png,images/complex/3.png,images/complex/11.png","2","null","","200","440.96999992616475","","","","target","",""
"","null","html-keyboard-response","239","469177","0.0-20.0-0.12","SS1604518916828","","null","","","","","","","","","","","","<img src=images/blank.png width =""500"" height = ""500"" style=""border:5px solid black"">","","",""
"","560.7100001070648","stimulus-presentation","240","469951","0.0-20.0-1.12","SS1604518916828","<img src='images/simple/8.png' width ='500' height = '500' style='border:5px solid black'>","40","mixed_complex_deviant","images/simple/14.png","images/simple/8.png","images/complex/12.png,images/complex/2.png,images/complex/14.png,images/complex/10.png,images/complex/17.png,images/complex/3.png,images/complex/11.png","2","null","","200","760.7100001070648","","","","background","",""
"","null","html-keyboard-response","241","470981","0.0-20.0-0.13","SS1604518916828","","null","","","","","","","","","","","","<img src=images/blank.png width =""500"" height = ""500"" style=""border:5px solid black"">","","",""
"","260.7799998950213","stimulus-presentation","242","471456","0.0-20.0-1.13","SS1604518916828","<img src='images/complex/3.png' width ='500' height = '500' style='border:5px solid black'>","40","mixed_complex_deviant","images/simple/14.png","images/simple/8.png","images/complex/12.png,images/complex/2.png,images/complex/14.png,images/complex/10.png,images/complex/17.png,images/complex/3.png,images/complex/11.png","2","null","","200","460.7799998950213","","","","deviant","",""
"","null","html-keyboard-response","243","472506","0.0-20.0-0.14","SS1604518916828","","null","","","","","","","","","","","","<img src=images/blank.png width =""500"" height = ""500"" style=""border:5px solid black"">","","",""
"","327.74499990046024","stimulus-presentation","244","473047","0.0-20.0-1.14","SS1604518916828","<img src='images/simple/8.png' width ='500' height = '500' style='border:5px solid black'>","40","mixed_complex_deviant","images/simple/14.png","images/simple/8.png","images/complex/12.png,images/complex/2.png,images/complex/14.png,images/complex/10.png,images/complex/17.png,images/complex/3.png,images/complex/11.png","2","null","","200","527.7449999004602","","","","background","",""
"","null","html-keyboard-response","245","474320","0.0-20.0-0.15","SS1604518916828","","null","","","","","","","","","","","","<img src=images/blank.png width =""500"" height = ""500"" style=""border:5px solid black"">","","",""
"","192.80499988235533","stimulus-presentation","246","474727","0.0-20.0-1.15","SS1604518916828","<img src='images/simple/8.png' width ='500' height = '500' style='border:5px solid black'>","40","mixed_complex_deviant","images/simple/14.png","images/simple/8.png","images/complex/12.png,images/complex/2.png,images/complex/14.png,images/complex/10.png,images/complex/17.png,images/complex/3.png,images/complex/11.png","2","null","","200","392.80499988235533","","","","background","",""
"","null","html-keyboard-response","247","475666","0.0-20.0-0.16","SS1604518916828","","null","","","","","","","","","","","","<img src=images/blank.png width =""500"" height = ""500"" style=""border:5px solid black"">","","",""
"","288.8950000051409","stimulus-presentation","248","476168","0.0-20.0-1.16","SS1604518916828","<img src='images/simple/8.png' width ='500' height = '500' style='border:5px solid black'>","40","mixed_complex_deviant","images/simple/14.png","images/simple/8.png","images/complex/12.png,images/complex/2.png,images/complex/14.png,images/complex/10.png,images/complex/17.png,images/complex/3.png,images/complex/11.png","2","null","","200","488.8950000051409","","","","background","",""
"","null","html-keyboard-response","249","477273","0.0-20.0-0.17","SS1604518916828","","null","","","","","","","","","","","","<img src=images/blank.png width =""500"" height = ""500"" style=""border:5px solid black"">","","",""
"","162.66999999061227","stimulus-presentation","250","477647","0.0-20.0-1.17","SS1604518916828","<img src='images/simple/8.png' width ='500' height = '500' style='border:5px solid black'>","40","mixed_complex_deviant","images/simple/14.png","images/simple/8.png","images/complex/12.png,images/complex/2.png,images/complex/14.png,images/complex/10.png,images/complex/17.png,images/complex/3.png,images/complex/11.png","2","null","","200","362.66999999061227","","","","background","",""
"","null","html-keyboard-response","251","478591","0.0-20.0-0.18","SS1604518916828","","null","","","","","","","","","","","","<img src=images/blank.png width =""500"" height = ""500"" style=""border:5px solid black"">","","",""
"","195.6650000065565","stimulus-presentation","252","478999","0.0-20.0-1.18","SS1604518916828","<img src='images/simple/14.png' width ='500' height = '500' style='border:5px solid black'>","40","mixed_complex_deviant","images/simple/14.png","images/simple/8.png","images/complex/12.png,images/complex/2.png,images/complex/14.png,images/complex/10.png,images/complex/17.png,images/complex/3.png,images/complex/11.png","2","null","","200","395.6650000065565","","","","target","",""
"","null","html-keyboard-response","253","479918","0.0-20.0-0.19","SS1604518916828","","null","","","","","","","","","","","","<img src=images/blank.png width =""500"" height = ""500"" style=""border:5px solid black"">","","",""
"","197.41999986581504","stimulus-presentation","254","480327","0.0-20.0-1.19","SS1604518916828","<img src='images/simple/8.png' width ='500' height = '500' style='border:5px solid black'>","40","mixed_complex_deviant","images/simple/14.png","images/simple/8.png","images/complex/12.png,images/complex/2.png,images/complex/14.png,images/complex/10.png,images/complex/17.png,images/complex/3.png,images/complex/11.png","2","null","","200","397.41999986581504","","","","background","",""
"","null","html-keyboard-response","255","481297","0.0-20.0-0.20","SS1604518916828","","null","","","","","","","","","","","","<img src=images/blank.png width =""500"" height = ""500"" style=""border:5px solid black"">","","",""
"","105.2649999037385","stimulus-presentation","256","481615","0.0-20.0-1.20","SS1604518916828","<img src='images/simple/8.png' width ='500' height = '500' style='border:5px solid black'>","40","mixed_complex_deviant","images/simple/14.png","images/simple/8.png","images/complex/12.png,images/complex/2.png,images/complex/14.png,images/complex/10.png,images/complex/17.png,images/complex/3.png,images/complex/11.png","2","null","","200","305.2649999037385","","","","background","",""
"","null","html-keyboard-response","257","482576","0.0-20.0-0.21","SS1604518916828","","null","","","","","","","","","","","","<img src=images/blank.png width =""500"" height = ""500"" style=""border:5px solid black"">","","",""
"","151.99499996379018","stimulus-presentation","258","482943","0.0-20.0-1.21","SS1604518916828","<img src='images/simple/8.png' width ='500' height = '500' style='border:5px solid black'>","40","mixed_complex_deviant","images/simple/14.png","images/simple/8.png","images/complex/12.png,images/complex/2.png,images/complex/14.png,images/complex/10.png,images/complex/17.png,images/complex/3.png,images/complex/11.png","2","null","","200","351.9949999637902","","","","background","",""
"","null","html-keyboard-response","259","484152","0.0-20.0-0.22","SS1604518916828","","null","","","","","","","","","","","","<img src=images/blank.png width =""500"" height = ""500"" style=""border:5px solid black"">","","",""
"","185.15000003390014","stimulus-presentation","260","484551","0.0-20.0-1.22","SS1604518916828","<img src='images/simple/14.png' width ='500' height = '500' style='border:5px solid black'>","40","mixed_complex_deviant","images/simple/14.png","images/simple/8.png","images/complex/12.png,images/complex/2.png,images/complex/14.png,images/complex/10.png,images/complex/17.png,images/complex/3.png,images/complex/11.png","2","null","","200","385.15000003390014","","","","target","",""
"","null","html-keyboard-response","261","485522","0.0-20.0-0.23","SS1604518916828","","null","","","","","","","","","","","","<img src=images/blank.png width =""500"" height = ""500"" style=""border:5px solid black"">","","",""
"","260.1149999536574","stimulus-presentation","262","485999","0.0-20.0-1.23","SS1604518916828","<img src='images/simple/8.png' width ='500' height = '500' style='border:5px solid black'>","40","mixed_complex_deviant","images/simple/14.png","images/simple/8.png","images/complex/12.png,images/complex/2.png,images/complex/14.png,images/complex/10.png,images/complex/17.png,images/complex/3.png,images/complex/11.png","2","null","","200","460.1149999536574","","","","background","",""
"","null","html-keyboard-response","263","486851","0.0-20.0-0.24","SS1604518916828","","null","","","","","","","","","","","","<img src=images/blank.png width =""500"" height = ""500"" style=""border:5px solid black"">","","",""
"","409.0050000231713","stimulus-presentation","264","487472","0.0-20.0-1.24","SS1604518916828","<img src='images/simple/8.png' width ='500' height = '500' style='border:5px solid black'>","40","mixed_complex_deviant","images/simple/14.png","images/simple/8.png","images/complex/12.png,images/complex/2.png,images/complex/14.png,images/complex/10.png,images/complex/17.png,images/complex/3.png,images/complex/11.png","2","null","","200","609.0050000231713","","","","background","",""
"","null","html-keyboard-response","265","488733","0.0-20.0-0.25","SS1604518916828","","null","","","","","","","","","","","","<img src=images/blank.png width =""500"" height = ""500"" style=""border:5px solid black"">","","",""
"","194.79999993927777","stimulus-presentation","266","489143","0.0-20.0-1.25","SS1604518916828","<img src='images/complex/2.png' width ='500' height = '500' style='border:5px solid black'>","40","mixed_complex_deviant","images/simple/14.png","images/simple/8.png","images/complex/12.png,images/complex/2.png,images/complex/14.png,images/complex/10.png,images/complex/17.png,images/complex/3.png,images/complex/11.png","2","null","","200","394.79999993927777","","","","deviant","",""
"","null","html-keyboard-response","267","490399","0.0-20.0-0.26","SS1604518916828","","null","","","","","","","","","","","","<img src=images/blank.png width =""500"" height = ""500"" style=""border:5px solid black"">","","",""
"","675.8650001138449","stimulus-presentation","268","491287","0.0-20.0-1.26","SS1604518916828","<img src='images/simple/8.png' width ='500' height = '500' style='border:5px solid black'>","40","mixed_complex_deviant","images/simple/14.png","images/simple/8.png","images/complex/12.png,images/complex/2.png,images/complex/14.png,images/complex/10.png,images/complex/17.png,images/complex/3.png,images/complex/11.png","2","null","","200","875.8650001138449","","","","background","",""
"","null","html-keyboard-response","269","492504","0.0-20.0-0.27","SS1604518916828","","null","","","","","","","","","","","","<img src=images/blank.png width =""500"" height = ""500"" style=""border:5px solid black"">","","",""
"","186.63499993272126","stimulus-presentation","270","492903","0.0-20.0-1.27","SS1604518916828","<img src='images/simple/8.png' width ='500' height = '500' style='border:5px solid black'>","40","mixed_complex_deviant","images/simple/14.png","images/simple/8.png","images/complex/12.png,images/complex/2.png,images/complex/14.png,images/complex/10.png,images/complex/17.png,images/complex/3.png,images/complex/11.png","2","null","","200","386.63499993272126","","","","background","",""
"","null","html-keyboard-response","271","493960","0.0-20.0-0.28","SS1604518916828","","null","","","","","","","","","","","","<img src=images/blank.png width =""500"" height = ""500"" style=""border:5px solid black"">","","",""
"","241.95499997586012","stimulus-presentation","272","494416","0.0-20.0-1.28","SS1604518916828","<img src='images/simple/8.png' width ='500' height = '500' style='border:5px solid black'>","40","mixed_complex_deviant","images/simple/14.png","images/simple/8.png","images/complex/12.png,images/complex/2.png,images/complex/14.png,images/complex/10.png,images/complex/17.png,images/complex/3.png,images/complex/11.png","2","null","","200","441.9549999758601","","","","background","",""
"","null","html-keyboard-response","273","495339","0.0-20.0-0.29","SS1604518916828","","null","","","","","","","","","","","","<img src=images/blank.png width =""500"" height = ""500"" style=""border:5px solid black"">","","",""
"","242.51999985426664","stimulus-presentation","274","495791","0.0-20.0-1.29","SS1604518916828","<img src='images/complex/11.png' width ='500' height = '500' style='border:5px solid black'>","40","mixed_complex_deviant","images/simple/14.png","images/simple/8.png","images/complex/12.png,images/complex/2.png,images/complex/14.png,images/complex/10.png,images/complex/17.png,images/complex/3.png,images/complex/11.png","2","null","","200","442.51999985426664","","","","deviant","",""
"","null","html-keyboard-response","275","496840","0.0-20.0-0.30","SS1604518916828","","null","","","","","","","","","","","","<img src=images/blank.png width =""500"" height = ""500"" style=""border:5px solid black"">","","",""
"","273.4300000593066","stimulus-presentation","276","497327","0.0-20.0-1.30","SS1604518916828","<img src='images/simple/8.png' width ='500' height = '500' style='border:5px solid black'>","40","mixed_complex_deviant","images/simple/14.png","images/simple/8.png","images/complex/12.png,images/complex/2.png,images/complex/14.png,images/complex/10.png,images/complex/17.png,images/complex/3.png,images/complex/11.png","2","null","","200","473.4300000593066","","","","background","",""
"","null","html-keyboard-response","277","498638","0.0-20.0-0.31","SS1604518916828","","null","","","","","","","","","","","","<img src=images/blank.png width =""500"" height = ""500"" style=""border:5px solid black"">","","",""
"","603.4949999302626","stimulus-presentation","278","499456","0.0-20.0-1.31","SS1604518916828","<img src='images/simple/8.png' width ='500' height = '500' style='border:5px solid black'>","40","mixed_complex_deviant","images/simple/14.png","images/simple/8.png","images/complex/12.png,images/complex/2.png,images/complex/14.png,images/complex/10.png,images/complex/17.png,images/complex/3.png,images/complex/11.png","2","null","","200","803.4949999302626","","","","background","",""
"","null","html-keyboard-response","279","500281","0.0-20.0-0.32","SS1604518916828","","null","","","","","","","","","","","","<img src=images/blank.png width =""500"" height = ""500"" style=""border:5px solid black"">","","",""
"","208.21999991312623","stimulus-presentation","280","500703","0.0-20.0-1.32","SS1604518916828","<img src='images/simple/8.png' width ='500' height = '500' style='border:5px solid black'>","40","mixed_complex_deviant","images/simple/14.png","images/simple/8.png","images/complex/12.png,images/complex/2.png,images/complex/14.png,images/complex/10.png,images/complex/17.png,images/complex/3.png,images/complex/11.png","2","null","","200","408.21999991312623","","","","background","",""
"","null","html-keyboard-response","281","501742","0.0-20.0-0.33","SS1604518916828","","null","","","","","","","","","","","","<img src=images/blank.png width =""500"" height = ""500"" style=""border:5px solid black"">","","",""
"","218.1649999693036","stimulus-presentation","282","502175","0.0-20.0-1.33","SS1604518916828","<img src='images/simple/8.png' width ='500' height = '500' style='border:5px solid black'>","40","mixed_complex_deviant","images/simple/14.png","images/simple/8.png","images/complex/12.png,images/complex/2.png,images/complex/14.png,images/complex/10.png,images/complex/17.png,images/complex/3.png,images/complex/11.png","2","null","","200","418.1649999693036","","","","background","",""
"","null","html-keyboard-response","283","503274","0.0-20.0-0.34","SS1604518916828","","null","","","","","","","","","","","","<img src=images/blank.png width =""500"" height = ""500"" style=""border:5px solid black"">","","",""
"","2335.1849999744445","stimulus-presentation","284","505823","0.0-20.0-1.34","SS1604518916828","<img src='images/simple/14.png' width ='500' height = '500' style='border:5px solid black'>","40","mixed_complex_deviant","images/simple/14.png","images/simple/8.png","images/complex/12.png,images/complex/2.png,images/complex/14.png,images/complex/10.png,images/complex/17.png,images/complex/3.png,images/complex/11.png","2","null","","200","2535.1849999744445","","","","target","",""
"","null","html-keyboard-response","285","507040","0.0-20.0-0.35","SS1604518916828","","null","","","","","","","","","","","","<img src=images/blank.png width =""500"" height = ""500"" style=""border:5px solid black"">","","",""
