"view_history","rt","trial_type","trial_index","time_elapsed","internal_node_id","subject","trial_stimulus","key_press","task_type","task_target_stimulus","task_background_stimulus","task_deviant_stimuli","task_order_number","block_order_number","trial_order_number","minimum_viewing_duration","trial_looking_time","trial_pressed_space_bar","trial_space_bar_rt","stimulus","trial_stimulus_type","responses","question_order"
"[{""page_index"":0,""viewing_time"":34213.9099999913}]","34215.330000035465","instructions","0","34301","0.0-0.0","SS1603399437186","","","","","","","","","","","","","","","","",""
"[{""page_index"":0,""viewing_time"":9273.519999987911},{""page_index"":1,""viewing_time"":7856.614999996964},{""page_index"":2,""viewing_time"":7266.7249999940395},{""page_index"":3,""viewing_time"":14710.785000002943},{""page_index"":4,""viewing_time"":8324.36000002781},{""page_index"":5,""viewing_time"":9895.419999957085},{""page_index"":6,""viewing_time"":6075.720000022557},{""page_index"":7,""viewing_time"":7993.0249999742955},{""page_index"":8,""viewing_time"":3779.095000005327}]","75175.76000001281","instructions","1","109482","0.0-1.0","SS1603399437186","","","","","","","","","","","","","","","","",""
"[{""page_index"":0,""viewing_time"":12565.974999975879},{""page_index"":1,""viewing_time"":10438.555000000633},{""page_index"":2,""viewing_time"":4036.5900000324473}]","27041.559999983292","instructions","2","136527","0.0-2.0","SS1603399437186","","","","","","","","","","","","","","","","",""
"","4197.8100000415","practice-block","3","140934","0.0-3.0","SS1603399437186","<img src='images/practice/practice_background.jpeg' width ='500' height = '500' style='border:5px solid black'>","40","null","images/practice/practice_target.jpg","null","null","null","null","","200","4397.8100000415","","","","","",""
"","null","html-keyboard-response","4","141811","0.0-4.0","SS1603399437186","","null","","","","","","","","","","","","<img src=images/blank.png width =""500"" height = ""500"" style=""border:5px solid black"">","","",""
"","1642.2850000089966","practice-block","5","143671","0.0-5.0","SS1603399437186","<img src='images/practice/practice_background.jpeg' width ='500' height = '500' style='border:5px solid black'>","40","null","images/practice/practice_target.jpg","null","null","null","null","","200","1842.2850000089966","","","","","",""
"","null","html-keyboard-response","6","144869","0.0-6.0","SS1603399437186","","null","","","","","","","","","","","","<img src=images/blank.png width =""500"" height = ""500"" style=""border:5px solid black"">","","",""
"","10112.495000008494","practice-block","7","155189","0.0-7.0","SS1603399437186","<img src='images/practice/practice_deviant.jpeg' width ='500' height = '500' style='border:5px solid black'>","40","null","images/practice/practice_target.jpg","null","null","null","null","","200","10312.495000008494","yes","3202.9099999926984","","","",""
"","null","html-keyboard-response","8","156304","0.0-8.0","SS1603399437186","","null","","","","","","","","","","","","<img src=images/blank.png width =""500"" height = ""500"" style=""border:5px solid black"">","","",""
"","2377.0900000235997","practice-block","9","164380","0.0-9.0-0.0","SS1603399437186","<img src='images/practice/practice_target.jpg' width ='500' height = '500' style='border:5px solid black'>","40","null","images/practice/practice_target.jpg","null","null","null","null","","200","2577.0900000235997","","","","","",""
"","14222.369999974035","practice-block","10","178813","0.0-9.1-0.1","SS1603399437186","<img src='images/practice/practice_target.jpg' width ='500' height = '500' style='border:5px solid black'>","40","null","images/practice/practice_target.jpg","null","null","null","null","","200","14422.369999974035","yes","480.3599999868311","","","",""
"","null","html-keyboard-response","11","180038","0.0-10.0","SS1603399437186","","null","","","","","","","","","","","","<img src=images/blank.png width =""500"" height = ""500"" style=""border:5px solid black"">","","",""
"","2101.2200000113808","practice-block","12","182357","0.0-11.0","SS1603399437186","<img src='images/practice/practice_background.jpeg' width ='500' height = '500' style='border:5px solid black'>","40","null","images/practice/practice_target.jpg","null","null","null","null","","200","2301.2200000113808","","","","","",""
"[{""page_index"":0,""viewing_time"":5038}]","5038","task-instructions","13","187407","0.0-12.0","SS1603399437186","","","","","","","","","","","","","","","","",""
"[{""page_index"":0,""viewing_time"":9061.809999984689},{""page_index"":1,""viewing_time"":14950.819999969099},{""page_index"":2,""viewing_time"":2190.5250000418164}]","26203.72499997029","instructions","14","213614","0.0-13.0","SS1603399437186","","","","","","","","","","","","","","","","",""
"","null","html-keyboard-response","15","214681","0.0-14.0-0.0","SS1603399437186","","null","","","","","","","","","","","","<img src=images/blank.png width =""500"" height = ""500"" style=""border:5px solid black"">","","",""
"","2812.149999954272","stimulus-presentation","16","217707","0.0-14.0-1.0","SS1603399437186","<img src='images/simple/14.png' width ='500' height = '500' style='border:5px solid black'>","40","mixed_simple_deviant","images/complex/13.png","images/complex/11.png","images/simple/3.png,images/simple/5.png,images/simple/18.png,images/simple/14.png,images/simple/1.png,images/simple/9.png,images/simple/6.png","0","null","","200","3012.149999954272","yes","1586.8399999453686","","deviant","",""
"","null","html-keyboard-response","17","218988","0.0-14.0-0.1","SS1603399437186","","null","","","","","","","","","","","","<img src=images/blank.png width =""500"" height = ""500"" style=""border:5px solid black"">","","",""
"","1832.8549999860115","stimulus-presentation","18","221056","0.0-14.0-1.1","SS1603399437186","<img src='images/complex/11.png' width ='500' height = '500' style='border:5px solid black'>","40","mixed_simple_deviant","images/complex/13.png","images/complex/11.png","images/simple/3.png,images/simple/5.png,images/simple/18.png,images/simple/14.png,images/simple/1.png,images/simple/9.png,images/simple/6.png","0","null","","200","2032.8549999860115","","","","background","",""
"","null","html-keyboard-response","19","222166","0.0-14.0-0.2","SS1603399437186","","null","","","","","","","","","","","","<img src=images/blank.png width =""500"" height = ""500"" style=""border:5px solid black"">","","",""
"","2967.1000000089407","stimulus-presentation","20","225352","0.0-14.0-1.2","SS1603399437186","<img src='images/complex/11.png' width ='500' height = '500' style='border:5px solid black'>","40","mixed_simple_deviant","images/complex/13.png","images/complex/11.png","images/simple/3.png,images/simple/5.png,images/simple/18.png,images/simple/14.png,images/simple/1.png,images/simple/9.png,images/simple/6.png","0","null","","200","3167.1000000089407","","","","background","",""
"","null","html-keyboard-response","21","226269","0.0-14.0-0.3","SS1603399437186","","null","","","","","","","","","","","","<img src=images/blank.png width =""500"" height = ""500"" style=""border:5px solid black"">","","",""
"","1197.3400000133552","stimulus-presentation","22","227686","0.0-14.0-1.3","SS1603399437186","<img src='images/complex/11.png' width ='500' height = '500' style='border:5px solid black'>","40","mixed_simple_deviant","images/complex/13.png","images/complex/11.png","images/simple/3.png,images/simple/5.png,images/simple/18.png,images/simple/14.png,images/simple/1.png,images/simple/9.png,images/simple/6.png","0","null","","200","1397.3400000133552","","","","background","",""
"","null","html-keyboard-response","23","228795","0.0-14.0-0.4","SS1603399437186","","null","","","","","","","","","","","","<img src=images/blank.png width =""500"" height = ""500"" style=""border:5px solid black"">","","",""
"","2582.345000002533","stimulus-presentation","24","231597","0.0-14.0-1.4","SS1603399437186","<img src='images/complex/11.png' width ='500' height = '500' style='border:5px solid black'>","40","mixed_simple_deviant","images/complex/13.png","images/complex/11.png","images/simple/3.png,images/simple/5.png,images/simple/18.png,images/simple/14.png,images/simple/1.png,images/simple/9.png,images/simple/6.png","0","null","","200","2782.345000002533","yes","1444.5200000191107","","background","",""
"","null","html-keyboard-response","25","232690","0.0-14.0-0.5","SS1603399437186","","null","","","","","","","","","","","","<img src=images/blank.png width =""500"" height = ""500"" style=""border:5px solid black"">","","",""
"","2064.5000000367872","stimulus-presentation","26","234972","0.0-14.0-1.5","SS1603399437186","<img src='images/simple/6.png' width ='500' height = '500' style='border:5px solid black'>","40","mixed_simple_deviant","images/complex/13.png","images/complex/11.png","images/simple/3.png,images/simple/5.png,images/simple/18.png,images/simple/14.png,images/simple/1.png,images/simple/9.png,images/simple/6.png","0","null","","200","2264.5000000367872","","","","deviant","",""
"","null","html-keyboard-response","27","236164","0.0-14.0-0.6","SS1603399437186","","null","","","","","","","","","","","","<img src=images/blank.png width =""500"" height = ""500"" style=""border:5px solid black"">","","",""
"","1920.3799999668263","stimulus-presentation","28","238302","0.0-14.0-1.6","SS1603399437186","<img src='images/complex/11.png' width ='500' height = '500' style='border:5px solid black'>","40","mixed_simple_deviant","images/complex/13.png","images/complex/11.png","images/simple/3.png,images/simple/5.png,images/simple/18.png,images/simple/14.png,images/simple/1.png,images/simple/9.png,images/simple/6.png","0","null","","200","2120.3799999668263","yes","690.6549999839626","","background","",""
"","null","html-keyboard-response","29","239312","0.0-14.0-0.7","SS1603399437186","","null","","","","","","","","","","","","<img src=images/blank.png width =""500"" height = ""500"" style=""border:5px solid black"">","","",""
"","1836.3699999754317","stimulus-presentation","30","241366","0.0-14.0-1.7","SS1603399437186","<img src='images/complex/11.png' width ='500' height = '500' style='border:5px solid black'>","40","mixed_simple_deviant","images/complex/13.png","images/complex/11.png","images/simple/3.png,images/simple/5.png,images/simple/18.png,images/simple/14.png,images/simple/1.png,images/simple/9.png,images/simple/6.png","0","null","","200","2036.3699999754317","yes","549.8549999902025","","background","",""
"","null","html-keyboard-response","31","242491","0.0-14.0-0.8","SS1603399437186","","null","","","","","","","","","","","","<img src=images/blank.png width =""500"" height = ""500"" style=""border:5px solid black"">","","",""
"","1462.1700000134297","stimulus-presentation","32","244166","0.0-14.0-1.8","SS1603399437186","<img src='images/complex/11.png' width ='500' height = '500' style='border:5px solid black'>","40","mixed_simple_deviant","images/complex/13.png","images/complex/11.png","images/simple/3.png,images/simple/5.png,images/simple/18.png,images/simple/14.png,images/simple/1.png,images/simple/9.png,images/simple/6.png","0","null","","200","1662.1700000134297","yes","660.6850000098348","","background","",""
"","null","html-keyboard-response","33","245096","0.0-14.0-0.9","SS1603399437186","","null","","","","","","","","","","","","<img src=images/blank.png width =""500"" height = ""500"" style=""border:5px solid black"">","","",""
"","1476.5100000076927","stimulus-presentation","34","246792","0.0-14.0-1.9","SS1603399437186","<img src='images/simple/18.png' width ='500' height = '500' style='border:5px solid black'>","40","mixed_simple_deviant","images/complex/13.png","images/complex/11.png","images/simple/3.png,images/simple/5.png,images/simple/18.png,images/simple/14.png,images/simple/1.png,images/simple/9.png,images/simple/6.png","0","null","","200","1676.5100000076927","","","","deviant","",""
"","null","html-keyboard-response","35","247760","0.0-14.0-0.10","SS1603399437186","","null","","","","","","","","","","","","<img src=images/blank.png width =""500"" height = ""500"" style=""border:5px solid black"">","","",""
"","1365.7600000151433","stimulus-presentation","36","249344","0.0-14.0-1.10","SS1603399437186","<img src='images/complex/13.png' width ='500' height = '500' style='border:5px solid black'>","40","mixed_simple_deviant","images/complex/13.png","images/complex/11.png","images/simple/3.png,images/simple/5.png,images/simple/18.png,images/simple/14.png,images/simple/1.png,images/simple/9.png,images/simple/6.png","0","null","","200","1565.7600000151433","","","","target","",""
"","null","html-keyboard-response","37","250436","0.0-14.0-0.11","SS1603399437186","","null","","","","","","","","","","","","<img src=images/blank.png width =""500"" height = ""500"" style=""border:5px solid black"">","","",""
"","1380.059999995865","stimulus-presentation","38","252036","0.0-14.0-1.11","SS1603399437186","<img src='images/complex/11.png' width ='500' height = '500' style='border:5px solid black'>","40","mixed_simple_deviant","images/complex/13.png","images/complex/11.png","images/simple/3.png,images/simple/5.png,images/simple/18.png,images/simple/14.png,images/simple/1.png,images/simple/9.png,images/simple/6.png","0","null","","200","1580.059999995865","yes","660.1950000040233","","background","",""
"","null","html-keyboard-response","39","253071","0.0-14.0-0.12","SS1603399437186","","null","","","","","","","","","","","","<img src=images/blank.png width =""500"" height = ""500"" style=""border:5px solid black"">","","",""
"","1323.320000024978","stimulus-presentation","40","254613","0.0-14.0-1.12","SS1603399437186","<img src='images/complex/11.png' width ='500' height = '500' style='border:5px solid black'>","40","mixed_simple_deviant","images/complex/13.png","images/complex/11.png","images/simple/3.png,images/simple/5.png,images/simple/18.png,images/simple/14.png,images/simple/1.png,images/simple/9.png,images/simple/6.png","0","null","","200","1523.320000024978","yes","581.1900000553578","","background","",""
"","null","html-keyboard-response","41","255518","0.0-14.0-0.13","SS1603399437186","","null","","","","","","","","","","","","<img src=images/blank.png width =""500"" height = ""500"" style=""border:5px solid black"">","","",""
"","887.5549999647774","stimulus-presentation","42","256627","0.0-14.0-1.13","SS1603399437186","<img src='images/complex/11.png' width ='500' height = '500' style='border:5px solid black'>","40","mixed_simple_deviant","images/complex/13.png","images/complex/11.png","images/simple/3.png,images/simple/5.png,images/simple/18.png,images/simple/14.png,images/simple/1.png,images/simple/9.png,images/simple/6.png","0","null","","200","1087.5549999647774","yes","361.99999996460974","","background","",""
"","null","html-keyboard-response","43","257459","0.0-14.0-0.14","SS1603399437186","","null","","","","","","","","","","","","<img src=images/blank.png width =""500"" height = ""500"" style=""border:5px solid black"">","","",""
"","1330.4850000422448","stimulus-presentation","44","259006","0.0-14.0-1.14","SS1603399437186","<img src='images/complex/11.png' width ='500' height = '500' style='border:5px solid black'>","40","mixed_simple_deviant","images/complex/13.png","images/complex/11.png","images/simple/3.png,images/simple/5.png,images/simple/18.png,images/simple/14.png,images/simple/1.png,images/simple/9.png,images/simple/6.png","0","null","","200","1530.4850000422448","yes","612.4800000106916","","background","",""
"","null","html-keyboard-response","45","260211","0.0-14.0-0.15","SS1603399437186","","null","","","","","","","","","","","","<img src=images/blank.png width =""500"" height = ""500"" style=""border:5px solid black"">","","",""
"","1471.1649999953806","stimulus-presentation","46","261898","0.0-14.0-1.15","SS1603399437186","<img src='images/complex/11.png' width ='500' height = '500' style='border:5px solid black'>","40","mixed_simple_deviant","images/complex/13.png","images/complex/11.png","images/simple/3.png,images/simple/5.png,images/simple/18.png,images/simple/14.png,images/simple/1.png,images/simple/9.png,images/simple/6.png","0","null","","200","1671.1649999953806","yes","744.2550000268966","","background","",""
"","null","html-keyboard-response","47","263005","0.0-14.0-0.16","SS1603399437186","","null","","","","","","","","","","","","<img src=images/blank.png width =""500"" height = ""500"" style=""border:5px solid black"">","","",""
"","1007.3049999773502","stimulus-presentation","48","264230","0.0-14.0-1.16","SS1603399437186","<img src='images/complex/11.png' width ='500' height = '500' style='border:5px solid black'>","40","mixed_simple_deviant","images/complex/13.png","images/complex/11.png","images/simple/3.png,images/simple/5.png,images/simple/18.png,images/simple/14.png,images/simple/1.png,images/simple/9.png,images/simple/6.png","0","null","","200","1207.3049999773502","yes","451.0899999877438","","background","",""
"","null","html-keyboard-response","49","265274","0.0-14.0-0.17","SS1603399437186","","null","","","","","","","","","","","","<img src=images/blank.png width =""500"" height = ""500"" style=""border:5px solid black"">","","",""
"","1553.8850000011735","stimulus-presentation","50","267048","0.0-14.0-1.17","SS1603399437186","<img src='images/simple/5.png' width ='500' height = '500' style='border:5px solid black'>","40","mixed_simple_deviant","images/complex/13.png","images/complex/11.png","images/simple/3.png,images/simple/5.png,images/simple/18.png,images/simple/14.png,images/simple/1.png,images/simple/9.png,images/simple/6.png","0","null","","200","1753.8850000011735","","","","deviant","",""
"","null","html-keyboard-response","51","267891","0.0-14.0-0.18","SS1603399437186","","null","","","","","","","","","","","","<img src=images/blank.png width =""500"" height = ""500"" style=""border:5px solid black"">","","",""
"","1206.9050000282004","stimulus-presentation","52","269320","0.0-14.0-1.18","SS1603399437186","<img src='images/complex/11.png' width ='500' height = '500' style='border:5px solid black'>","40","mixed_simple_deviant","images/complex/13.png","images/complex/11.png","images/simple/3.png,images/simple/5.png,images/simple/18.png,images/simple/14.png,images/simple/1.png,images/simple/9.png,images/simple/6.png","0","null","","200","1406.9050000282004","yes","1049.4349999935366","","background","",""
"","null","html-keyboard-response","53","270415","0.0-14.0-0.19","SS1603399437186","","null","","","","","","","","","","","","<img src=images/blank.png width =""500"" height = ""500"" style=""border:5px solid black"">","","",""
"","1532.0499999797903","stimulus-presentation","54","272166","0.0-14.0-1.19","SS1603399437186","<img src='images/complex/13.png' width ='500' height = '500' style='border:5px solid black'>","40","mixed_simple_deviant","images/complex/13.png","images/complex/11.png","images/simple/3.png,images/simple/5.png,images/simple/18.png,images/simple/14.png,images/simple/1.png,images/simple/9.png,images/simple/6.png","0","null","","200","1732.0499999797903","","","","target","",""
"","null","html-keyboard-response","55","273344","0.0-14.0-0.20","SS1603399437186","","null","","","","","","","","","","","","<img src=images/blank.png width =""500"" height = ""500"" style=""border:5px solid black"">","","",""
"","1955.4449999704957","stimulus-presentation","56","275518","0.0-14.0-1.20","SS1603399437186","<img src='images/simple/3.png' width ='500' height = '500' style='border:5px solid black'>","40","mixed_simple_deviant","images/complex/13.png","images/complex/11.png","images/simple/3.png,images/simple/5.png,images/simple/18.png,images/simple/14.png,images/simple/1.png,images/simple/9.png,images/simple/6.png","0","null","","200","2155.4449999704957","","","","deviant","",""
"","null","html-keyboard-response","57","276742","0.0-14.0-0.21","SS1603399437186","","null","","","","","","","","","","","","<img src=images/blank.png width =""500"" height = ""500"" style=""border:5px solid black"">","","",""
"","1221.5049999649636","stimulus-presentation","58","278183","0.0-14.0-1.21","SS1603399437186","<img src='images/complex/13.png' width ='500' height = '500' style='border:5px solid black'>","40","mixed_simple_deviant","images/complex/13.png","images/complex/11.png","images/simple/3.png,images/simple/5.png,images/simple/18.png,images/simple/14.png,images/simple/1.png,images/simple/9.png,images/simple/6.png","0","null","","200","1421.5049999649636","","","","target","",""
"","null","html-keyboard-response","59","279056","0.0-14.0-0.22","SS1603399437186","","null","","","","","","","","","","","","<img src=images/blank.png width =""500"" height = ""500"" style=""border:5px solid black"">","","",""
"","916.4299999829382","stimulus-presentation","60","280194","0.0-14.0-1.22","SS1603399437186","<img src='images/complex/13.png' width ='500' height = '500' style='border:5px solid black'>","40","mixed_simple_deviant","images/complex/13.png","images/complex/11.png","images/simple/3.png,images/simple/5.png,images/simple/18.png,images/simple/14.png,images/simple/1.png,images/simple/9.png,images/simple/6.png","0","null","","200","1116.4299999829382","","","","target","",""
"","null","html-keyboard-response","61","281425","0.0-14.0-0.23","SS1603399437186","","null","","","","","","","","","","","","<img src=images/blank.png width =""500"" height = ""500"" style=""border:5px solid black"">","","",""
"","1181.5000000060536","stimulus-presentation","62","282825","0.0-14.0-1.23","SS1603399437186","<img src='images/complex/11.png' width ='500' height = '500' style='border:5px solid black'>","40","mixed_simple_deviant","images/complex/13.png","images/complex/11.png","images/simple/3.png,images/simple/5.png,images/simple/18.png,images/simple/14.png,images/simple/1.png,images/simple/9.png,images/simple/6.png","0","null","","200","1381.5000000060536","yes","613.515000033658","","background","",""
"","null","html-keyboard-response","63","283808","0.0-14.0-0.24","SS1603399437186","","null","","","","","","","","","","","","<img src=images/blank.png width =""500"" height = ""500"" style=""border:5px solid black"">","","",""
"","1057.0549999829382","stimulus-presentation","64","285084","0.0-14.0-1.24","SS1603399437186","<img src='images/complex/11.png' width ='500' height = '500' style='border:5px solid black'>","40","mixed_simple_deviant","images/complex/13.png","images/complex/11.png","images/simple/3.png,images/simple/5.png,images/simple/18.png,images/simple/14.png,images/simple/1.png,images/simple/9.png,images/simple/6.png","0","null","","200","1257.0549999829382","yes","473.71500002918765","","background","",""
"","null","html-keyboard-response","65","285968","0.0-14.0-0.25","SS1603399437186","","null","","","","","","","","","","","","<img src=images/blank.png width =""500"" height = ""500"" style=""border:5px solid black"">","","",""
"","961.5150000317954","stimulus-presentation","66","287149","0.0-14.0-1.25","SS1603399437186","<img src='images/complex/11.png' width ='500' height = '500' style='border:5px solid black'>","40","mixed_simple_deviant","images/complex/13.png","images/complex/11.png","images/simple/3.png,images/simple/5.png,images/simple/18.png,images/simple/14.png,images/simple/1.png,images/simple/9.png,images/simple/6.png","0","null","","200","1161.5150000317954","yes","497.1500000101514","","background","",""
"","null","html-keyboard-response","67","288336","0.0-14.0-0.26","SS1603399437186","","null","","","","","","","","","","","","<img src=images/blank.png width =""500"" height = ""500"" style=""border:5px solid black"">","","",""
"","1270.7999999984168","stimulus-presentation","68","289826","0.0-14.0-1.26","SS1603399437186","<img src='images/complex/11.png' width ='500' height = '500' style='border:5px solid black'>","40","mixed_simple_deviant","images/complex/13.png","images/complex/11.png","images/simple/3.png,images/simple/5.png,images/simple/18.png,images/simple/14.png,images/simple/1.png,images/simple/9.png,images/simple/6.png","0","null","","200","1470.7999999984168","yes","629.659999976866","","background","",""
"","null","html-keyboard-response","69","290663","0.0-14.0-0.27","SS1603399437186","","null","","","","","","","","","","","","<img src=images/blank.png width =""500"" height = ""500"" style=""border:5px solid black"">","","",""
"","901.8999999971129","stimulus-presentation","70","291781","0.0-14.0-1.27","SS1603399437186","<img src='images/complex/11.png' width ='500' height = '500' style='border:5px solid black'>","40","mixed_simple_deviant","images/complex/13.png","images/complex/11.png","images/simple/3.png,images/simple/5.png,images/simple/18.png,images/simple/14.png,images/simple/1.png,images/simple/9.png,images/simple/6.png","0","null","","200","1101.899999997113","yes","387.33500003581867","","background","",""
"","null","html-keyboard-response","71","292629","0.0-14.0-0.28","SS1603399437186","","null","","","","","","","","","","","","<img src=images/blank.png width =""500"" height = ""500"" style=""border:5px solid black"">","","",""
"","1009.7400000086054","stimulus-presentation","72","293858","0.0-14.0-1.28","SS1603399437186","<img src='images/complex/13.png' width ='500' height = '500' style='border:5px solid black'>","40","mixed_simple_deviant","images/complex/13.png","images/complex/11.png","images/simple/3.png,images/simple/5.png,images/simple/18.png,images/simple/14.png,images/simple/1.png,images/simple/9.png,images/simple/6.png","0","null","","200","1209.7400000086054","","","","target","",""
"","null","html-keyboard-response","73","295041","0.0-14.0-0.29","SS1603399437186","","null","","","","","","","","","","","","<img src=images/blank.png width =""500"" height = ""500"" style=""border:5px solid black"">","","",""
"","1026.4050000114366","stimulus-presentation","74","296283","0.0-14.0-1.29","SS1603399437186","<img src='images/complex/11.png' width ='500' height = '500' style='border:5px solid black'>","40","mixed_simple_deviant","images/complex/13.png","images/complex/11.png","images/simple/3.png,images/simple/5.png,images/simple/18.png,images/simple/14.png,images/simple/1.png,images/simple/9.png,images/simple/6.png","0","null","","200","1226.4050000114366","yes","559.3000000226311","","background","",""
"","null","html-keyboard-response","75","297099","0.0-14.0-0.30","SS1603399437186","","null","","","","","","","","","","","","<img src=images/blank.png width =""500"" height = ""500"" style=""border:5px solid black"">","","",""
"","1191.9200000120327","stimulus-presentation","76","298520","0.0-14.0-1.30","SS1603399437186","<img src='images/complex/11.png' width ='500' height = '500' style='border:5px solid black'>","40","mixed_simple_deviant","images/complex/13.png","images/complex/11.png","images/simple/3.png,images/simple/5.png,images/simple/18.png,images/simple/14.png,images/simple/1.png,images/simple/9.png,images/simple/6.png","0","null","","200","1391.9200000120327","yes","741.4349999744445","","background","",""
"","null","html-keyboard-response","77","299380","0.0-14.0-0.31","SS1603399437186","","null","","","","","","","","","","","","<img src=images/blank.png width =""500"" height = ""500"" style=""border:5px solid black"">","","",""
"","833.8250000379048","stimulus-presentation","78","300434","0.0-14.0-1.31","SS1603399437186","<img src='images/complex/11.png' width ='500' height = '500' style='border:5px solid black'>","40","mixed_simple_deviant","images/complex/13.png","images/complex/11.png","images/simple/3.png,images/simple/5.png,images/simple/18.png,images/simple/14.png,images/simple/1.png,images/simple/9.png,images/simple/6.png","0","null","","200","1033.8250000379048","yes","340.7000000006519","","background","",""
"","null","html-keyboard-response","79","301621","0.0-14.0-0.32","SS1603399437186","","null","","","","","","","","","","","","<img src=images/blank.png width =""500"" height = ""500"" style=""border:5px solid black"">","","",""
"","979.3899999931455","stimulus-presentation","80","302837","0.0-14.0-1.32","SS1603399437186","<img src='images/complex/11.png' width ='500' height = '500' style='border:5px solid black'>","40","mixed_simple_deviant","images/complex/13.png","images/complex/11.png","images/simple/3.png,images/simple/5.png,images/simple/18.png,images/simple/14.png,images/simple/1.png,images/simple/9.png,images/simple/6.png","0","null","","200","1179.3899999931455","yes","445.71499997982755","","background","",""
"","null","html-keyboard-response","81","303770","0.0-14.0-0.33","SS1603399437186","","null","","","","","","","","","","","","<img src=images/blank.png width =""500"" height = ""500"" style=""border:5px solid black"">","","",""
"","1005.1749999984168","stimulus-presentation","82","304992","0.0-14.0-1.33","SS1603399437186","<img src='images/complex/11.png' width ='500' height = '500' style='border:5px solid black'>","40","mixed_simple_deviant","images/complex/13.png","images/complex/11.png","images/simple/3.png,images/simple/5.png,images/simple/18.png,images/simple/14.png,images/simple/1.png,images/simple/9.png,images/simple/6.png","0","null","","200","1205.1749999984168","yes","481.6199999768287","","background","",""
"","null","html-keyboard-response","83","305915","0.0-14.0-0.34","SS1603399437186","","null","","","","","","","","","","","","<img src=images/blank.png width =""500"" height = ""500"" style=""border:5px solid black"">","","",""
"","1152.1400000201538","stimulus-presentation","84","307285","0.0-14.0-1.34","SS1603399437186","<img src='images/complex/11.png' width ='500' height = '500' style='border:5px solid black'>","40","mixed_simple_deviant","images/complex/13.png","images/complex/11.png","images/simple/3.png,images/simple/5.png,images/simple/18.png,images/simple/14.png,images/simple/1.png,images/simple/9.png,images/simple/6.png","0","null","","200","1352.1400000201538","yes","456.31999999750406","","background","",""
"","null","html-keyboard-response","85","308508","0.0-14.0-0.35","SS1603399437186","","null","","","","","","","","","","","","<img src=images/blank.png width =""500"" height = ""500"" style=""border:5px solid black"">","","",""
"","810.094999964349","stimulus-presentation","86","309525","0.0-14.0-1.35","SS1603399437186","<img src='images/complex/11.png' width ='500' height = '500' style='border:5px solid black'>","40","mixed_simple_deviant","images/complex/13.png","images/complex/11.png","images/simple/3.png,images/simple/5.png,images/simple/18.png,images/simple/14.png,images/simple/1.png,images/simple/9.png,images/simple/6.png","0","null","","200","1010.094999964349","yes","376.2049999786541","","background","",""
"","null","html-keyboard-response","87","310802","0.0-14.0-0.36","SS1603399437186","","null","","","","","","","","","","","","<img src=images/blank.png width =""500"" height = ""500"" style=""border:5px solid black"">","","",""
"","1228.015000000596","stimulus-presentation","88","312245","0.0-14.0-1.36","SS1603399437186","<img src='images/simple/9.png' width ='500' height = '500' style='border:5px solid black'>","40","mixed_simple_deviant","images/complex/13.png","images/complex/11.png","images/simple/3.png,images/simple/5.png,images/simple/18.png,images/simple/14.png,images/simple/1.png,images/simple/9.png,images/simple/6.png","0","null","","200","1428.015000000596","","","","deviant","",""
"","null","html-keyboard-response","89","313363","0.0-14.0-0.37","SS1603399437186","","null","","","","","","","","","","","","<img src=images/blank.png width =""500"" height = ""500"" style=""border:5px solid black"">","","",""
"","945.8100000047125","stimulus-presentation","90","314525","0.0-14.0-1.37","SS1603399437186","<img src='images/complex/11.png' width ='500' height = '500' style='border:5px solid black'>","40","mixed_simple_deviant","images/complex/13.png","images/complex/11.png","images/simple/3.png,images/simple/5.png,images/simple/18.png,images/simple/14.png,images/simple/1.png,images/simple/9.png,images/simple/6.png","0","null","","200","1145.8100000047125","yes","481.9499999866821","","background","",""
"","null","html-keyboard-response","91","315563","0.0-14.0-0.38","SS1603399437186","","null","","","","","","","","","","","","<img src=images/blank.png width =""500"" height = ""500"" style=""border:5px solid black"">","","",""
"","1116.1899999715388","stimulus-presentation","92","316893","0.0-14.0-1.38","SS1603399437186","<img src='images/complex/11.png' width ='500' height = '500' style='border:5px solid black'>","40","mixed_simple_deviant","images/complex/13.png","images/complex/11.png","images/simple/3.png,images/simple/5.png,images/simple/18.png,images/simple/14.png,images/simple/1.png,images/simple/9.png,images/simple/6.png","0","null","","200","1316.1899999715388","yes","418.5200000065379","","background","",""
"","null","html-keyboard-response","93","317974","0.0-14.0-0.39","SS1603399437186","","null","","","","","","","","","","","","<img src=images/blank.png width =""500"" height = ""500"" style=""border:5px solid black"">","","",""
"","839.6550000179559","stimulus-presentation","94","319022","0.0-14.0-1.39","SS1603399437186","<img src='images/complex/11.png' width ='500' height = '500' style='border:5px solid black'>","40","mixed_simple_deviant","images/complex/13.png","images/complex/11.png","images/simple/3.png,images/simple/5.png,images/simple/18.png,images/simple/14.png,images/simple/1.png,images/simple/9.png,images/simple/6.png","0","null","","200","1039.655000017956","yes","473.74499996658415","","background","",""
"","null","html-keyboard-response","95","319981","0.0-14.0-0.40","SS1603399437186","","null","","","","","","","","","","","","<img src=images/blank.png width =""500"" height = ""500"" style=""border:5px solid black"">","","",""
"","1755.1300000050105","stimulus-presentation","96","321953","0.0-14.0-1.40","SS1603399437186","<img src='images/simple/1.png' width ='500' height = '500' style='border:5px solid black'>","40","mixed_simple_deviant","images/complex/13.png","images/complex/11.png","images/simple/3.png,images/simple/5.png,images/simple/18.png,images/simple/14.png,images/simple/1.png,images/simple/9.png,images/simple/6.png","0","null","","200","1955.1300000050105","","","","deviant","",""
"","null","html-keyboard-response","97","323171","0.0-14.0-0.41","SS1603399437186","","null","","","","","","","","","","","","<img src=images/blank.png width =""500"" height = ""500"" style=""border:5px solid black"">","","",""
"","787.8250000067055","stimulus-presentation","98","324177","0.0-14.0-1.41","SS1603399437186","<img src='images/complex/11.png' width ='500' height = '500' style='border:5px solid black'>","40","mixed_simple_deviant","images/complex/13.png","images/complex/11.png","images/simple/3.png,images/simple/5.png,images/simple/18.png,images/simple/14.png,images/simple/1.png,images/simple/9.png,images/simple/6.png","0","null","","200","987.8250000067055","yes","322.0599999767728","","background","",""
"","null","html-keyboard-response","99","325065","0.0-14.0-0.42","SS1603399437186","","null","","","","","","","","","","","","<img src=images/blank.png width =""500"" height = ""500"" style=""border:5px solid black"">","","",""
"","1526.929999992717","stimulus-presentation","100","326811","0.0-14.0-1.42","SS1603399437186","<img src='images/complex/13.png' width ='500' height = '500' style='border:5px solid black'>","40","mixed_simple_deviant","images/complex/13.png","images/complex/11.png","images/simple/3.png,images/simple/5.png,images/simple/18.png,images/simple/14.png,images/simple/1.png,images/simple/9.png,images/simple/6.png","0","null","","200","1726.929999992717","","","","target","",""
"","null","html-keyboard-response","101","327886","0.0-14.0-0.43","SS1603399437186","","null","","","","","","","","","","","","<img src=images/blank.png width =""500"" height = ""500"" style=""border:5px solid black"">","","",""
"","1120.1400000136346","stimulus-presentation","102","329224","0.0-14.0-1.43","SS1603399437186","<img src='images/complex/13.png' width ='500' height = '500' style='border:5px solid black'>","40","mixed_simple_deviant","images/complex/13.png","images/complex/11.png","images/simple/3.png,images/simple/5.png,images/simple/18.png,images/simple/14.png,images/simple/1.png,images/simple/9.png,images/simple/6.png","0","null","","200","1320.1400000136346","","","","target","",""
"","null","html-keyboard-response","103","330496","0.0-14.0-0.44","SS1603399437186","","null","","","","","","","","","","","","<img src=images/blank.png width =""500"" height = ""500"" style=""border:5px solid black"">","","",""
"","1461.7149999830872","stimulus-presentation","104","332176","0.0-14.0-1.44","SS1603399437186","<img src='images/complex/11.png' width ='500' height = '500' style='border:5px solid black'>","40","mixed_simple_deviant","images/complex/13.png","images/complex/11.png","images/simple/3.png,images/simple/5.png,images/simple/18.png,images/simple/14.png,images/simple/1.png,images/simple/9.png,images/simple/6.png","0","null","","200","1661.7149999830872","yes","465.42999998200685","","background","",""
"","null","html-keyboard-response","105","333111","0.0-14.0-0.45","SS1603399437186","","null","","","","","","","","","","","","<img src=images/blank.png width =""500"" height = ""500"" style=""border:5px solid black"">","","",""
"","941.8599999626167","stimulus-presentation","106","334274","0.0-14.0-1.45","SS1603399437186","<img src='images/complex/11.png' width ='500' height = '500' style='border:5px solid black'>","40","mixed_simple_deviant","images/complex/13.png","images/complex/11.png","images/simple/3.png,images/simple/5.png,images/simple/18.png,images/simple/14.png,images/simple/1.png,images/simple/9.png,images/simple/6.png","0","null","","200","1141.8599999626167","yes","436.68499996419996","","background","",""
"","null","html-keyboard-response","107","335300","0.0-14.0-0.46","SS1603399437186","","null","","","","","","","","","","","","<img src=images/blank.png width =""500"" height = ""500"" style=""border:5px solid black"">","","",""
"","759.589999972377","stimulus-presentation","108","336280","0.0-14.0-1.46","SS1603399437186","<img src='images/complex/11.png' width ='500' height = '500' style='border:5px solid black'>","40","mixed_simple_deviant","images/complex/13.png","images/complex/11.png","images/simple/3.png,images/simple/5.png,images/simple/18.png,images/simple/14.png,images/simple/1.png,images/simple/9.png,images/simple/6.png","0","null","","200","959.589999972377","yes","286.3800000050105","","background","",""
"","null","html-keyboard-response","109","337419","0.0-14.0-0.47","SS1603399437186","","null","","","","","","","","","","","","<img src=images/blank.png width =""500"" height = ""500"" style=""border:5px solid black"">","","",""
"","801.4349999721162","stimulus-presentation","110","338437","0.0-14.0-1.47","SS1603399437186","<img src='images/complex/11.png' width ='500' height = '500' style='border:5px solid black'>","40","mixed_simple_deviant","images/complex/13.png","images/complex/11.png","images/simple/3.png,images/simple/5.png,images/simple/18.png,images/simple/14.png,images/simple/1.png,images/simple/9.png,images/simple/6.png","0","null","","200","1001.4349999721162","yes","318.86499997926876","","background","",""
"","null","html-keyboard-response","111","339373","0.0-14.0-0.48","SS1603399437186","","null","","","","","","","","","","","","<img src=images/blank.png width =""500"" height = ""500"" style=""border:5px solid black"">","","",""
"","1089.8549999692477","stimulus-presentation","112","340679","0.0-14.0-1.48","SS1603399437186","<img src='images/complex/11.png' width ='500' height = '500' style='border:5px solid black'>","40","mixed_simple_deviant","images/complex/13.png","images/complex/11.png","images/simple/3.png,images/simple/5.png,images/simple/18.png,images/simple/14.png,images/simple/1.png,images/simple/9.png,images/simple/6.png","0","null","","200","1289.8549999692477","yes","624.6749999700114","","background","",""
"[{""page_index"":0,""viewing_time"":26328}]","26328","task-instructions","113","367013","0.0-15.0","SS1603399437186","","","","","","","","","","","","","","","","",""
"[{""page_index"":0,""viewing_time"":9871.49499997031},{""page_index"":1,""viewing_time"":11550.600000016857},{""page_index"":2,""viewing_time"":2531.5049999626353}]","23954.05000000028","instructions","114","390974","0.0-16.0","SS1603399437186","","","","","","","","","","","","","","","","",""
"","null","html-keyboard-response","115","392115","0.0-17.0-0.0","SS1603399437186","","null","","","","","","","","","","","","<img src=images/blank.png width =""500"" height = ""500"" style=""border:5px solid black"">","","",""
"","2725.174999970477","stimulus-presentation","116","395057","0.0-17.0-1.0","SS1603399437186","<img src='images/simple/12.png' width ='500' height = '500' style='border:5px solid black'>","40","all_simple","images/simple/4.png","images/simple/12.png","images/simple/11.png,images/simple/13.png,images/simple/7.png,images/simple/16.png,images/simple/8.png,images/simple/10.png,images/simple/2.png","1","null","","200","2925.174999970477","","","","background","",""
"","null","html-keyboard-response","117","396093","0.0-17.0-0.1","SS1603399437186","","null","","","","","","","","","","","","<img src=images/blank.png width =""500"" height = ""500"" style=""border:5px solid black"">","","",""
"","945.3400000347756","stimulus-presentation","118","397246","0.0-17.0-1.1","SS1603399437186","<img src='images/simple/12.png' width ='500' height = '500' style='border:5px solid black'>","40","all_simple","images/simple/4.png","images/simple/12.png","images/simple/11.png,images/simple/13.png,images/simple/7.png,images/simple/16.png,images/simple/8.png,images/simple/10.png,images/simple/2.png","1","null","","200","1145.3400000347756","","","","background","",""
"","null","html-keyboard-response","119","398366","0.0-17.0-0.2","SS1603399437186","","null","","","","","","","","","","","","<img src=images/blank.png width =""500"" height = ""500"" style=""border:5px solid black"">","","",""
"","729.1350000305101","stimulus-presentation","120","399318","0.0-17.0-1.2","SS1603399437186","<img src='images/simple/12.png' width ='500' height = '500' style='border:5px solid black'>","40","all_simple","images/simple/4.png","images/simple/12.png","images/simple/11.png,images/simple/13.png,images/simple/7.png,images/simple/16.png,images/simple/8.png,images/simple/10.png,images/simple/2.png","1","null","","200","929.1350000305101","","","","background","",""
"","null","html-keyboard-response","121","400184","0.0-17.0-0.3","SS1603399437186","","null","","","","","","","","","","","","<img src=images/blank.png width =""500"" height = ""500"" style=""border:5px solid black"">","","",""
"","787.7849999931641","stimulus-presentation","122","401180","0.0-17.0-1.3","SS1603399437186","<img src='images/simple/12.png' width ='500' height = '500' style='border:5px solid black'>","40","all_simple","images/simple/4.png","images/simple/12.png","images/simple/11.png,images/simple/13.png,images/simple/7.png,images/simple/16.png,images/simple/8.png,images/simple/10.png,images/simple/2.png","1","null","","200","987.7849999931641","","","","background","",""
"","null","html-keyboard-response","123","402399","0.0-17.0-0.4","SS1603399437186","","null","","","","","","","","","","","","<img src=images/blank.png width =""500"" height = ""500"" style=""border:5px solid black"">","","",""
"","376.47000001743436","stimulus-presentation","124","403008","0.0-17.0-1.4","SS1603399437186","<img src='images/simple/12.png' width ='500' height = '500' style='border:5px solid black'>","40","all_simple","images/simple/4.png","images/simple/12.png","images/simple/11.png,images/simple/13.png,images/simple/7.png,images/simple/16.png,images/simple/8.png,images/simple/10.png,images/simple/2.png","1","null","","200","576.4700000174344","","","","background","",""
"","null","html-keyboard-response","125","404248","0.0-17.0-0.5","SS1603399437186","","null","","","","","","","","","","","","<img src=images/blank.png width =""500"" height = ""500"" style=""border:5px solid black"">","","",""
"","367.8199999849312","stimulus-presentation","126","404836","0.0-17.0-1.5","SS1603399437186","<img src='images/simple/12.png' width ='500' height = '500' style='border:5px solid black'>","40","all_simple","images/simple/4.png","images/simple/12.png","images/simple/11.png,images/simple/13.png,images/simple/7.png,images/simple/16.png,images/simple/8.png,images/simple/10.png,images/simple/2.png","1","null","","200","567.8199999849312","","","","background","",""
"","null","html-keyboard-response","127","405666","0.0-17.0-0.6","SS1603399437186","","null","","","","","","","","","","","","<img src=images/blank.png width =""500"" height = ""500"" style=""border:5px solid black"">","","",""
"","1099.7050000005402","stimulus-presentation","128","406982","0.0-17.0-1.6","SS1603399437186","<img src='images/simple/10.png' width ='500' height = '500' style='border:5px solid black'>","40","all_simple","images/simple/4.png","images/simple/12.png","images/simple/11.png,images/simple/13.png,images/simple/7.png,images/simple/16.png,images/simple/8.png,images/simple/10.png,images/simple/2.png","1","null","","200","1299.7050000005402","","","","deviant","",""
"","null","html-keyboard-response","129","408037","0.0-17.0-0.7","SS1603399437186","","null","","","","","","","","","","","","<img src=images/blank.png width =""500"" height = ""500"" style=""border:5px solid black"">","","",""
"","699.8749999911524","stimulus-presentation","130","408957","0.0-17.0-1.7","SS1603399437186","<img src='images/simple/12.png' width ='500' height = '500' style='border:5px solid black'>","40","all_simple","images/simple/4.png","images/simple/12.png","images/simple/11.png,images/simple/13.png,images/simple/7.png,images/simple/16.png,images/simple/8.png,images/simple/10.png,images/simple/2.png","1","null","","200","899.8749999911524","","","","background","",""
"","null","html-keyboard-response","131","410187","0.0-17.0-0.8","SS1603399437186","","null","","","","","","","","","","","","<img src=images/blank.png width =""500"" height = ""500"" style=""border:5px solid black"">","","",""
"","377.28499999502674","stimulus-presentation","132","410785","0.0-17.0-1.8","SS1603399437186","<img src='images/simple/12.png' width ='500' height = '500' style='border:5px solid black'>","40","all_simple","images/simple/4.png","images/simple/12.png","images/simple/11.png,images/simple/13.png,images/simple/7.png,images/simple/16.png,images/simple/8.png,images/simple/10.png,images/simple/2.png","1","null","","200","577.2849999950267","","","","background","",""
"","null","html-keyboard-response","133","411840","0.0-17.0-0.9","SS1603399437186","","null","","","","","","","","","","","","<img src=images/blank.png width =""500"" height = ""500"" style=""border:5px solid black"">","","",""
"","367.8550000186078","stimulus-presentation","134","412441","0.0-17.0-1.9","SS1603399437186","<img src='images/simple/12.png' width ='500' height = '500' style='border:5px solid black'>","40","all_simple","images/simple/4.png","images/simple/12.png","images/simple/11.png,images/simple/13.png,images/simple/7.png,images/simple/16.png,images/simple/8.png,images/simple/10.png,images/simple/2.png","1","null","","200","567.8550000186078","","","","background","",""
"","null","html-keyboard-response","135","413513","0.0-17.0-0.10","SS1603399437186","","null","","","","","","","","","","","","<img src=images/blank.png width =""500"" height = ""500"" style=""border:5px solid black"">","","",""
"","1073.4400000073947","stimulus-presentation","136","414804","0.0-17.0-1.10","SS1603399437186","<img src='images/simple/2.png' width ='500' height = '500' style='border:5px solid black'>","40","all_simple","images/simple/4.png","images/simple/12.png","images/simple/11.png,images/simple/13.png,images/simple/7.png,images/simple/16.png,images/simple/8.png,images/simple/10.png,images/simple/2.png","1","null","","200","1273.4400000073947","","","","deviant","",""
"","null","html-keyboard-response","137","415732","0.0-17.0-0.11","SS1603399437186","","null","","","","","","","","","","","","<img src=images/blank.png width =""500"" height = ""500"" style=""border:5px solid black"">","","",""
"","626.6649999888614","stimulus-presentation","138","416580","0.0-17.0-1.11","SS1603399437186","<img src='images/simple/12.png' width ='500' height = '500' style='border:5px solid black'>","40","all_simple","images/simple/4.png","images/simple/12.png","images/simple/11.png,images/simple/13.png,images/simple/7.png,images/simple/16.png,images/simple/8.png,images/simple/10.png,images/simple/2.png","1","null","","200","826.6649999888614","","","","background","",""
"","null","html-keyboard-response","139","417419","0.0-17.0-0.12","SS1603399437186","","null","","","","","","","","","","","","<img src=images/blank.png width =""500"" height = ""500"" style=""border:5px solid black"">","","",""
"","782.839999999851","stimulus-presentation","140","418418","0.0-17.0-1.12","SS1603399437186","<img src='images/simple/7.png' width ='500' height = '500' style='border:5px solid black'>","40","all_simple","images/simple/4.png","images/simple/12.png","images/simple/11.png,images/simple/13.png,images/simple/7.png,images/simple/16.png,images/simple/8.png,images/simple/10.png,images/simple/2.png","1","null","","200","982.839999999851","","","","deviant","",""
"","null","html-keyboard-response","141","419529","0.0-17.0-0.13","SS1603399437186","","null","","","","","","","","","","","","<img src=images/blank.png width =""500"" height = ""500"" style=""border:5px solid black"">","","",""
"","529.4200000353158","stimulus-presentation","142","420277","0.0-17.0-1.13","SS1603399437186","<img src='images/simple/12.png' width ='500' height = '500' style='border:5px solid black'>","40","all_simple","images/simple/4.png","images/simple/12.png","images/simple/11.png,images/simple/13.png,images/simple/7.png,images/simple/16.png,images/simple/8.png,images/simple/10.png,images/simple/2.png","1","null","","200","729.4200000353158","","","","background","",""
"","null","html-keyboard-response","143","421528","0.0-17.0-0.14","SS1603399437186","","null","","","","","","","","","","","","<img src=images/blank.png width =""500"" height = ""500"" style=""border:5px solid black"">","","",""
"","471.9749999931082","stimulus-presentation","144","422218","0.0-17.0-1.14","SS1603399437186","<img src='images/simple/12.png' width ='500' height = '500' style='border:5px solid black'>","40","all_simple","images/simple/4.png","images/simple/12.png","images/simple/11.png,images/simple/13.png,images/simple/7.png,images/simple/16.png,images/simple/8.png,images/simple/10.png,images/simple/2.png","1","null","","200","671.9749999931082","","","","background","",""
"","null","html-keyboard-response","145","423192","0.0-17.0-0.15","SS1603399437186","","null","","","","","","","","","","","","<img src=images/blank.png width =""500"" height = ""500"" style=""border:5px solid black"">","","",""
"","442.46500002918765","stimulus-presentation","146","423852","0.0-17.0-1.15","SS1603399437186","<img src='images/simple/12.png' width ='500' height = '500' style='border:5px solid black'>","40","all_simple","images/simple/4.png","images/simple/12.png","images/simple/11.png,images/simple/13.png,images/simple/7.png,images/simple/16.png,images/simple/8.png,images/simple/10.png,images/simple/2.png","1","null","","200","642.4650000291876","","","","background","",""
"","null","html-keyboard-response","147","425012","0.0-17.0-0.16","SS1603399437186","","null","","","","","","","","","","","","<img src=images/blank.png width =""500"" height = ""500"" style=""border:5px solid black"">","","",""
"","310.87500002468005","stimulus-presentation","148","425542","0.0-17.0-1.16","SS1603399437186","<img src='images/simple/12.png' width ='500' height = '500' style='border:5px solid black'>","40","all_simple","images/simple/4.png","images/simple/12.png","images/simple/11.png,images/simple/13.png,images/simple/7.png,images/simple/16.png,images/simple/8.png,images/simple/10.png,images/simple/2.png","1","null","","200","510.87500002468005","","","","background","",""
"","null","html-keyboard-response","149","426474","0.0-17.0-0.17","SS1603399437186","","null","","","","","","","","","","","","<img src=images/blank.png width =""500"" height = ""500"" style=""border:5px solid black"">","","",""
"","720.2099999994971","stimulus-presentation","150","427416","0.0-17.0-1.17","SS1603399437186","<img src='images/simple/11.png' width ='500' height = '500' style='border:5px solid black'>","40","all_simple","images/simple/4.png","images/simple/12.png","images/simple/11.png,images/simple/13.png,images/simple/7.png,images/simple/16.png,images/simple/8.png,images/simple/10.png,images/simple/2.png","1","null","","200","920.2099999994971","","","","deviant","",""
"","null","html-keyboard-response","151","428339","0.0-17.0-0.18","SS1603399437186","","null","","","","","","","","","","","","<img src=images/blank.png width =""500"" height = ""500"" style=""border:5px solid black"">","","",""
"","497.0900000189431","stimulus-presentation","152","429055","0.0-17.0-1.18","SS1603399437186","<img src='images/simple/12.png' width ='500' height = '500' style='border:5px solid black'>","40","all_simple","images/simple/4.png","images/simple/12.png","images/simple/11.png,images/simple/13.png,images/simple/7.png,images/simple/16.png,images/simple/8.png,images/simple/10.png,images/simple/2.png","1","null","","200","697.0900000189431","","","","background","",""
"","null","html-keyboard-response","153","429981","0.0-17.0-0.19","SS1603399437186","","null","","","","","","","","","","","","<img src=images/blank.png width =""500"" height = ""500"" style=""border:5px solid black"">","","",""
"","403.6600000108592","stimulus-presentation","154","430617","0.0-17.0-1.19","SS1603399437186","<img src='images/simple/12.png' width ='500' height = '500' style='border:5px solid black'>","40","all_simple","images/simple/4.png","images/simple/12.png","images/simple/11.png,images/simple/13.png,images/simple/7.png,images/simple/16.png,images/simple/8.png,images/simple/10.png,images/simple/2.png","1","null","","200","603.6600000108592","","","","background","",""
"","null","html-keyboard-response","155","431549","0.0-17.0-0.20","SS1603399437186","","null","","","","","","","","","","","","<img src=images/blank.png width =""500"" height = ""500"" style=""border:5px solid black"">","","",""
"","364.7900000214577","stimulus-presentation","156","432131","0.0-17.0-1.20","SS1603399437186","<img src='images/simple/12.png' width ='500' height = '500' style='border:5px solid black'>","40","all_simple","images/simple/4.png","images/simple/12.png","images/simple/11.png,images/simple/13.png,images/simple/7.png,images/simple/16.png,images/simple/8.png,images/simple/10.png,images/simple/2.png","1","null","","200","564.7900000214577","","","","background","",""
"","null","html-keyboard-response","157","433244","0.0-17.0-0.21","SS1603399437186","","null","","","","","","","","","","","","<img src=images/blank.png width =""500"" height = ""500"" style=""border:5px solid black"">","","",""
"","321.7750000185333","stimulus-presentation","158","433801","0.0-17.0-1.21","SS1603399437186","<img src='images/simple/12.png' width ='500' height = '500' style='border:5px solid black'>","40","all_simple","images/simple/4.png","images/simple/12.png","images/simple/11.png,images/simple/13.png,images/simple/7.png,images/simple/16.png,images/simple/8.png,images/simple/10.png,images/simple/2.png","1","null","","200","521.7750000185333","","","","background","",""
"","null","html-keyboard-response","159","435058","0.0-17.0-0.22","SS1603399437186","","null","","","","","","","","","","","","<img src=images/blank.png width =""500"" height = ""500"" style=""border:5px solid black"">","","",""
"","2423.190000001341","stimulus-presentation","160","437714","0.0-17.0-1.22","SS1603399437186","<img src='images/simple/4.png' width ='500' height = '500' style='border:5px solid black'>","40","all_simple","images/simple/4.png","images/simple/12.png","images/simple/11.png,images/simple/13.png,images/simple/7.png,images/simple/16.png,images/simple/8.png,images/simple/10.png,images/simple/2.png","1","null","","200","2623.190000001341","yes","1292.749999964144","","target","",""
"","null","html-keyboard-response","161","438946","0.0-17.0-0.23","SS1603399437186","","null","","","","","","","","","","","","<img src=images/blank.png width =""500"" height = ""500"" style=""border:5px solid black"">","","",""
"","946.1050000390969","stimulus-presentation","162","440126","0.0-17.0-1.23","SS1603399437186","<img src='images/simple/12.png' width ='500' height = '500' style='border:5px solid black'>","40","all_simple","images/simple/4.png","images/simple/12.png","images/simple/11.png,images/simple/13.png,images/simple/7.png,images/simple/16.png,images/simple/8.png,images/simple/10.png,images/simple/2.png","1","null","","200","1146.105000039097","","","","background","",""
"","null","html-keyboard-response","163","441240","0.0-17.0-0.24","SS1603399437186","","null","","","","","","","","","","","","<img src=images/blank.png width =""500"" height = ""500"" style=""border:5px solid black"">","","",""
"","1517.7849999745376","stimulus-presentation","164","442992","0.0-17.0-1.24","SS1603399437186","<img src='images/simple/4.png' width ='500' height = '500' style='border:5px solid black'>","40","all_simple","images/simple/4.png","images/simple/12.png","images/simple/11.png,images/simple/13.png,images/simple/7.png,images/simple/16.png,images/simple/8.png,images/simple/10.png,images/simple/2.png","1","null","","200","1717.7849999745376","yes","801.6299999435432","","target","",""
"","null","html-keyboard-response","165","444191","0.0-17.0-0.25","SS1603399437186","","null","","","","","","","","","","","","<img src=images/blank.png width =""500"" height = ""500"" style=""border:5px solid black"">","","",""
"","802.384999988135","stimulus-presentation","166","445227","0.0-17.0-1.25","SS1603399437186","<img src='images/simple/8.png' width ='500' height = '500' style='border:5px solid black'>","40","all_simple","images/simple/4.png","images/simple/12.png","images/simple/11.png,images/simple/13.png,images/simple/7.png,images/simple/16.png,images/simple/8.png,images/simple/10.png,images/simple/2.png","1","null","","200","1002.384999988135","","","","deviant","",""
"","null","html-keyboard-response","167","446228","0.0-17.0-0.26","SS1603399437186","","null","","","","","","","","","","","","<img src=images/blank.png width =""500"" height = ""500"" style=""border:5px solid black"">","","",""
"","1138.730000006035","stimulus-presentation","168","447599","0.0-17.0-1.26","SS1603399437186","<img src='images/simple/4.png' width ='500' height = '500' style='border:5px solid black'>","40","all_simple","images/simple/4.png","images/simple/12.png","images/simple/11.png,images/simple/13.png,images/simple/7.png,images/simple/16.png,images/simple/8.png,images/simple/10.png,images/simple/2.png","1","null","","200","1338.730000006035","yes","417.3050000099465","","target","",""
"","null","html-keyboard-response","169","448467","0.0-17.0-0.27","SS1603399437186","","null","","","","","","","","","","","","<img src=images/blank.png width =""500"" height = ""500"" style=""border:5px solid black"">","","",""
"","655.0150000257418","stimulus-presentation","170","449341","0.0-17.0-1.27","SS1603399437186","<img src='images/simple/12.png' width ='500' height = '500' style='border:5px solid black'>","40","all_simple","images/simple/4.png","images/simple/12.png","images/simple/11.png,images/simple/13.png,images/simple/7.png,images/simple/16.png,images/simple/8.png,images/simple/10.png,images/simple/2.png","1","null","","200","855.0150000257418","","","","background","",""
"","null","html-keyboard-response","171","450275","0.0-17.0-0.28","SS1603399437186","","null","","","","","","","","","","","","<img src=images/blank.png width =""500"" height = ""500"" style=""border:5px solid black"">","","",""
"","393.7349999905564","stimulus-presentation","172","450887","0.0-17.0-1.28","SS1603399437186","<img src='images/simple/12.png' width ='500' height = '500' style='border:5px solid black'>","40","all_simple","images/simple/4.png","images/simple/12.png","images/simple/11.png,images/simple/13.png,images/simple/7.png,images/simple/16.png,images/simple/8.png,images/simple/10.png,images/simple/2.png","1","null","","200","593.7349999905564","","","","background","",""
"","null","html-keyboard-response","173","452115","0.0-17.0-0.29","SS1603399437186","","null","","","","","","","","","","","","<img src=images/blank.png width =""500"" height = ""500"" style=""border:5px solid black"">","","",""
"","421.45500000333413","stimulus-presentation","174","452759","0.0-17.0-1.29","SS1603399437186","<img src='images/simple/12.png' width ='500' height = '500' style='border:5px solid black'>","40","all_simple","images/simple/4.png","images/simple/12.png","images/simple/11.png,images/simple/13.png,images/simple/7.png,images/simple/16.png,images/simple/8.png,images/simple/10.png,images/simple/2.png","1","null","","200","621.4550000033341","","","","background","",""
"","null","html-keyboard-response","175","453701","0.0-17.0-0.30","SS1603399437186","","null","","","","","","","","","","","","<img src=images/blank.png width =""500"" height = ""500"" style=""border:5px solid black"">","","",""
"","954.8500000382774","stimulus-presentation","176","454877","0.0-17.0-1.30","SS1603399437186","<img src='images/simple/16.png' width ='500' height = '500' style='border:5px solid black'>","40","all_simple","images/simple/4.png","images/simple/12.png","images/simple/11.png,images/simple/13.png,images/simple/7.png,images/simple/16.png,images/simple/8.png,images/simple/10.png,images/simple/2.png","1","null","","200","1154.8500000382774","","","","deviant","",""
"","null","html-keyboard-response","177","455979","0.0-17.0-0.31","SS1603399437186","","null","","","","","","","","","","","","<img src=images/blank.png width =""500"" height = ""500"" style=""border:5px solid black"">","","",""
"","552.434999961406","stimulus-presentation","178","456767","0.0-17.0-1.31","SS1603399437186","<img src='images/simple/12.png' width ='500' height = '500' style='border:5px solid black'>","40","all_simple","images/simple/4.png","images/simple/12.png","images/simple/11.png,images/simple/13.png,images/simple/7.png,images/simple/16.png,images/simple/8.png,images/simple/10.png,images/simple/2.png","1","null","","200","752.434999961406","","","","background","",""
"","null","html-keyboard-response","179","458023","0.0-17.0-0.32","SS1603399437186","","null","","","","","","","","","","","","<img src=images/blank.png width =""500"" height = ""500"" style=""border:5px solid black"">","","",""
"","394.8600000003353","stimulus-presentation","180","458638","0.0-17.0-1.32","SS1603399437186","<img src='images/simple/12.png' width ='500' height = '500' style='border:5px solid black'>","40","all_simple","images/simple/4.png","images/simple/12.png","images/simple/11.png,images/simple/13.png,images/simple/7.png,images/simple/16.png,images/simple/8.png,images/simple/10.png,images/simple/2.png","1","null","","200","594.8600000003353","","","","background","",""
"","null","html-keyboard-response","181","459705","0.0-17.0-0.33","SS1603399437186","","null","","","","","","","","","","","","<img src=images/blank.png width =""500"" height = ""500"" style=""border:5px solid black"">","","",""
"","1229.3100000242703","stimulus-presentation","182","461169","0.0-17.0-1.33","SS1603399437186","<img src='images/simple/4.png' width ='500' height = '500' style='border:5px solid black'>","40","all_simple","images/simple/4.png","images/simple/12.png","images/simple/11.png,images/simple/13.png,images/simple/7.png,images/simple/16.png,images/simple/8.png,images/simple/10.png,images/simple/2.png","1","null","","200","1429.3100000242703","yes","462.6900000148453","","target","",""
"","null","html-keyboard-response","183","462227","0.0-17.0-0.34","SS1603399437186","","null","","","","","","","","","","","","<img src=images/blank.png width =""500"" height = ""500"" style=""border:5px solid black"">","","",""
"","1694.9599999934435","stimulus-presentation","184","464156","0.0-17.0-1.34","SS1603399437186","<img src='images/simple/12.png' width ='500' height = '500' style='border:5px solid black'>","40","all_simple","images/simple/4.png","images/simple/12.png","images/simple/11.png,images/simple/13.png,images/simple/7.png,images/simple/16.png,images/simple/8.png,images/simple/10.png,images/simple/2.png","1","null","","200","1894.9599999934435","","","","background","",""
"","null","html-keyboard-response","185","465315","0.0-17.0-0.35","SS1603399437186","","null","","","","","","","","","","","","<img src=images/blank.png width =""500"" height = ""500"" style=""border:5px solid black"">","","",""
"","270.7700000028126","stimulus-presentation","186","465819","0.0-17.0-1.35","SS1603399437186","<img src='images/simple/12.png' width ='500' height = '500' style='border:5px solid black'>","40","all_simple","images/simple/4.png","images/simple/12.png","images/simple/11.png,images/simple/13.png,images/simple/7.png,images/simple/16.png,images/simple/8.png,images/simple/10.png,images/simple/2.png","1","null","","200","470.7700000028126","","","","background","",""
"","null","html-keyboard-response","187","466792","0.0-17.0-0.36","SS1603399437186","","null","","","","","","","","","","","","<img src=images/blank.png width =""500"" height = ""500"" style=""border:5px solid black"">","","",""
"","1202.2449999931268","stimulus-presentation","188","468228","0.0-17.0-1.36","SS1603399437186","<img src='images/simple/4.png' width ='500' height = '500' style='border:5px solid black'>","40","all_simple","images/simple/4.png","images/simple/12.png","images/simple/11.png,images/simple/13.png,images/simple/7.png,images/simple/16.png,images/simple/8.png,images/simple/10.png,images/simple/2.png","1","null","","200","1402.2449999931268","yes","515.8149999915622","","target","",""
"","null","html-keyboard-response","189","469486","0.0-17.0-0.37","SS1603399437186","","null","","","","","","","","","","","","<img src=images/blank.png width =""500"" height = ""500"" style=""border:5px solid black"">","","",""
"","1951.554999977816","stimulus-presentation","190","471654","0.0-17.0-1.37","SS1603399437186","<img src='images/simple/12.png' width ='500' height = '500' style='border:5px solid black'>","40","all_simple","images/simple/4.png","images/simple/12.png","images/simple/11.png,images/simple/13.png,images/simple/7.png,images/simple/16.png,images/simple/8.png,images/simple/10.png,images/simple/2.png","1","null","","200","2151.554999977816","","","","background","",""
"","null","html-keyboard-response","191","472789","0.0-17.0-0.38","SS1603399437186","","null","","","","","","","","","","","","<img src=images/blank.png width =""500"" height = ""500"" style=""border:5px solid black"">","","",""
"","288.6599999619648","stimulus-presentation","192","473295","0.0-17.0-1.38","SS1603399437186","<img src='images/simple/12.png' width ='500' height = '500' style='border:5px solid black'>","40","all_simple","images/simple/4.png","images/simple/12.png","images/simple/11.png,images/simple/13.png,images/simple/7.png,images/simple/16.png,images/simple/8.png,images/simple/10.png,images/simple/2.png","1","null","","200","488.6599999619648","","","","background","",""
"","null","html-keyboard-response","193","474160","0.0-17.0-0.39","SS1603399437186","","null","","","","","","","","","","","","<img src=images/blank.png width =""500"" height = ""500"" style=""border:5px solid black"">","","",""
"","1882.3999999440275","stimulus-presentation","194","476276","0.0-17.0-1.39","SS1603399437186","<img src='images/simple/4.png' width ='500' height = '500' style='border:5px solid black'>","40","all_simple","images/simple/4.png","images/simple/12.png","images/simple/11.png,images/simple/13.png,images/simple/7.png,images/simple/16.png,images/simple/8.png,images/simple/10.png,images/simple/2.png","1","null","","200","2082.3999999440275","yes","423.7499999580905","","target","",""
"","null","html-keyboard-response","195","477554","0.0-17.0-0.40","SS1603399437186","","null","","","","","","","","","","","","<img src=images/blank.png width =""500"" height = ""500"" style=""border:5px solid black"">","","",""
"","914.3500000354834","stimulus-presentation","196","478685","0.0-17.0-1.40","SS1603399437186","<img src='images/simple/12.png' width ='500' height = '500' style='border:5px solid black'>","40","all_simple","images/simple/4.png","images/simple/12.png","images/simple/11.png,images/simple/13.png,images/simple/7.png,images/simple/16.png,images/simple/8.png,images/simple/10.png,images/simple/2.png","1","null","","200","1114.3500000354834","","","","background","",""
"","null","html-keyboard-response","197","480000","0.0-17.0-0.41","SS1603399437186","","null","","","","","","","","","","","","<img src=images/blank.png width =""500"" height = ""500"" style=""border:5px solid black"">","","",""
"","1794.7849999764003","stimulus-presentation","198","482027","0.0-17.0-1.41","SS1603399437186","<img src='images/simple/4.png' width ='500' height = '500' style='border:5px solid black'>","40","all_simple","images/simple/4.png","images/simple/12.png","images/simple/11.png,images/simple/13.png,images/simple/7.png,images/simple/16.png,images/simple/8.png,images/simple/10.png,images/simple/2.png","1","null","","200","1994.7849999764003","yes","796.3400000007823","","target","",""
"","null","html-keyboard-response","199","483317","0.0-17.0-0.42","SS1603399437186","","null","","","","","","","","","","","","<img src=images/blank.png width =""500"" height = ""500"" style=""border:5px solid black"">","","",""
"","1137.064999958966","stimulus-presentation","200","484690","0.0-17.0-1.42","SS1603399437186","<img src='images/simple/13.png' width ='500' height = '500' style='border:5px solid black'>","40","all_simple","images/simple/4.png","images/simple/12.png","images/simple/11.png,images/simple/13.png,images/simple/7.png,images/simple/16.png,images/simple/8.png,images/simple/10.png,images/simple/2.png","1","null","","200","1337.064999958966","","","","deviant","",""
"","null","html-keyboard-response","201","485854","0.0-17.0-0.43","SS1603399437186","","null","","","","","","","","","","","","<img src=images/blank.png width =""500"" height = ""500"" style=""border:5px solid black"">","","",""
"","757.0600000326522","stimulus-presentation","202","486845","0.0-17.0-1.43","SS1603399437186","<img src='images/simple/12.png' width ='500' height = '500' style='border:5px solid black'>","40","all_simple","images/simple/4.png","images/simple/12.png","images/simple/11.png,images/simple/13.png,images/simple/7.png,images/simple/16.png,images/simple/8.png,images/simple/10.png,images/simple/2.png","1","null","","200","957.0600000326522","","","","background","",""
"","null","html-keyboard-response","203","488030","0.0-17.0-0.44","SS1603399437186","","null","","","","","","","","","","","","<img src=images/blank.png width =""500"" height = ""500"" style=""border:5px solid black"">","","",""
"","429.3150000157766","stimulus-presentation","204","488680","0.0-17.0-1.44","SS1603399437186","<img src='images/simple/12.png' width ='500' height = '500' style='border:5px solid black'>","40","all_simple","images/simple/4.png","images/simple/12.png","images/simple/11.png,images/simple/13.png,images/simple/7.png,images/simple/16.png,images/simple/8.png,images/simple/10.png,images/simple/2.png","1","null","","200","629.3150000157766","","","","background","",""
"","null","html-keyboard-response","205","489842","0.0-17.0-0.45","SS1603399437186","","null","","","","","","","","","","","","<img src=images/blank.png width =""500"" height = ""500"" style=""border:5px solid black"">","","",""
"","284.3849999480881","stimulus-presentation","206","490360","0.0-17.0-1.45","SS1603399437186","<img src='images/simple/12.png' width ='500' height = '500' style='border:5px solid black'>","40","all_simple","images/simple/4.png","images/simple/12.png","images/simple/11.png,images/simple/13.png,images/simple/7.png,images/simple/16.png,images/simple/8.png,images/simple/10.png,images/simple/2.png","1","null","","200","484.3849999480881","","","","background","",""
"","null","html-keyboard-response","207","491554","0.0-17.0-0.46","SS1603399437186","","null","","","","","","","","","","","","<img src=images/blank.png width =""500"" height = ""500"" style=""border:5px solid black"">","","",""
"","394.93499998934567","stimulus-presentation","208","492167","0.0-17.0-1.46","SS1603399437186","<img src='images/simple/12.png' width ='500' height = '500' style='border:5px solid black'>","40","all_simple","images/simple/4.png","images/simple/12.png","images/simple/11.png,images/simple/13.png,images/simple/7.png,images/simple/16.png,images/simple/8.png,images/simple/10.png,images/simple/2.png","1","null","","200","594.9349999893457","","","","background","",""
"","null","html-keyboard-response","209","493078","0.0-17.0-0.47","SS1603399437186","","null","","","","","","","","","","","","<img src=images/blank.png width =""500"" height = ""500"" style=""border:5px solid black"">","","",""
"","520.2350000035949","stimulus-presentation","210","493835","0.0-17.0-1.47","SS1603399437186","<img src='images/simple/12.png' width ='500' height = '500' style='border:5px solid black'>","40","all_simple","images/simple/4.png","images/simple/12.png","images/simple/11.png,images/simple/13.png,images/simple/7.png,images/simple/16.png,images/simple/8.png,images/simple/10.png,images/simple/2.png","1","null","","200","720.2350000035949","","","","background","",""
"","null","html-keyboard-response","211","494777","0.0-17.0-0.48","SS1603399437186","","null","","","","","","","","","","","","<img src=images/blank.png width =""500"" height = ""500"" style=""border:5px solid black"">","","",""
"","453.3900000387803","stimulus-presentation","212","495467","0.0-17.0-1.48","SS1603399437186","<img src='images/simple/12.png' width ='500' height = '500' style='border:5px solid black'>","40","all_simple","images/simple/4.png","images/simple/12.png","images/simple/11.png,images/simple/13.png,images/simple/7.png,images/simple/16.png,images/simple/8.png,images/simple/10.png,images/simple/2.png","1","null","","200","653.3900000387803","","","","background","",""
"[{""page_index"":0,""viewing_time"":5388}]","5388","task-instructions","213","500877","0.0-18.0","SS1603399437186","","","","","","","","","","","","","","","","",""
"[{""page_index"":0,""viewing_time"":3643.225000007078},{""page_index"":1,""viewing_time"":13489.40500000026},{""page_index"":2,""viewing_time"":3324.839999957476}]","20458.08999997098","instructions","214","521345","0.0-19.0","SS1603399437186","","","","","","","","","","","","","","","","",""
"","null","html-keyboard-response","215","522455","0.0-20.0-0.0","SS1603399437186","","null","","","","","","","","","","","","<img src=images/blank.png width =""500"" height = ""500"" style=""border:5px solid black"">","","",""
"","979.7899999539368","stimulus-presentation","216","523655","0.0-20.0-1.0","SS1603399437186","<img src='images/complex/16.png' width ='500' height = '500' style='border:5px solid black'>","40","all_complex","images/complex/2.png","images/complex/16.png","images/complex/10.png,images/complex/1.png,images/complex/3.png,images/complex/18.png,images/complex/15.png,images/complex/5.png,images/complex/14.png","2","null","","200","1179.7899999539368","","","","background","",""
"","null","html-keyboard-response","217","524586","0.0-20.0-0.1","SS1603399437186","","null","","","","","","","","","","","","<img src=images/blank.png width =""500"" height = ""500"" style=""border:5px solid black"">","","",""
"","761.9100000010803","stimulus-presentation","218","525582","0.0-20.0-1.1","SS1603399437186","<img src='images/complex/16.png' width ='500' height = '500' style='border:5px solid black'>","40","all_complex","images/complex/2.png","images/complex/16.png","images/complex/10.png,images/complex/1.png,images/complex/3.png,images/complex/18.png,images/complex/15.png,images/complex/5.png,images/complex/14.png","2","null","","200","961.9100000010803","","","","background","",""
"","null","html-keyboard-response","219","526803","0.0-20.0-0.2","SS1603399437186","","null","","","","","","","","","","","","<img src=images/blank.png width =""500"" height = ""500"" style=""border:5px solid black"">","","",""
"","336.13499999046326","stimulus-presentation","220","527376","0.0-20.0-1.2","SS1603399437186","<img src='images/complex/16.png' width ='500' height = '500' style='border:5px solid black'>","40","all_complex","images/complex/2.png","images/complex/16.png","images/complex/10.png,images/complex/1.png,images/complex/3.png,images/complex/18.png,images/complex/15.png,images/complex/5.png,images/complex/14.png","2","null","","200","536.1349999904633","","","","background","",""
"","null","html-keyboard-response","221","528670","0.0-20.0-0.3","SS1603399437186","","null","","","","","","","","","","","","<img src=images/blank.png width =""500"" height = ""500"" style=""border:5px solid black"">","","",""
"","634.6250000060536","stimulus-presentation","222","529538","0.0-20.0-1.3","SS1603399437186","<img src='images/complex/1.png' width ='500' height = '500' style='border:5px solid black'>","40","all_complex","images/complex/2.png","images/complex/16.png","images/complex/10.png,images/complex/1.png,images/complex/3.png,images/complex/18.png,images/complex/15.png,images/complex/5.png,images/complex/14.png","2","null","","200","834.6250000060536","","","","deviant","",""
"","null","html-keyboard-response","223","530580","0.0-20.0-0.4","SS1603399437186","","null","","","","","","","","","","","","<img src=images/blank.png width =""500"" height = ""500"" style=""border:5px solid black"">","","",""
"","649.3699999991804","stimulus-presentation","224","531462","0.0-20.0-1.4","SS1603399437186","<img src='images/complex/16.png' width ='500' height = '500' style='border:5px solid black'>","40","all_complex","images/complex/2.png","images/complex/16.png","images/complex/10.png,images/complex/1.png,images/complex/3.png,images/complex/18.png,images/complex/15.png,images/complex/5.png,images/complex/14.png","2","null","","200","849.3699999991804","","","","background","",""
"","null","html-keyboard-response","225","532366","0.0-20.0-0.5","SS1603399437186","","null","","","","","","","","","","","","<img src=images/blank.png width =""500"" height = ""500"" style=""border:5px solid black"">","","",""
"","436.13000004552305","stimulus-presentation","226","533034","0.0-20.0-1.5","SS1603399437186","<img src='images/complex/16.png' width ='500' height = '500' style='border:5px solid black'>","40","all_complex","images/complex/2.png","images/complex/16.png","images/complex/10.png,images/complex/1.png,images/complex/3.png,images/complex/18.png,images/complex/15.png,images/complex/5.png,images/complex/14.png","2","null","","200","636.130000045523","","","","background","",""
"","null","html-keyboard-response","227","534242","0.0-20.0-0.6","SS1603399437186","","null","","","","","","","","","","","","<img src=images/blank.png width =""500"" height = ""500"" style=""border:5px solid black"">","","",""
"","1533.2049999851733","stimulus-presentation","228","535994","0.0-20.0-1.6","SS1603399437186","<img src='images/complex/2.png' width ='500' height = '500' style='border:5px solid black'>","40","all_complex","images/complex/2.png","images/complex/16.png","images/complex/10.png,images/complex/1.png,images/complex/3.png,images/complex/18.png,images/complex/15.png,images/complex/5.png,images/complex/14.png","2","null","","200","1733.2049999851733","yes","818.6650000279769","","target","",""
"","null","html-keyboard-response","229","537144","0.0-20.0-0.7","SS1603399437186","","null","","","","","","","","","","","","<img src=images/blank.png width =""500"" height = ""500"" style=""border:5px solid black"">","","",""
"","1160.4499999666587","stimulus-presentation","230","538537","0.0-20.0-1.7","SS1603399437186","<img src='images/complex/2.png' width ='500' height = '500' style='border:5px solid black'>","40","all_complex","images/complex/2.png","images/complex/16.png","images/complex/10.png,images/complex/1.png,images/complex/3.png,images/complex/18.png,images/complex/15.png,images/complex/5.png,images/complex/14.png","2","null","","200","1360.4499999666587","yes","486.8199999909848","","target","",""
"","null","html-keyboard-response","231","539860","0.0-20.0-0.8","SS1603399437186","","null","","","","","","","","","","","","<img src=images/blank.png width =""500"" height = ""500"" style=""border:5px solid black"">","","",""
"","801.4949999633245","stimulus-presentation","232","540895","0.0-20.0-1.8","SS1603399437186","<img src='images/complex/16.png' width ='500' height = '500' style='border:5px solid black'>","40","all_complex","images/complex/2.png","images/complex/16.png","images/complex/10.png,images/complex/1.png,images/complex/3.png,images/complex/18.png,images/complex/15.png,images/complex/5.png,images/complex/14.png","2","null","","200","1001.4949999633245","","","","background","",""
"","null","html-keyboard-response","233","541943","0.0-20.0-0.9","SS1603399437186","","null","","","","","","","","","","","","<img src=images/blank.png width =""500"" height = ""500"" style=""border:5px solid black"">","","",""
"","601.4500000164844","stimulus-presentation","234","542760","0.0-20.0-1.9","SS1603399437186","<img src='images/complex/16.png' width ='500' height = '500' style='border:5px solid black'>","40","all_complex","images/complex/2.png","images/complex/16.png","images/complex/10.png,images/complex/1.png,images/complex/3.png,images/complex/18.png,images/complex/15.png,images/complex/5.png,images/complex/14.png","2","null","","200","801.4500000164844","","","","background","",""
"","null","html-keyboard-response","235","543751","0.0-20.0-0.10","SS1603399437186","","null","","","","","","","","","","","","<img src=images/blank.png width =""500"" height = ""500"" style=""border:5px solid black"">","","",""
"","352.3399999830872","stimulus-presentation","236","544321","0.0-20.0-1.10","SS1603399437186","<img src='images/complex/16.png' width ='500' height = '500' style='border:5px solid black'>","40","all_complex","images/complex/2.png","images/complex/16.png","images/complex/10.png,images/complex/1.png,images/complex/3.png,images/complex/18.png,images/complex/15.png,images/complex/5.png,images/complex/14.png","2","null","","200","552.3399999830872","","","","background","",""
"","null","html-keyboard-response","237","545423","0.0-20.0-0.11","SS1603399437186","","null","","","","","","","","","","","","<img src=images/blank.png width =""500"" height = ""500"" style=""border:5px solid black"">","","",""
"","428.37500001769513","stimulus-presentation","238","546071","0.0-20.0-1.11","SS1603399437186","<img src='images/complex/16.png' width ='500' height = '500' style='border:5px solid black'>","40","all_complex","images/complex/2.png","images/complex/16.png","images/complex/10.png,images/complex/1.png,images/complex/3.png,images/complex/18.png,images/complex/15.png,images/complex/5.png,images/complex/14.png","2","null","","200","628.3750000176951","","","","background","",""
"","null","html-keyboard-response","239","547177","0.0-20.0-0.12","SS1603399437186","","null","","","","","","","","","","","","<img src=images/blank.png width =""500"" height = ""500"" style=""border:5px solid black"">","","",""
"","341.88999998150393","stimulus-presentation","240","547736","0.0-20.0-1.12","SS1603399437186","<img src='images/complex/16.png' width ='500' height = '500' style='border:5px solid black'>","40","all_complex","images/complex/2.png","images/complex/16.png","images/complex/10.png,images/complex/1.png,images/complex/3.png,images/complex/18.png,images/complex/15.png,images/complex/5.png,images/complex/14.png","2","null","","200","541.8899999815039","","","","background","",""
"","null","html-keyboard-response","241","548654","0.0-20.0-0.13","SS1603399437186","","null","","","","","","","","","","","","<img src=images/blank.png width =""500"" height = ""500"" style=""border:5px solid black"">","","",""
"","437.99000000581145","stimulus-presentation","242","549328","0.0-20.0-1.13","SS1603399437186","<img src='images/complex/16.png' width ='500' height = '500' style='border:5px solid black'>","40","all_complex","images/complex/2.png","images/complex/16.png","images/complex/10.png,images/complex/1.png,images/complex/3.png,images/complex/18.png,images/complex/15.png,images/complex/5.png,images/complex/14.png","2","null","","200","637.9900000058115","","","","background","",""
"","null","html-keyboard-response","243","550177","0.0-20.0-0.14","SS1603399437186","","null","","","","","","","","","","","","<img src=images/blank.png width =""500"" height = ""500"" style=""border:5px solid black"">","","",""
"","407.99500001594424","stimulus-presentation","244","550820","0.0-20.0-1.14","SS1603399437186","<img src='images/complex/16.png' width ='500' height = '500' style='border:5px solid black'>","40","all_complex","images/complex/2.png","images/complex/16.png","images/complex/10.png,images/complex/1.png,images/complex/3.png,images/complex/18.png,images/complex/15.png,images/complex/5.png,images/complex/14.png","2","null","","200","607.9950000159442","","","","background","",""
"","null","html-keyboard-response","245","552021","0.0-20.0-0.15","SS1603399437186","","null","","","","","","","","","","","","<img src=images/blank.png width =""500"" height = ""500"" style=""border:5px solid black"">","","",""
"","949.2800000007264","stimulus-presentation","246","553206","0.0-20.0-1.15","SS1603399437186","<img src='images/complex/18.png' width ='500' height = '500' style='border:5px solid black'>","40","all_complex","images/complex/2.png","images/complex/16.png","images/complex/10.png,images/complex/1.png,images/complex/3.png,images/complex/18.png,images/complex/15.png,images/complex/5.png,images/complex/14.png","2","null","","200","1149.2800000007264","","","","deviant","",""
"","null","html-keyboard-response","247","554381","0.0-20.0-0.16","SS1603399437186","","null","","","","","","","","","","","","<img src=images/blank.png width =""500"" height = ""500"" style=""border:5px solid black"">","","",""
"","556.4250000170432","stimulus-presentation","248","555168","0.0-20.0-1.16","SS1603399437186","<img src='images/complex/16.png' width ='500' height = '500' style='border:5px solid black'>","40","all_complex","images/complex/2.png","images/complex/16.png","images/complex/10.png,images/complex/1.png,images/complex/3.png,images/complex/18.png,images/complex/15.png,images/complex/5.png,images/complex/14.png","2","null","","200","756.4250000170432","","","","background","",""
"","null","html-keyboard-response","249","556408","0.0-20.0-0.17","SS1603399437186","","null","","","","","","","","","","","","<img src=images/blank.png width =""500"" height = ""500"" style=""border:5px solid black"">","","",""
"","385.76999999349937","stimulus-presentation","250","557027","0.0-20.0-1.17","SS1603399437186","<img src='images/complex/16.png' width ='500' height = '500' style='border:5px solid black'>","40","all_complex","images/complex/2.png","images/complex/16.png","images/complex/10.png,images/complex/1.png,images/complex/3.png,images/complex/18.png,images/complex/15.png,images/complex/5.png,images/complex/14.png","2","null","","200","585.7699999934994","","","","background","",""
"","null","html-keyboard-response","251","557867","0.0-20.0-0.18","SS1603399437186","","null","","","","","","","","","","","","<img src=images/blank.png width =""500"" height = ""500"" style=""border:5px solid black"">","","",""
"","466.6999999899417","stimulus-presentation","252","558568","0.0-20.0-1.18","SS1603399437186","<img src='images/complex/16.png' width ='500' height = '500' style='border:5px solid black'>","40","all_complex","images/complex/2.png","images/complex/16.png","images/complex/10.png,images/complex/1.png,images/complex/3.png,images/complex/18.png,images/complex/15.png,images/complex/5.png,images/complex/14.png","2","null","","200","666.6999999899417","","","","background","",""
"","null","html-keyboard-response","253","559839","0.0-20.0-0.19","SS1603399437186","","null","","","","","","","","","","","","<img src=images/blank.png width =""500"" height = ""500"" style=""border:5px solid black"">","","",""
"","1069.1200000001118","stimulus-presentation","254","561143","0.0-20.0-1.19","SS1603399437186","<img src='images/complex/15.png' width ='500' height = '500' style='border:5px solid black'>","40","all_complex","images/complex/2.png","images/complex/16.png","images/complex/10.png,images/complex/1.png,images/complex/3.png,images/complex/18.png,images/complex/15.png,images/complex/5.png,images/complex/14.png","2","null","","200","1269.1200000001118","","","","deviant","",""
"","null","html-keyboard-response","255","562305","0.0-20.0-0.20","SS1603399437186","","null","","","","","","","","","","","","<img src=images/blank.png width =""500"" height = ""500"" style=""border:5px solid black"">","","",""
"","679.7399999923073","stimulus-presentation","256","563219","0.0-20.0-1.20","SS1603399437186","<img src='images/complex/16.png' width ='500' height = '500' style='border:5px solid black'>","40","all_complex","images/complex/2.png","images/complex/16.png","images/complex/10.png,images/complex/1.png,images/complex/3.png,images/complex/18.png,images/complex/15.png,images/complex/5.png,images/complex/14.png","2","null","","200","879.7399999923073","","","","background","",""
"","null","html-keyboard-response","257","564375","0.0-20.0-0.21","SS1603399437186","","null","","","","","","","","","","","","<img src=images/blank.png width =""500"" height = ""500"" style=""border:5px solid black"">","","",""
"","380.3499999921769","stimulus-presentation","258","564989","0.0-20.0-1.21","SS1603399437186","<img src='images/complex/16.png' width ='500' height = '500' style='border:5px solid black'>","40","all_complex","images/complex/2.png","images/complex/16.png","images/complex/10.png,images/complex/1.png,images/complex/3.png,images/complex/18.png,images/complex/15.png,images/complex/5.png,images/complex/14.png","2","null","","200","580.3499999921769","","","","background","",""
"","null","html-keyboard-response","259","566242","0.0-20.0-0.22","SS1603399437186","","null","","","","","","","","","","","","<img src=images/blank.png width =""500"" height = ""500"" style=""border:5px solid black"">","","",""
"","431.88999994890764","stimulus-presentation","260","566911","0.0-20.0-1.22","SS1603399437186","<img src='images/complex/16.png' width ='500' height = '500' style='border:5px solid black'>","40","all_complex","images/complex/2.png","images/complex/16.png","images/complex/10.png,images/complex/1.png,images/complex/3.png,images/complex/18.png,images/complex/15.png,images/complex/5.png,images/complex/14.png","2","null","","200","631.8899999489076","","","","background","",""
"","null","html-keyboard-response","261","568223","0.0-20.0-0.23","SS1603399437186","","null","","","","","","","","","","","","<img src=images/blank.png width =""500"" height = ""500"" style=""border:5px solid black"">","","",""
"","485.3550000116229","stimulus-presentation","262","568933","0.0-20.0-1.23","SS1603399437186","<img src='images/complex/16.png' width ='500' height = '500' style='border:5px solid black'>","40","all_complex","images/complex/2.png","images/complex/16.png","images/complex/10.png,images/complex/1.png,images/complex/3.png,images/complex/18.png,images/complex/15.png,images/complex/5.png,images/complex/14.png","2","null","","200","685.3550000116229","","","","background","",""
"","null","html-keyboard-response","263","569795","0.0-20.0-0.24","SS1603399437186","","null","","","","","","","","","","","","<img src=images/blank.png width =""500"" height = ""500"" style=""border:5px solid black"">","","",""
"","1518.8349999953061","stimulus-presentation","264","571533","0.0-20.0-1.24","SS1603399437186","<img src='images/complex/2.png' width ='500' height = '500' style='border:5px solid black'>","40","all_complex","images/complex/2.png","images/complex/16.png","images/complex/10.png,images/complex/1.png,images/complex/3.png,images/complex/18.png,images/complex/15.png,images/complex/5.png,images/complex/14.png","2","null","","200","1718.8349999953061","yes","753.3200000179932","","target","",""
"","null","html-keyboard-response","265","572664","0.0-20.0-0.25","SS1603399437186","","null","","","","","","","","","","","","<img src=images/blank.png width =""500"" height = ""500"" style=""border:5px solid black"">","","",""
"","691.5499999886379","stimulus-presentation","266","573587","0.0-20.0-1.25","SS1603399437186","<img src='images/complex/16.png' width ='500' height = '500' style='border:5px solid black'>","40","all_complex","images/complex/2.png","images/complex/16.png","images/complex/10.png,images/complex/1.png,images/complex/3.png,images/complex/18.png,images/complex/15.png,images/complex/5.png,images/complex/14.png","2","null","","200","891.5499999886379","","","","background","",""
"","null","html-keyboard-response","267","574762","0.0-20.0-0.26","SS1603399437186","","null","","","","","","","","","","","","<img src=images/blank.png width =""500"" height = ""500"" style=""border:5px solid black"">","","",""
"","1306.6000000108033","stimulus-presentation","268","576303","0.0-20.0-1.26","SS1603399437186","<img src='images/complex/2.png' width ='500' height = '500' style='border:5px solid black'>","40","all_complex","images/complex/2.png","images/complex/16.png","images/complex/10.png,images/complex/1.png,images/complex/3.png,images/complex/18.png,images/complex/15.png,images/complex/5.png,images/complex/14.png","2","null","","200","1506.6000000108033","yes","633.9300000108778","","target","",""
"","null","html-keyboard-response","269","577419","0.0-20.0-0.27","SS1603399437186","","null","","","","","","","","","","","","<img src=images/blank.png width =""500"" height = ""500"" style=""border:5px solid black"">","","",""
"","1092.884999990929","stimulus-presentation","270","578734","0.0-20.0-1.27","SS1603399437186","<img src='images/complex/14.png' width ='500' height = '500' style='border:5px solid black'>","40","all_complex","images/complex/2.png","images/complex/16.png","images/complex/10.png,images/complex/1.png,images/complex/3.png,images/complex/18.png,images/complex/15.png,images/complex/5.png,images/complex/14.png","2","null","","200","1292.884999990929","","","","deviant","",""
"","null","html-keyboard-response","271","579912","0.0-20.0-0.28","SS1603399437186","","null","","","","","","","","","","","","<img src=images/blank.png width =""500"" height = ""500"" style=""border:5px solid black"">","","",""
"","775.2200000104494","stimulus-presentation","272","580921","0.0-20.0-1.28","SS1603399437186","<img src='images/complex/16.png' width ='500' height = '500' style='border:5px solid black'>","40","all_complex","images/complex/2.png","images/complex/16.png","images/complex/10.png,images/complex/1.png,images/complex/3.png,images/complex/18.png,images/complex/15.png,images/complex/5.png,images/complex/14.png","2","null","","200","975.2200000104494","","","","background","",""
"","null","html-keyboard-response","273","582230","0.0-20.0-0.29","SS1603399437186","","null","","","","","","","","","","","","<img src=images/blank.png width =""500"" height = ""500"" style=""border:5px solid black"">","","",""
"","409.0600000345148","stimulus-presentation","274","582867","0.0-20.0-1.29","SS1603399437186","<img src='images/complex/16.png' width ='500' height = '500' style='border:5px solid black'>","40","all_complex","images/complex/2.png","images/complex/16.png","images/complex/10.png,images/complex/1.png,images/complex/3.png,images/complex/18.png,images/complex/15.png,images/complex/5.png,images/complex/14.png","2","null","","200","609.0600000345148","","","","background","",""
"","null","html-keyboard-response","275","584030","0.0-20.0-0.30","SS1603399437186","","null","","","","","","","","","","","","<img src=images/blank.png width =""500"" height = ""500"" style=""border:5px solid black"">","","",""
"","928.8999999989755","stimulus-presentation","276","585193","0.0-20.0-1.30","SS1603399437186","<img src='images/complex/10.png' width ='500' height = '500' style='border:5px solid black'>","40","all_complex","images/complex/2.png","images/complex/16.png","images/complex/10.png,images/complex/1.png,images/complex/3.png,images/complex/18.png,images/complex/15.png,images/complex/5.png,images/complex/14.png","2","null","","200","1128.8999999989755","","","","deviant","",""
"","null","html-keyboard-response","277","586305","0.0-20.0-0.31","SS1603399437186","","null","","","","","","","","","","","","<img src=images/blank.png width =""500"" height = ""500"" style=""border:5px solid black"">","","",""
"","1298.9350000279956","stimulus-presentation","278","587841","0.0-20.0-1.31","SS1603399437186","<img src='images/complex/2.png' width ='500' height = '500' style='border:5px solid black'>","40","all_complex","images/complex/2.png","images/complex/16.png","images/complex/10.png,images/complex/1.png,images/complex/3.png,images/complex/18.png,images/complex/15.png,images/complex/5.png,images/complex/14.png","2","null","","200","1498.9350000279956","yes","476.5150000457652","","target","",""
"","null","html-keyboard-response","279","589032","0.0-20.0-0.32","SS1603399437186","","null","","","","","","","","","","","","<img src=images/blank.png width =""500"" height = ""500"" style=""border:5px solid black"">","","",""
"","1379.8599999863654","stimulus-presentation","280","590648","0.0-20.0-1.32","SS1603399437186","<img src='images/complex/2.png' width ='500' height = '500' style='border:5px solid black'>","40","all_complex","images/complex/2.png","images/complex/16.png","images/complex/10.png,images/complex/1.png,images/complex/3.png,images/complex/18.png,images/complex/15.png,images/complex/5.png,images/complex/14.png","2","null","","200","1579.8599999863654","yes","661.2650000024587","","target","",""
"","null","html-keyboard-response","281","591743","0.0-20.0-0.33","SS1603399437186","","null","","","","","","","","","","","","<img src=images/blank.png width =""500"" height = ""500"" style=""border:5px solid black"">","","",""
"","752.5350000360049","stimulus-presentation","282","592727","0.0-20.0-1.33","SS1603399437186","<img src='images/complex/16.png' width ='500' height = '500' style='border:5px solid black'>","40","all_complex","images/complex/2.png","images/complex/16.png","images/complex/10.png,images/complex/1.png,images/complex/3.png,images/complex/18.png,images/complex/15.png,images/complex/5.png,images/complex/14.png","2","null","","200","952.5350000360049","","","","background","",""
"","null","html-keyboard-response","283","593587","0.0-20.0-0.34","SS1603399437186","","null","","","","","","","","","","","","<img src=images/blank.png width =""500"" height = ""500"" style=""border:5px solid black"">","","",""
