"view_history","rt","trial_type","trial_index","time_elapsed","internal_node_id","subject","trial_stimulus","key_press","task_type","task_target_stimulus","task_background_stimulus","task_deviant_stimuli","task_order_number","block_order_number","trial_order_number","minimum_viewing_duration","trial_looking_time","trial_pressed_space_bar","trial_space_bar_rt","stimulus","trial_stimulus_type","responses","question_order"
"[{""page_index"":0,""viewing_time"":10249}]","10249","instructions","0","10255","0.0-0.0","SS1604517448421","","","","","","","","","","","","","","","","",""
"[{""page_index"":0,""viewing_time"":7106},{""page_index"":1,""viewing_time"":6091},{""page_index"":2,""viewing_time"":1400},{""page_index"":3,""viewing_time"":5775},{""page_index"":4,""viewing_time"":4345},{""page_index"":5,""viewing_time"":1310},{""page_index"":6,""viewing_time"":1838},{""page_index"":7,""viewing_time"":1151},{""page_index"":8,""viewing_time"":1461}]","30477","instructions","1","40736","0.0-1.0","SS1604517448421","","","","","","","","","","","","","","","","",""
"[{""page_index"":0,""viewing_time"":2819},{""page_index"":1,""viewing_time"":4054},{""page_index"":2,""viewing_time"":1528}]","8401","instructions","2","49138","0.0-2.0","SS1604517448421","","","","","","","","","","","","","","","","",""
"","971","practice-block","3","50313","0.0-3.0","SS1604517448421","<img src='images/practice/practice_background.jpeg' width ='500' height = '500' style='border:5px solid black'>","40","null","images/practice/practice_target.jpg","null","null","null","null","","200","1171","","","","","",""
"","null","html-keyboard-response","4","51218","0.0-4.0","SS1604517448421","","null","","","","","","","","","","","","<img src=images/blank.png width =""500"" height = ""500"" style=""border:5px solid black"">","","",""
"","486","practice-block","5","51905","0.0-5.0","SS1604517448421","<img src='images/practice/practice_background.jpeg' width ='500' height = '500' style='border:5px solid black'>","40","null","images/practice/practice_target.jpg","null","null","null","null","","200","686","","","","","",""
"","null","html-keyboard-response","6","53027","0.0-6.0","SS1604517448421","","null","","","","","","","","","","","","<img src=images/blank.png width =""500"" height = ""500"" style=""border:5px solid black"">","","",""
"","5935","practice-block","7","59169","0.0-7.0","SS1604517448421","<img src='images/practice/practice_deviant.jpeg' width ='500' height = '500' style='border:5px solid black'>","40","null","images/practice/practice_target.jpg","null","null","null","null","","200","6135","yes","790","","","",""
"","null","html-keyboard-response","8","59989","0.0-8.0","SS1604517448421","","null","","","","","","","","","","","","<img src=images/blank.png width =""500"" height = ""500"" style=""border:5px solid black"">","","",""
"","859","practice-block","9","64853","0.0-9.0-0.0","SS1604517448421","<img src='images/practice/practice_target.jpg' width ='500' height = '500' style='border:5px solid black'>","40","null","images/practice/practice_target.jpg","null","null","null","null","","200","1059","","","","","",""
"","82483","practice-block","10","147551","0.0-9.1-0.1","SS1604517448421","<img src='images/practice/practice_target.jpg' width ='500' height = '500' style='border:5px solid black'>","40","null","images/practice/practice_target.jpg","null","null","null","null","","200","82683","yes","2298","","","",""
"","null","html-keyboard-response","11","148732","0.0-10.0","SS1604517448421","","null","","","","","","","","","","","","<img src=images/blank.png width =""500"" height = ""500"" style=""border:5px solid black"">","","",""
"","4","practice-block","12","148942","0.0-11.0","SS1604517448421","<img src='images/practice/practice_background.jpeg' width ='500' height = '500' style='border:5px solid black'>","40","null","images/practice/practice_target.jpg","null","null","null","null","","200","204","","","","","",""
"[{""page_index"":0,""viewing_time"":1986}]","1986","task-instructions","13","150930","0.0-12.0","SS1604517448421","","","","","","","","","","","","","","","","",""
"[{""page_index"":0,""viewing_time"":1983},{""page_index"":1,""viewing_time"":5815},{""page_index"":2,""viewing_time"":1632}]","9431","instructions","14","160363","0.0-13.0","SS1604517448421","","","","","","","","","","","","","","","","",""
"","null","html-keyboard-response","15","161442","0.0-14.0-0.0","SS1604517448421","","null","","","","","","","","","","","","<img src=images/blank.png width =""500"" height = ""500"" style=""border:5px solid black"">","","",""
"","1578","stimulus-presentation","16","163225","0.0-14.0-1.0","SS1604517448421","<img src='images/simple/11.png' width ='500' height = '500' style='border:5px solid black'>","40","mixed_simple_deviant","images/complex/1.png","images/complex/4.png","images/simple/14.png,images/simple/2.png,images/simple/18.png,images/simple/10.png,images/simple/8.png,images/simple/5.png,images/simple/11.png","0","null","","200","1778","","","","deviant","",""
"","null","html-keyboard-response","17","164080","0.0-14.0-0.1","SS1604517448421","","null","","","","","","","","","","","","<img src=images/blank.png width =""500"" height = ""500"" style=""border:5px solid black"">","","",""
"","275","stimulus-presentation","18","164561","0.0-14.0-1.1","SS1604517448421","<img src='images/complex/4.png' width ='500' height = '500' style='border:5px solid black'>","40","mixed_simple_deviant","images/complex/1.png","images/complex/4.png","images/simple/14.png,images/simple/2.png,images/simple/18.png,images/simple/10.png,images/simple/8.png,images/simple/5.png,images/simple/11.png","0","null","","200","475","","","","background","",""
"","null","html-keyboard-response","19","165489","0.0-14.0-0.2","SS1604517448421","","null","","","","","","","","","","","","<img src=images/blank.png width =""500"" height = ""500"" style=""border:5px solid black"">","","",""
"","243","stimulus-presentation","20","165936","0.0-14.0-1.2","SS1604517448421","<img src='images/complex/4.png' width ='500' height = '500' style='border:5px solid black'>","40","mixed_simple_deviant","images/complex/1.png","images/complex/4.png","images/simple/14.png,images/simple/2.png,images/simple/18.png,images/simple/10.png,images/simple/8.png,images/simple/5.png,images/simple/11.png","0","null","","200","443","","","","background","",""
"","null","html-keyboard-response","21","166798","0.0-14.0-0.3","SS1604517448421","","null","","","","","","","","","","","","<img src=images/blank.png width =""500"" height = ""500"" style=""border:5px solid black"">","","",""
"","286","stimulus-presentation","22","167289","0.0-14.0-1.3","SS1604517448421","<img src='images/complex/4.png' width ='500' height = '500' style='border:5px solid black'>","40","mixed_simple_deviant","images/complex/1.png","images/complex/4.png","images/simple/14.png,images/simple/2.png,images/simple/18.png,images/simple/10.png,images/simple/8.png,images/simple/5.png,images/simple/11.png","0","null","","200","486","","","","background","",""
"","null","html-keyboard-response","23","168144","0.0-14.0-0.4","SS1604517448421","","null","","","","","","","","","","","","<img src=images/blank.png width =""500"" height = ""500"" style=""border:5px solid black"">","","",""
"","140","stimulus-presentation","24","168488","0.0-14.0-1.4","SS1604517448421","<img src='images/complex/4.png' width ='500' height = '500' style='border:5px solid black'>","40","mixed_simple_deviant","images/complex/1.png","images/complex/4.png","images/simple/14.png,images/simple/2.png,images/simple/18.png,images/simple/10.png,images/simple/8.png,images/simple/5.png,images/simple/11.png","0","null","","200","340","","","","background","",""
"","null","html-keyboard-response","25","169585","0.0-14.0-0.5","SS1604517448421","","null","","","","","","","","","","","","<img src=images/blank.png width =""500"" height = ""500"" style=""border:5px solid black"">","","",""
"","301","stimulus-presentation","26","170090","0.0-14.0-1.5","SS1604517448421","<img src='images/complex/4.png' width ='500' height = '500' style='border:5px solid black'>","40","mixed_simple_deviant","images/complex/1.png","images/complex/4.png","images/simple/14.png,images/simple/2.png,images/simple/18.png,images/simple/10.png,images/simple/8.png,images/simple/5.png,images/simple/11.png","0","null","","200","501","","","","background","",""
"","null","html-keyboard-response","27","171073","0.0-14.0-0.6","SS1604517448421","","null","","","","","","","","","","","","<img src=images/blank.png width =""500"" height = ""500"" style=""border:5px solid black"">","","",""
"","246","stimulus-presentation","28","171520","0.0-14.0-1.6","SS1604517448421","<img src='images/complex/4.png' width ='500' height = '500' style='border:5px solid black'>","40","mixed_simple_deviant","images/complex/1.png","images/complex/4.png","images/simple/14.png,images/simple/2.png,images/simple/18.png,images/simple/10.png,images/simple/8.png,images/simple/5.png,images/simple/11.png","0","null","","200","446","","","","background","",""
"","null","html-keyboard-response","29","172795","0.0-14.0-0.7","SS1604517448421","","null","","","","","","","","","","","","<img src=images/blank.png width =""500"" height = ""500"" style=""border:5px solid black"">","","",""
"","244","stimulus-presentation","30","173242","0.0-14.0-1.7","SS1604517448421","<img src='images/complex/4.png' width ='500' height = '500' style='border:5px solid black'>","40","mixed_simple_deviant","images/complex/1.png","images/complex/4.png","images/simple/14.png,images/simple/2.png,images/simple/18.png,images/simple/10.png,images/simple/8.png,images/simple/5.png,images/simple/11.png","0","null","","200","444","","","","background","",""
"","null","html-keyboard-response","31","174052","0.0-14.0-0.8","SS1604517448421","","null","","","","","","","","","","","","<img src=images/blank.png width =""500"" height = ""500"" style=""border:5px solid black"">","","",""
"","1180","stimulus-presentation","32","175436","0.0-14.0-1.8","SS1604517448421","<img src='images/complex/4.png' width ='500' height = '500' style='border:5px solid black'>","40","mixed_simple_deviant","images/complex/1.png","images/complex/4.png","images/simple/14.png,images/simple/2.png,images/simple/18.png,images/simple/10.png,images/simple/8.png,images/simple/5.png,images/simple/11.png","0","null","","200","1380","","","","background","",""
"","null","html-keyboard-response","33","176252","0.0-14.0-0.9","SS1604517448421","","null","","","","","","","","","","","","<img src=images/blank.png width =""500"" height = ""500"" style=""border:5px solid black"">","","",""
"","198","stimulus-presentation","34","176653","0.0-14.0-1.9","SS1604517448421","<img src='images/simple/2.png' width ='500' height = '500' style='border:5px solid black'>","40","mixed_simple_deviant","images/complex/1.png","images/complex/4.png","images/simple/14.png,images/simple/2.png,images/simple/18.png,images/simple/10.png,images/simple/8.png,images/simple/5.png,images/simple/11.png","0","null","","200","398","","","","deviant","",""
"","null","html-keyboard-response","35","177711","0.0-14.0-0.10","SS1604517448421","","null","","","","","","","","","","","","<img src=images/blank.png width =""500"" height = ""500"" style=""border:5px solid black"">","","",""
"","230","stimulus-presentation","36","178145","0.0-14.0-1.10","SS1604517448421","<img src='images/complex/4.png' width ='500' height = '500' style='border:5px solid black'>","40","mixed_simple_deviant","images/complex/1.png","images/complex/4.png","images/simple/14.png,images/simple/2.png,images/simple/18.png,images/simple/10.png,images/simple/8.png,images/simple/5.png,images/simple/11.png","0","null","","200","430","","","","background","",""
"","null","html-keyboard-response","37","179253","0.0-14.0-0.11","SS1604517448421","","null","","","","","","","","","","","","<img src=images/blank.png width =""500"" height = ""500"" style=""border:5px solid black"">","","",""
"","146","stimulus-presentation","38","179602","0.0-14.0-1.11","SS1604517448421","<img src='images/complex/4.png' width ='500' height = '500' style='border:5px solid black'>","40","mixed_simple_deviant","images/complex/1.png","images/complex/4.png","images/simple/14.png,images/simple/2.png,images/simple/18.png,images/simple/10.png,images/simple/8.png,images/simple/5.png,images/simple/11.png","0","null","","200","346","","","","background","",""
"","null","html-keyboard-response","39","180449","0.0-14.0-0.12","SS1604517448421","","null","","","","","","","","","","","","<img src=images/blank.png width =""500"" height = ""500"" style=""border:5px solid black"">","","",""
"","374","stimulus-presentation","40","181026","0.0-14.0-1.12","SS1604517448421","<img src='images/complex/4.png' width ='500' height = '500' style='border:5px solid black'>","40","mixed_simple_deviant","images/complex/1.png","images/complex/4.png","images/simple/14.png,images/simple/2.png,images/simple/18.png,images/simple/10.png,images/simple/8.png,images/simple/5.png,images/simple/11.png","0","null","","200","574","","","","background","",""
"","null","html-keyboard-response","41","182254","0.0-14.0-0.13","SS1604517448421","","null","","","","","","","","","","","","<img src=images/blank.png width =""500"" height = ""500"" style=""border:5px solid black"">","","",""
"","424","stimulus-presentation","42","182882","0.0-14.0-1.13","SS1604517448421","<img src='images/complex/4.png' width ='500' height = '500' style='border:5px solid black'>","40","mixed_simple_deviant","images/complex/1.png","images/complex/4.png","images/simple/14.png,images/simple/2.png,images/simple/18.png,images/simple/10.png,images/simple/8.png,images/simple/5.png,images/simple/11.png","0","null","","200","624","","","","background","",""
"","null","html-keyboard-response","43","183845","0.0-14.0-0.14","SS1604517448421","","null","","","","","","","","","","","","<img src=images/blank.png width =""500"" height = ""500"" style=""border:5px solid black"">","","",""
"","513","stimulus-presentation","44","184562","0.0-14.0-1.14","SS1604517448421","<img src='images/simple/10.png' width ='500' height = '500' style='border:5px solid black'>","40","mixed_simple_deviant","images/complex/1.png","images/complex/4.png","images/simple/14.png,images/simple/2.png,images/simple/18.png,images/simple/10.png,images/simple/8.png,images/simple/5.png,images/simple/11.png","0","null","","200","713","","","","deviant","",""
"","null","html-keyboard-response","45","185642","0.0-14.0-0.15","SS1604517448421","","null","","","","","","","","","","","","<img src=images/blank.png width =""500"" height = ""500"" style=""border:5px solid black"">","","",""
"","108","stimulus-presentation","46","185953","0.0-14.0-1.15","SS1604517448421","<img src='images/complex/4.png' width ='500' height = '500' style='border:5px solid black'>","40","mixed_simple_deviant","images/complex/1.png","images/complex/4.png","images/simple/14.png,images/simple/2.png,images/simple/18.png,images/simple/10.png,images/simple/8.png,images/simple/5.png,images/simple/11.png","0","null","","200","308","","","","background","",""
"","null","html-keyboard-response","47","186930","0.0-14.0-0.16","SS1604517448421","","null","","","","","","","","","","","","<img src=images/blank.png width =""500"" height = ""500"" style=""border:5px solid black"">","","",""
"","403","stimulus-presentation","48","187538","0.0-14.0-1.16","SS1604517448421","<img src='images/complex/4.png' width ='500' height = '500' style='border:5px solid black'>","40","mixed_simple_deviant","images/complex/1.png","images/complex/4.png","images/simple/14.png,images/simple/2.png,images/simple/18.png,images/simple/10.png,images/simple/8.png,images/simple/5.png,images/simple/11.png","0","null","","200","603","","","","background","",""
"","null","html-keyboard-response","49","188675","0.0-14.0-0.17","SS1604517448421","","null","","","","","","","","","","","","<img src=images/blank.png width =""500"" height = ""500"" style=""border:5px solid black"">","","",""
"","821","stimulus-presentation","50","189699","0.0-14.0-1.17","SS1604517448421","<img src='images/complex/4.png' width ='500' height = '500' style='border:5px solid black'>","40","mixed_simple_deviant","images/complex/1.png","images/complex/4.png","images/simple/14.png,images/simple/2.png,images/simple/18.png,images/simple/10.png,images/simple/8.png,images/simple/5.png,images/simple/11.png","0","null","","200","1021","","","","background","",""
"","null","html-keyboard-response","51","190756","0.0-14.0-0.18","SS1604517448421","","null","","","","","","","","","","","","<img src=images/blank.png width =""500"" height = ""500"" style=""border:5px solid black"">","","",""
"","280","stimulus-presentation","52","191240","0.0-14.0-1.18","SS1604517448421","<img src='images/complex/4.png' width ='500' height = '500' style='border:5px solid black'>","40","mixed_simple_deviant","images/complex/1.png","images/complex/4.png","images/simple/14.png,images/simple/2.png,images/simple/18.png,images/simple/10.png,images/simple/8.png,images/simple/5.png,images/simple/11.png","0","null","","200","480","","","","background","",""
"","null","html-keyboard-response","53","192172","0.0-14.0-0.19","SS1604517448421","","null","","","","","","","","","","","","<img src=images/blank.png width =""500"" height = ""500"" style=""border:5px solid black"">","","",""
"","206","stimulus-presentation","54","192581","0.0-14.0-1.19","SS1604517448421","<img src='images/complex/4.png' width ='500' height = '500' style='border:5px solid black'>","40","mixed_simple_deviant","images/complex/1.png","images/complex/4.png","images/simple/14.png,images/simple/2.png,images/simple/18.png,images/simple/10.png,images/simple/8.png,images/simple/5.png,images/simple/11.png","0","null","","200","406","","","","background","",""
"","null","html-keyboard-response","55","193817","0.0-14.0-0.20","SS1604517448421","","null","","","","","","","","","","","","<img src=images/blank.png width =""500"" height = ""500"" style=""border:5px solid black"">","","",""
"","252","stimulus-presentation","56","194272","0.0-14.0-1.20","SS1604517448421","<img src='images/complex/4.png' width ='500' height = '500' style='border:5px solid black'>","40","mixed_simple_deviant","images/complex/1.png","images/complex/4.png","images/simple/14.png,images/simple/2.png,images/simple/18.png,images/simple/10.png,images/simple/8.png,images/simple/5.png,images/simple/11.png","0","null","","200","452","","","","background","",""
"","null","html-keyboard-response","57","195301","0.0-14.0-0.21","SS1604517448421","","null","","","","","","","","","","","","<img src=images/blank.png width =""500"" height = ""500"" style=""border:5px solid black"">","","",""
"","353","stimulus-presentation","58","195856","0.0-14.0-1.21","SS1604517448421","<img src='images/complex/4.png' width ='500' height = '500' style='border:5px solid black'>","40","mixed_simple_deviant","images/complex/1.png","images/complex/4.png","images/simple/14.png,images/simple/2.png,images/simple/18.png,images/simple/10.png,images/simple/8.png,images/simple/5.png,images/simple/11.png","0","null","","200","553","","","","background","",""
"","null","html-keyboard-response","59","197063","0.0-14.0-0.22","SS1604517448421","","null","","","","","","","","","","","","<img src=images/blank.png width =""500"" height = ""500"" style=""border:5px solid black"">","","",""
"","178","stimulus-presentation","60","197444","0.0-14.0-1.22","SS1604517448421","<img src='images/complex/1.png' width ='500' height = '500' style='border:5px solid black'>","40","mixed_simple_deviant","images/complex/1.png","images/complex/4.png","images/simple/14.png,images/simple/2.png,images/simple/18.png,images/simple/10.png,images/simple/8.png,images/simple/5.png,images/simple/11.png","0","null","","200","378","","","","target","",""
"","null","html-keyboard-response","61","198326","0.0-14.0-0.23","SS1604517448421","","null","","","","","","","","","","","","<img src=images/blank.png width =""500"" height = ""500"" style=""border:5px solid black"">","","",""
"","307","stimulus-presentation","62","198837","0.0-14.0-1.23","SS1604517448421","<img src='images/complex/4.png' width ='500' height = '500' style='border:5px solid black'>","40","mixed_simple_deviant","images/complex/1.png","images/complex/4.png","images/simple/14.png,images/simple/2.png,images/simple/18.png,images/simple/10.png,images/simple/8.png,images/simple/5.png,images/simple/11.png","0","null","","200","507","","","","background","",""
"","null","html-keyboard-response","63","199986","0.0-14.0-0.24","SS1604517448421","","null","","","","","","","","","","","","<img src=images/blank.png width =""500"" height = ""500"" style=""border:5px solid black"">","","",""
"","2447","stimulus-presentation","64","202637","0.0-14.0-1.24","SS1604517448421","<img src='images/complex/1.png' width ='500' height = '500' style='border:5px solid black'>","40","mixed_simple_deviant","images/complex/1.png","images/complex/4.png","images/simple/14.png,images/simple/2.png,images/simple/18.png,images/simple/10.png,images/simple/8.png,images/simple/5.png,images/simple/11.png","0","null","","200","2647","yes","346","","target","",""
"","null","html-keyboard-response","65","203759","0.0-14.0-0.25","SS1604517448421","","null","","","","","","","","","","","","<img src=images/blank.png width =""500"" height = ""500"" style=""border:5px solid black"">","","",""
"","1092","stimulus-presentation","66","205055","0.0-14.0-1.25","SS1604517448421","<img src='images/simple/18.png' width ='500' height = '500' style='border:5px solid black'>","40","mixed_simple_deviant","images/complex/1.png","images/complex/4.png","images/simple/14.png,images/simple/2.png,images/simple/18.png,images/simple/10.png,images/simple/8.png,images/simple/5.png,images/simple/11.png","0","null","","200","1292","yes","450","","deviant","",""
"","null","html-keyboard-response","67","206110","0.0-14.0-0.26","SS1604517448421","","null","","","","","","","","","","","","<img src=images/blank.png width =""500"" height = ""500"" style=""border:5px solid black"">","","",""
"","511","stimulus-presentation","68","206825","0.0-14.0-1.26","SS1604517448421","<img src='images/complex/4.png' width ='500' height = '500' style='border:5px solid black'>","40","mixed_simple_deviant","images/complex/1.png","images/complex/4.png","images/simple/14.png,images/simple/2.png,images/simple/18.png,images/simple/10.png,images/simple/8.png,images/simple/5.png,images/simple/11.png","0","null","","200","711","","","","background","",""
"","null","html-keyboard-response","69","207829","0.0-14.0-0.27","SS1604517448421","","null","","","","","","","","","","","","<img src=images/blank.png width =""500"" height = ""500"" style=""border:5px solid black"">","","",""
"","162","stimulus-presentation","70","208196","0.0-14.0-1.27","SS1604517448421","<img src='images/simple/8.png' width ='500' height = '500' style='border:5px solid black'>","40","mixed_simple_deviant","images/complex/1.png","images/complex/4.png","images/simple/14.png,images/simple/2.png,images/simple/18.png,images/simple/10.png,images/simple/8.png,images/simple/5.png,images/simple/11.png","0","null","","200","362","","","","deviant","",""
"","null","html-keyboard-response","71","209250","0.0-14.0-0.28","SS1604517448421","","null","","","","","","","","","","","","<img src=images/blank.png width =""500"" height = ""500"" style=""border:5px solid black"">","","",""
"","187","stimulus-presentation","72","209642","0.0-14.0-1.28","SS1604517448421","<img src='images/complex/4.png' width ='500' height = '500' style='border:5px solid black'>","40","mixed_simple_deviant","images/complex/1.png","images/complex/4.png","images/simple/14.png,images/simple/2.png,images/simple/18.png,images/simple/10.png,images/simple/8.png,images/simple/5.png,images/simple/11.png","0","null","","200","387","","","","background","",""
"","null","html-keyboard-response","73","210900","0.0-14.0-0.29","SS1604517448421","","null","","","","","","","","","","","","<img src=images/blank.png width =""500"" height = ""500"" style=""border:5px solid black"">","","",""
"","97","stimulus-presentation","74","211205","0.0-14.0-1.29","SS1604517448421","<img src='images/complex/4.png' width ='500' height = '500' style='border:5px solid black'>","40","mixed_simple_deviant","images/complex/1.png","images/complex/4.png","images/simple/14.png,images/simple/2.png,images/simple/18.png,images/simple/10.png,images/simple/8.png,images/simple/5.png,images/simple/11.png","0","null","","200","297","","","","background","",""
"","null","html-keyboard-response","75","212414","0.0-14.0-0.30","SS1604517448421","","null","","","","","","","","","","","","<img src=images/blank.png width =""500"" height = ""500"" style=""border:5px solid black"">","","",""
"","294","stimulus-presentation","76","212913","0.0-14.0-1.30","SS1604517448421","<img src='images/simple/14.png' width ='500' height = '500' style='border:5px solid black'>","40","mixed_simple_deviant","images/complex/1.png","images/complex/4.png","images/simple/14.png,images/simple/2.png,images/simple/18.png,images/simple/10.png,images/simple/8.png,images/simple/5.png,images/simple/11.png","0","null","","200","494","","","","deviant","",""
"","null","html-keyboard-response","77","214116","0.0-14.0-0.31","SS1604517448421","","null","","","","","","","","","","","","<img src=images/blank.png width =""500"" height = ""500"" style=""border:5px solid black"">","","",""
"","3947","stimulus-presentation","78","218267","0.0-14.0-1.31","SS1604517448421","<img src='images/complex/1.png' width ='500' height = '500' style='border:5px solid black'>","40","mixed_simple_deviant","images/complex/1.png","images/complex/4.png","images/simple/14.png,images/simple/2.png,images/simple/18.png,images/simple/10.png,images/simple/8.png,images/simple/5.png,images/simple/11.png","0","null","","200","4147","yes","382","","target","",""
"","null","html-keyboard-response","79","219360","0.0-14.0-0.32","SS1604517448421","","null","","","","","","","","","","","","<img src=images/blank.png width =""500"" height = ""500"" style=""border:5px solid black"">","","",""
"","628","stimulus-presentation","80","220195","0.0-14.0-1.32","SS1604517448421","<img src='images/complex/4.png' width ='500' height = '500' style='border:5px solid black'>","40","mixed_simple_deviant","images/complex/1.png","images/complex/4.png","images/simple/14.png,images/simple/2.png,images/simple/18.png,images/simple/10.png,images/simple/8.png,images/simple/5.png,images/simple/11.png","0","null","","200","828","","","","background","",""
"","null","html-keyboard-response","81","221299","0.0-14.0-0.33","SS1604517448421","","null","","","","","","","","","","","","<img src=images/blank.png width =""500"" height = ""500"" style=""border:5px solid black"">","","",""
"","2816","stimulus-presentation","82","224319","0.0-14.0-1.33","SS1604517448421","<img src='images/complex/4.png' width ='500' height = '500' style='border:5px solid black'>","40","mixed_simple_deviant","images/complex/1.png","images/complex/4.png","images/simple/14.png,images/simple/2.png,images/simple/18.png,images/simple/10.png,images/simple/8.png,images/simple/5.png,images/simple/11.png","0","null","","200","3016","","","","background","",""
"","null","html-keyboard-response","83","225532","0.0-14.0-0.34","SS1604517448421","","null","","","","","","","","","","","","<img src=images/blank.png width =""500"" height = ""500"" style=""border:5px solid black"">","","",""
"","2","stimulus-presentation","84","225738","0.0-14.0-1.34","SS1604517448421","<img src='images/complex/1.png' width ='500' height = '500' style='border:5px solid black'>","40","mixed_simple_deviant","images/complex/1.png","images/complex/4.png","images/simple/14.png,images/simple/2.png,images/simple/18.png,images/simple/10.png,images/simple/8.png,images/simple/5.png,images/simple/11.png","0","null","","200","202","","","","target","",""
"","null","html-keyboard-response","85","226632","0.0-14.0-0.35","SS1604517448421","","null","","","","","","","","","","","","<img src=images/blank.png width =""500"" height = ""500"" style=""border:5px solid black"">","","",""
"","56","stimulus-presentation","86","226891","0.0-14.0-1.35","SS1604517448421","<img src='images/complex/4.png' width ='500' height = '500' style='border:5px solid black'>","40","mixed_simple_deviant","images/complex/1.png","images/complex/4.png","images/simple/14.png,images/simple/2.png,images/simple/18.png,images/simple/10.png,images/simple/8.png,images/simple/5.png,images/simple/11.png","0","null","","200","256","","","","background","",""
"","null","html-keyboard-response","87","228036","0.0-14.0-0.36","SS1604517448421","","null","","","","","","","","","","","","<img src=images/blank.png width =""500"" height = ""500"" style=""border:5px solid black"">","","",""
"","1191","stimulus-presentation","88","229431","0.0-14.0-1.36","SS1604517448421","<img src='images/complex/1.png' width ='500' height = '500' style='border:5px solid black'>","40","mixed_simple_deviant","images/complex/1.png","images/complex/4.png","images/simple/14.png,images/simple/2.png,images/simple/18.png,images/simple/10.png,images/simple/8.png,images/simple/5.png,images/simple/11.png","0","null","","200","1391","yes","349","","target","",""
"","null","html-keyboard-response","89","230303","0.0-14.0-0.37","SS1604517448421","","null","","","","","","","","","","","","<img src=images/blank.png width =""500"" height = ""500"" style=""border:5px solid black"">","","",""
"","380","stimulus-presentation","90","230886","0.0-14.0-1.37","SS1604517448421","<img src='images/complex/4.png' width ='500' height = '500' style='border:5px solid black'>","40","mixed_simple_deviant","images/complex/1.png","images/complex/4.png","images/simple/14.png,images/simple/2.png,images/simple/18.png,images/simple/10.png,images/simple/8.png,images/simple/5.png,images/simple/11.png","0","null","","200","580","","","","background","",""
"","null","html-keyboard-response","91","232100","0.0-14.0-0.38","SS1604517448421","","null","","","","","","","","","","","","<img src=images/blank.png width =""500"" height = ""500"" style=""border:5px solid black"">","","",""
"","204","stimulus-presentation","92","232512","0.0-14.0-1.38","SS1604517448421","<img src='images/complex/4.png' width ='500' height = '500' style='border:5px solid black'>","40","mixed_simple_deviant","images/complex/1.png","images/complex/4.png","images/simple/14.png,images/simple/2.png,images/simple/18.png,images/simple/10.png,images/simple/8.png,images/simple/5.png,images/simple/11.png","0","null","","200","404","","","","background","",""
"","null","html-keyboard-response","93","233752","0.0-14.0-0.39","SS1604517448421","","null","","","","","","","","","","","","<img src=images/blank.png width =""500"" height = ""500"" style=""border:5px solid black"">","","",""
"","1363","stimulus-presentation","94","235318","0.0-14.0-1.39","SS1604517448421","<img src='images/complex/1.png' width ='500' height = '500' style='border:5px solid black'>","40","mixed_simple_deviant","images/complex/1.png","images/complex/4.png","images/simple/14.png,images/simple/2.png,images/simple/18.png,images/simple/10.png,images/simple/8.png,images/simple/5.png,images/simple/11.png","0","null","","200","1563","yes","421","","target","",""
"","null","html-keyboard-response","95","236164","0.0-14.0-0.40","SS1604517448421","","null","","","","","","","","","","","","<img src=images/blank.png width =""500"" height = ""500"" style=""border:5px solid black"">","","",""
"","145","stimulus-presentation","96","236513","0.0-14.0-1.40","SS1604517448421","<img src='images/complex/1.png' width ='500' height = '500' style='border:5px solid black'>","40","mixed_simple_deviant","images/complex/1.png","images/complex/4.png","images/simple/14.png,images/simple/2.png,images/simple/18.png,images/simple/10.png,images/simple/8.png,images/simple/5.png,images/simple/11.png","0","null","","200","345","","","","target","",""
"","null","html-keyboard-response","97","237808","0.0-14.0-0.41","SS1604517448421","","null","","","","","","","","","","","","<img src=images/blank.png width =""500"" height = ""500"" style=""border:5px solid black"">","","",""
"","261","stimulus-presentation","98","238274","0.0-14.0-1.41","SS1604517448421","<img src='images/complex/4.png' width ='500' height = '500' style='border:5px solid black'>","40","mixed_simple_deviant","images/complex/1.png","images/complex/4.png","images/simple/14.png,images/simple/2.png,images/simple/18.png,images/simple/10.png,images/simple/8.png,images/simple/5.png,images/simple/11.png","0","null","","200","461","","","","background","",""
"","null","html-keyboard-response","99","239186","0.0-14.0-0.42","SS1604517448421","","null","","","","","","","","","","","","<img src=images/blank.png width =""500"" height = ""500"" style=""border:5px solid black"">","","",""
"","125","stimulus-presentation","100","239514","0.0-14.0-1.42","SS1604517448421","<img src='images/complex/4.png' width ='500' height = '500' style='border:5px solid black'>","40","mixed_simple_deviant","images/complex/1.png","images/complex/4.png","images/simple/14.png,images/simple/2.png,images/simple/18.png,images/simple/10.png,images/simple/8.png,images/simple/5.png,images/simple/11.png","0","null","","200","325","","","","background","",""
"","null","html-keyboard-response","101","240695","0.0-14.0-0.43","SS1604517448421","","null","","","","","","","","","","","","<img src=images/blank.png width =""500"" height = ""500"" style=""border:5px solid black"">","","",""
"","105","stimulus-presentation","102","241007","0.0-14.0-1.43","SS1604517448421","<img src='images/complex/4.png' width ='500' height = '500' style='border:5px solid black'>","40","mixed_simple_deviant","images/complex/1.png","images/complex/4.png","images/simple/14.png,images/simple/2.png,images/simple/18.png,images/simple/10.png,images/simple/8.png,images/simple/5.png,images/simple/11.png","0","null","","200","305","","","","background","",""
"","null","html-keyboard-response","103","242160","0.0-14.0-0.44","SS1604517448421","","null","","","","","","","","","","","","<img src=images/blank.png width =""500"" height = ""500"" style=""border:5px solid black"">","","",""
"","362","stimulus-presentation","104","242725","0.0-14.0-1.44","SS1604517448421","<img src='images/complex/4.png' width ='500' height = '500' style='border:5px solid black'>","40","mixed_simple_deviant","images/complex/1.png","images/complex/4.png","images/simple/14.png,images/simple/2.png,images/simple/18.png,images/simple/10.png,images/simple/8.png,images/simple/5.png,images/simple/11.png","0","null","","200","562","","","","background","",""
"","null","html-keyboard-response","105","243719","0.0-14.0-0.45","SS1604517448421","","null","","","","","","","","","","","","<img src=images/blank.png width =""500"" height = ""500"" style=""border:5px solid black"">","","",""
"","227","stimulus-presentation","106","244150","0.0-14.0-1.45","SS1604517448421","<img src='images/simple/5.png' width ='500' height = '500' style='border:5px solid black'>","40","mixed_simple_deviant","images/complex/1.png","images/complex/4.png","images/simple/14.png,images/simple/2.png,images/simple/18.png,images/simple/10.png,images/simple/8.png,images/simple/5.png,images/simple/11.png","0","null","","200","427","","","","deviant","",""
"","null","html-keyboard-response","107","245283","0.0-14.0-0.46","SS1604517448421","","null","","","","","","","","","","","","<img src=images/blank.png width =""500"" height = ""500"" style=""border:5px solid black"">","","",""
"","195","stimulus-presentation","108","245681","0.0-14.0-1.46","SS1604517448421","<img src='images/complex/4.png' width ='500' height = '500' style='border:5px solid black'>","40","mixed_simple_deviant","images/complex/1.png","images/complex/4.png","images/simple/14.png,images/simple/2.png,images/simple/18.png,images/simple/10.png,images/simple/8.png,images/simple/5.png,images/simple/11.png","0","null","","200","395","","","","background","",""
"","null","html-keyboard-response","109","246622","0.0-14.0-0.47","SS1604517448421","","null","","","","","","","","","","","","<img src=images/blank.png width =""500"" height = ""500"" style=""border:5px solid black"">","","",""
"","191","stimulus-presentation","110","247019","0.0-14.0-1.47","SS1604517448421","<img src='images/complex/4.png' width ='500' height = '500' style='border:5px solid black'>","40","mixed_simple_deviant","images/complex/1.png","images/complex/4.png","images/simple/14.png,images/simple/2.png,images/simple/18.png,images/simple/10.png,images/simple/8.png,images/simple/5.png,images/simple/11.png","0","null","","200","391","","","","background","",""
"","null","html-keyboard-response","111","248186","0.0-14.0-0.48","SS1604517448421","","null","","","","","","","","","","","","<img src=images/blank.png width =""500"" height = ""500"" style=""border:5px solid black"">","","",""
"","186","stimulus-presentation","112","248579","0.0-14.0-1.48","SS1604517448421","<img src='images/complex/4.png' width ='500' height = '500' style='border:5px solid black'>","40","mixed_simple_deviant","images/complex/1.png","images/complex/4.png","images/simple/14.png,images/simple/2.png,images/simple/18.png,images/simple/10.png,images/simple/8.png,images/simple/5.png,images/simple/11.png","0","null","","200","386","","","","background","",""
"[{""page_index"":0,""viewing_time"":2335}]","2335","task-instructions","113","250916","0.0-15.0","SS1604517448421","","","","","","","","","","","","","","","","",""
"[{""page_index"":0,""viewing_time"":1018},{""page_index"":1,""viewing_time"":4372},{""page_index"":2,""viewing_time"":2642}]","8032","instructions","114","258950","0.0-16.0","SS1604517448421","","","","","","","","","","","","","","","","",""
"","null","html-keyboard-response","115","259861","0.0-17.0-0.0","SS1604517448421","","null","","","","","","","","","","","","<img src=images/blank.png width =""500"" height = ""500"" style=""border:5px solid black"">","","",""
"","476","stimulus-presentation","116","260540","0.0-17.0-1.0","SS1604517448421","<img src='images/complex/11.png' width ='500' height = '500' style='border:5px solid black'>","40","all_complex","images/complex/16.png","images/complex/11.png","images/complex/8.png,images/complex/9.png,images/complex/15.png,images/complex/5.png,images/complex/12.png,images/complex/6.png,images/complex/2.png","1","null","","200","676","","","","background","",""
"","null","html-keyboard-response","117","261492","0.0-17.0-0.1","SS1604517448421","","null","","","","","","","","","","","","<img src=images/blank.png width =""500"" height = ""500"" style=""border:5px solid black"">","","",""
"","74","stimulus-presentation","118","261772","0.0-17.0-1.1","SS1604517448421","<img src='images/complex/9.png' width ='500' height = '500' style='border:5px solid black'>","40","all_complex","images/complex/16.png","images/complex/11.png","images/complex/8.png,images/complex/9.png,images/complex/15.png,images/complex/5.png,images/complex/12.png,images/complex/6.png,images/complex/2.png","1","null","","200","274","","","","deviant","",""
"","null","html-keyboard-response","119","263004","0.0-17.0-0.2","SS1604517448421","","null","","","","","","","","","","","","<img src=images/blank.png width =""500"" height = ""500"" style=""border:5px solid black"">","","",""
"","124","stimulus-presentation","120","263333","0.0-17.0-1.2","SS1604517448421","<img src='images/complex/11.png' width ='500' height = '500' style='border:5px solid black'>","40","all_complex","images/complex/16.png","images/complex/11.png","images/complex/8.png,images/complex/9.png,images/complex/15.png,images/complex/5.png,images/complex/12.png,images/complex/6.png,images/complex/2.png","1","null","","200","324","","","","background","",""
"","null","html-keyboard-response","121","264229","0.0-17.0-0.3","SS1604517448421","","null","","","","","","","","","","","","<img src=images/blank.png width =""500"" height = ""500"" style=""border:5px solid black"">","","",""
"","186","stimulus-presentation","122","264622","0.0-17.0-1.3","SS1604517448421","<img src='images/complex/11.png' width ='500' height = '500' style='border:5px solid black'>","40","all_complex","images/complex/16.png","images/complex/11.png","images/complex/8.png,images/complex/9.png,images/complex/15.png,images/complex/5.png,images/complex/12.png,images/complex/6.png,images/complex/2.png","1","null","","200","386","","","","background","",""
"","null","html-keyboard-response","123","265456","0.0-17.0-0.4","SS1604517448421","","null","","","","","","","","","","","","<img src=images/blank.png width =""500"" height = ""500"" style=""border:5px solid black"">","","",""
"","260","stimulus-presentation","124","265919","0.0-17.0-1.4","SS1604517448421","<img src='images/complex/11.png' width ='500' height = '500' style='border:5px solid black'>","40","all_complex","images/complex/16.png","images/complex/11.png","images/complex/8.png,images/complex/9.png,images/complex/15.png,images/complex/5.png,images/complex/12.png,images/complex/6.png,images/complex/2.png","1","null","","200","460","","","","background","",""
"","null","html-keyboard-response","125","267097","0.0-17.0-0.5","SS1604517448421","","null","","","","","","","","","","","","<img src=images/blank.png width =""500"" height = ""500"" style=""border:5px solid black"">","","",""
"","224","stimulus-presentation","126","267527","0.0-17.0-1.5","SS1604517448421","<img src='images/complex/11.png' width ='500' height = '500' style='border:5px solid black'>","40","all_complex","images/complex/16.png","images/complex/11.png","images/complex/8.png,images/complex/9.png,images/complex/15.png,images/complex/5.png,images/complex/12.png,images/complex/6.png,images/complex/2.png","1","null","","200","424","","","","background","",""
"","null","html-keyboard-response","127","268467","0.0-17.0-0.6","SS1604517448421","","null","","","","","","","","","","","","<img src=images/blank.png width =""500"" height = ""500"" style=""border:5px solid black"">","","",""
"","176","stimulus-presentation","128","268846","0.0-17.0-1.6","SS1604517448421","<img src='images/complex/16.png' width ='500' height = '500' style='border:5px solid black'>","40","all_complex","images/complex/16.png","images/complex/11.png","images/complex/8.png,images/complex/9.png,images/complex/15.png,images/complex/5.png,images/complex/12.png,images/complex/6.png,images/complex/2.png","1","null","","200","376","","","","target","",""
"","null","html-keyboard-response","129","269686","0.0-17.0-0.7","SS1604517448421","","null","","","","","","","","","","","","<img src=images/blank.png width =""500"" height = ""500"" style=""border:5px solid black"">","","",""
"","20","stimulus-presentation","130","269909","0.0-17.0-1.7","SS1604517448421","<img src='images/complex/11.png' width ='500' height = '500' style='border:5px solid black'>","40","all_complex","images/complex/16.png","images/complex/11.png","images/complex/8.png,images/complex/9.png,images/complex/15.png,images/complex/5.png,images/complex/12.png,images/complex/6.png,images/complex/2.png","1","null","","200","220","","","","background","",""
"","null","html-keyboard-response","131","270774","0.0-17.0-0.8","SS1604517448421","","null","","","","","","","","","","","","<img src=images/blank.png width =""500"" height = ""500"" style=""border:5px solid black"">","","",""
"","286","stimulus-presentation","132","271264","0.0-17.0-1.8","SS1604517448421","<img src='images/complex/6.png' width ='500' height = '500' style='border:5px solid black'>","40","all_complex","images/complex/16.png","images/complex/11.png","images/complex/8.png,images/complex/9.png,images/complex/15.png,images/complex/5.png,images/complex/12.png,images/complex/6.png,images/complex/2.png","1","null","","200","486","","","","deviant","",""
"","null","html-keyboard-response","133","272095","0.0-17.0-0.9","SS1604517448421","","null","","","","","","","","","","","","<img src=images/blank.png width =""500"" height = ""500"" style=""border:5px solid black"">","","",""
"","124","stimulus-presentation","134","272423","0.0-17.0-1.9","SS1604517448421","<img src='images/complex/11.png' width ='500' height = '500' style='border:5px solid black'>","40","all_complex","images/complex/16.png","images/complex/11.png","images/complex/8.png,images/complex/9.png,images/complex/15.png,images/complex/5.png,images/complex/12.png,images/complex/6.png,images/complex/2.png","1","null","","200","324","","","","background","",""
"","null","html-keyboard-response","135","273379","0.0-17.0-0.10","SS1604517448421","","null","","","","","","","","","","","","<img src=images/blank.png width =""500"" height = ""500"" style=""border:5px solid black"">","","",""
"","358","stimulus-presentation","136","273942","0.0-17.0-1.10","SS1604517448421","<img src='images/complex/11.png' width ='500' height = '500' style='border:5px solid black'>","40","all_complex","images/complex/16.png","images/complex/11.png","images/complex/8.png,images/complex/9.png,images/complex/15.png,images/complex/5.png,images/complex/12.png,images/complex/6.png,images/complex/2.png","1","null","","200","558","","","","background","",""
"","null","html-keyboard-response","137","275209","0.0-17.0-0.11","SS1604517448421","","null","","","","","","","","","","","","<img src=images/blank.png width =""500"" height = ""500"" style=""border:5px solid black"">","","",""
"","198","stimulus-presentation","138","275613","0.0-17.0-1.11","SS1604517448421","<img src='images/complex/11.png' width ='500' height = '500' style='border:5px solid black'>","40","all_complex","images/complex/16.png","images/complex/11.png","images/complex/8.png,images/complex/9.png,images/complex/15.png,images/complex/5.png,images/complex/12.png,images/complex/6.png,images/complex/2.png","1","null","","200","398","","","","background","",""
"","null","html-keyboard-response","139","276701","0.0-17.0-0.12","SS1604517448421","","null","","","","","","","","","","","","<img src=images/blank.png width =""500"" height = ""500"" style=""border:5px solid black"">","","",""
"","244","stimulus-presentation","140","277150","0.0-17.0-1.12","SS1604517448421","<img src='images/complex/11.png' width ='500' height = '500' style='border:5px solid black'>","40","all_complex","images/complex/16.png","images/complex/11.png","images/complex/8.png,images/complex/9.png,images/complex/15.png,images/complex/5.png,images/complex/12.png,images/complex/6.png,images/complex/2.png","1","null","","200","444","","","","background","",""
"","null","html-keyboard-response","141","278266","0.0-17.0-0.13","SS1604517448421","","null","","","","","","","","","","","","<img src=images/blank.png width =""500"" height = ""500"" style=""border:5px solid black"">","","",""
"","219","stimulus-presentation","142","278689","0.0-17.0-1.13","SS1604517448421","<img src='images/complex/11.png' width ='500' height = '500' style='border:5px solid black'>","40","all_complex","images/complex/16.png","images/complex/11.png","images/complex/8.png,images/complex/9.png,images/complex/15.png,images/complex/5.png,images/complex/12.png,images/complex/6.png,images/complex/2.png","1","null","","200","419","","","","background","",""
"","null","html-keyboard-response","143","279598","0.0-17.0-0.14","SS1604517448421","","null","","","","","","","","","","","","<img src=images/blank.png width =""500"" height = ""500"" style=""border:5px solid black"">","","",""
"","436","stimulus-presentation","144","280241","0.0-17.0-1.14","SS1604517448421","<img src='images/complex/5.png' width ='500' height = '500' style='border:5px solid black'>","40","all_complex","images/complex/16.png","images/complex/11.png","images/complex/8.png,images/complex/9.png,images/complex/15.png,images/complex/5.png,images/complex/12.png,images/complex/6.png,images/complex/2.png","1","null","","200","636","","","","deviant","",""
"","null","html-keyboard-response","145","281391","0.0-17.0-0.15","SS1604517448421","","null","","","","","","","","","","","","<img src=images/blank.png width =""500"" height = ""500"" style=""border:5px solid black"">","","",""
"","218","stimulus-presentation","146","281813","0.0-17.0-1.15","SS1604517448421","<img src='images/complex/11.png' width ='500' height = '500' style='border:5px solid black'>","40","all_complex","images/complex/16.png","images/complex/11.png","images/complex/8.png,images/complex/9.png,images/complex/15.png,images/complex/5.png,images/complex/12.png,images/complex/6.png,images/complex/2.png","1","null","","200","418","","","","background","",""
"","null","html-keyboard-response","147","283035","0.0-17.0-0.16","SS1604517448421","","null","","","","","","","","","","","","<img src=images/blank.png width =""500"" height = ""500"" style=""border:5px solid black"">","","",""
"","331","stimulus-presentation","148","283569","0.0-17.0-1.16","SS1604517448421","<img src='images/complex/11.png' width ='500' height = '500' style='border:5px solid black'>","40","all_complex","images/complex/16.png","images/complex/11.png","images/complex/8.png,images/complex/9.png,images/complex/15.png,images/complex/5.png,images/complex/12.png,images/complex/6.png,images/complex/2.png","1","null","","200","531","","","","background","",""
"","null","html-keyboard-response","149","284794","0.0-17.0-0.17","SS1604517448421","","null","","","","","","","","","","","","<img src=images/blank.png width =""500"" height = ""500"" style=""border:5px solid black"">","","",""
"","209","stimulus-presentation","150","285206","0.0-17.0-1.17","SS1604517448421","<img src='images/complex/11.png' width ='500' height = '500' style='border:5px solid black'>","40","all_complex","images/complex/16.png","images/complex/11.png","images/complex/8.png,images/complex/9.png,images/complex/15.png,images/complex/5.png,images/complex/12.png,images/complex/6.png,images/complex/2.png","1","null","","200","409","","","","background","",""
"","null","html-keyboard-response","151","286486","0.0-17.0-0.18","SS1604517448421","","null","","","","","","","","","","","","<img src=images/blank.png width =""500"" height = ""500"" style=""border:5px solid black"">","","",""
"","1683","stimulus-presentation","152","288371","0.0-17.0-1.18","SS1604517448421","<img src='images/complex/16.png' width ='500' height = '500' style='border:5px solid black'>","40","all_complex","images/complex/16.png","images/complex/11.png","images/complex/8.png,images/complex/9.png,images/complex/15.png,images/complex/5.png,images/complex/12.png,images/complex/6.png,images/complex/2.png","1","null","","200","1883","yes","626","","target","",""
"","null","html-keyboard-response","153","289261","0.0-17.0-0.19","SS1604517448421","","null","","","","","","","","","","","","<img src=images/blank.png width =""500"" height = ""500"" style=""border:5px solid black"">","","",""
"","1009","stimulus-presentation","154","290475","0.0-17.0-1.19","SS1604517448421","<img src='images/complex/16.png' width ='500' height = '500' style='border:5px solid black'>","40","all_complex","images/complex/16.png","images/complex/11.png","images/complex/8.png,images/complex/9.png,images/complex/15.png,images/complex/5.png,images/complex/12.png,images/complex/6.png,images/complex/2.png","1","null","","200","1209","yes","417","","target","",""
"","null","html-keyboard-response","155","291525","0.0-17.0-0.20","SS1604517448421","","null","","","","","","","","","","","","<img src=images/blank.png width =""500"" height = ""500"" style=""border:5px solid black"">","","",""
"","157","stimulus-presentation","156","291885","0.0-17.0-1.20","SS1604517448421","<img src='images/complex/11.png' width ='500' height = '500' style='border:5px solid black'>","40","all_complex","images/complex/16.png","images/complex/11.png","images/complex/8.png,images/complex/9.png,images/complex/15.png,images/complex/5.png,images/complex/12.png,images/complex/6.png,images/complex/2.png","1","null","","200","357","","","","background","",""
"","null","html-keyboard-response","157","292909","0.0-17.0-0.21","SS1604517448421","","null","","","","","","","","","","","","<img src=images/blank.png width =""500"" height = ""500"" style=""border:5px solid black"">","","",""
"","130","stimulus-presentation","158","293247","0.0-17.0-1.21","SS1604517448421","<img src='images/complex/11.png' width ='500' height = '500' style='border:5px solid black'>","40","all_complex","images/complex/16.png","images/complex/11.png","images/complex/8.png,images/complex/9.png,images/complex/15.png,images/complex/5.png,images/complex/12.png,images/complex/6.png,images/complex/2.png","1","null","","200","330","","","","background","",""
"","null","html-keyboard-response","159","294137","0.0-17.0-0.22","SS1604517448421","","null","","","","","","","","","","","","<img src=images/blank.png width =""500"" height = ""500"" style=""border:5px solid black"">","","",""
"","131","stimulus-presentation","160","294474","0.0-17.0-1.22","SS1604517448421","<img src='images/complex/11.png' width ='500' height = '500' style='border:5px solid black'>","40","all_complex","images/complex/16.png","images/complex/11.png","images/complex/8.png,images/complex/9.png,images/complex/15.png,images/complex/5.png,images/complex/12.png,images/complex/6.png,images/complex/2.png","1","null","","200","331","","","","background","",""
"","null","html-keyboard-response","161","295733","0.0-17.0-0.23","SS1604517448421","","null","","","","","","","","","","","","<img src=images/blank.png width =""500"" height = ""500"" style=""border:5px solid black"">","","",""
"","153","stimulus-presentation","162","296093","0.0-17.0-1.23","SS1604517448421","<img src='images/complex/11.png' width ='500' height = '500' style='border:5px solid black'>","40","all_complex","images/complex/16.png","images/complex/11.png","images/complex/8.png,images/complex/9.png,images/complex/15.png,images/complex/5.png,images/complex/12.png,images/complex/6.png,images/complex/2.png","1","null","","200","353","","","","background","",""
"","null","html-keyboard-response","163","296988","0.0-17.0-0.24","SS1604517448421","","null","","","","","","","","","","","","<img src=images/blank.png width =""500"" height = ""500"" style=""border:5px solid black"">","","",""
"","334","stimulus-presentation","164","297525","0.0-17.0-1.24","SS1604517448421","<img src='images/complex/15.png' width ='500' height = '500' style='border:5px solid black'>","40","all_complex","images/complex/16.png","images/complex/11.png","images/complex/8.png,images/complex/9.png,images/complex/15.png,images/complex/5.png,images/complex/12.png,images/complex/6.png,images/complex/2.png","1","null","","200","534","","","","deviant","",""
"","null","html-keyboard-response","165","298422","0.0-17.0-0.25","SS1604517448421","","null","","","","","","","","","","","","<img src=images/blank.png width =""500"" height = ""500"" style=""border:5px solid black"">","","",""
"","279","stimulus-presentation","166","298909","0.0-17.0-1.25","SS1604517448421","<img src='images/complex/11.png' width ='500' height = '500' style='border:5px solid black'>","40","all_complex","images/complex/16.png","images/complex/11.png","images/complex/8.png,images/complex/9.png,images/complex/15.png,images/complex/5.png,images/complex/12.png,images/complex/6.png,images/complex/2.png","1","null","","200","479","","","","background","",""
"","null","html-keyboard-response","167","300038","0.0-17.0-0.26","SS1604517448421","","null","","","","","","","","","","","","<img src=images/blank.png width =""500"" height = ""500"" style=""border:5px solid black"">","","",""
"","209","stimulus-presentation","168","300455","0.0-17.0-1.26","SS1604517448421","<img src='images/complex/11.png' width ='500' height = '500' style='border:5px solid black'>","40","all_complex","images/complex/16.png","images/complex/11.png","images/complex/8.png,images/complex/9.png,images/complex/15.png,images/complex/5.png,images/complex/12.png,images/complex/6.png,images/complex/2.png","1","null","","200","409","","","","background","",""
"","null","html-keyboard-response","169","301586","0.0-17.0-0.27","SS1604517448421","","null","","","","","","","","","","","","<img src=images/blank.png width =""500"" height = ""500"" style=""border:5px solid black"">","","",""
"","143","stimulus-presentation","170","301932","0.0-17.0-1.27","SS1604517448421","<img src='images/complex/11.png' width ='500' height = '500' style='border:5px solid black'>","40","all_complex","images/complex/16.png","images/complex/11.png","images/complex/8.png,images/complex/9.png,images/complex/15.png,images/complex/5.png,images/complex/12.png,images/complex/6.png,images/complex/2.png","1","null","","200","343","","","","background","",""
"","null","html-keyboard-response","171","302743","0.0-17.0-0.28","SS1604517448421","","null","","","","","","","","","","","","<img src=images/blank.png width =""500"" height = ""500"" style=""border:5px solid black"">","","",""
"","240","stimulus-presentation","172","303187","0.0-17.0-1.28","SS1604517448421","<img src='images/complex/11.png' width ='500' height = '500' style='border:5px solid black'>","40","all_complex","images/complex/16.png","images/complex/11.png","images/complex/8.png,images/complex/9.png,images/complex/15.png,images/complex/5.png,images/complex/12.png,images/complex/6.png,images/complex/2.png","1","null","","200","440","","","","background","",""
"","null","html-keyboard-response","173","304325","0.0-17.0-0.29","SS1604517448421","","null","","","","","","","","","","","","<img src=images/blank.png width =""500"" height = ""500"" style=""border:5px solid black"">","","",""
"","199","stimulus-presentation","174","304727","0.0-17.0-1.29","SS1604517448421","<img src='images/complex/12.png' width ='500' height = '500' style='border:5px solid black'>","40","all_complex","images/complex/16.png","images/complex/11.png","images/complex/8.png,images/complex/9.png,images/complex/15.png,images/complex/5.png,images/complex/12.png,images/complex/6.png,images/complex/2.png","1","null","","200","399","","","","deviant","",""
"","null","html-keyboard-response","175","305646","0.0-17.0-0.30","SS1604517448421","","null","","","","","","","","","","","","<img src=images/blank.png width =""500"" height = ""500"" style=""border:5px solid black"">","","",""
"","148","stimulus-presentation","176","306001","0.0-17.0-1.30","SS1604517448421","<img src='images/complex/11.png' width ='500' height = '500' style='border:5px solid black'>","40","all_complex","images/complex/16.png","images/complex/11.png","images/complex/8.png,images/complex/9.png,images/complex/15.png,images/complex/5.png,images/complex/12.png,images/complex/6.png,images/complex/2.png","1","null","","200","348","","","","background","",""
"","null","html-keyboard-response","177","307061","0.0-17.0-0.31","SS1604517448421","","null","","","","","","","","","","","","<img src=images/blank.png width =""500"" height = ""500"" style=""border:5px solid black"">","","",""
"","183","stimulus-presentation","178","307449","0.0-17.0-1.31","SS1604517448421","<img src='images/complex/11.png' width ='500' height = '500' style='border:5px solid black'>","40","all_complex","images/complex/16.png","images/complex/11.png","images/complex/8.png,images/complex/9.png,images/complex/15.png,images/complex/5.png,images/complex/12.png,images/complex/6.png,images/complex/2.png","1","null","","200","383","","","","background","",""
"","null","html-keyboard-response","179","308694","0.0-17.0-0.32","SS1604517448421","","null","","","","","","","","","","","","<img src=images/blank.png width =""500"" height = ""500"" style=""border:5px solid black"">","","",""
"","1194","stimulus-presentation","180","310094","0.0-17.0-1.32","SS1604517448421","<img src='images/complex/16.png' width ='500' height = '500' style='border:5px solid black'>","40","all_complex","images/complex/16.png","images/complex/11.png","images/complex/8.png,images/complex/9.png,images/complex/15.png,images/complex/5.png,images/complex/12.png,images/complex/6.png,images/complex/2.png","1","null","","200","1394","yes","364","","target","",""
"","null","html-keyboard-response","181","311085","0.0-17.0-0.33","SS1604517448421","","null","","","","","","","","","","","","<img src=images/blank.png width =""500"" height = ""500"" style=""border:5px solid black"">","","",""
"","144","stimulus-presentation","182","311433","0.0-17.0-1.33","SS1604517448421","<img src='images/complex/16.png' width ='500' height = '500' style='border:5px solid black'>","40","all_complex","images/complex/16.png","images/complex/11.png","images/complex/8.png,images/complex/9.png,images/complex/15.png,images/complex/5.png,images/complex/12.png,images/complex/6.png,images/complex/2.png","1","null","","200","344","","","","target","",""
"","null","html-keyboard-response","183","312334","0.0-17.0-0.34","SS1604517448421","","null","","","","","","","","","","","","<img src=images/blank.png width =""500"" height = ""500"" style=""border:5px solid black"">","","",""
"","1237","stimulus-presentation","184","313774","0.0-17.0-1.34","SS1604517448421","<img src='images/complex/16.png' width ='500' height = '500' style='border:5px solid black'>","40","all_complex","images/complex/16.png","images/complex/11.png","images/complex/8.png,images/complex/9.png,images/complex/15.png,images/complex/5.png,images/complex/12.png,images/complex/6.png,images/complex/2.png","1","null","","200","1437","yes","568","","target","",""
"","null","html-keyboard-response","185","314955","0.0-17.0-0.35","SS1604517448421","","null","","","","","","","","","","","","<img src=images/blank.png width =""500"" height = ""500"" style=""border:5px solid black"">","","",""
"","1103","stimulus-presentation","186","316264","0.0-17.0-1.35","SS1604517448421","<img src='images/complex/8.png' width ='500' height = '500' style='border:5px solid black'>","40","all_complex","images/complex/16.png","images/complex/11.png","images/complex/8.png,images/complex/9.png,images/complex/15.png,images/complex/5.png,images/complex/12.png,images/complex/6.png,images/complex/2.png","1","null","","200","1303","","","","deviant","",""
"","null","html-keyboard-response","187","317471","0.0-17.0-0.36","SS1604517448421","","null","","","","","","","","","","","","<img src=images/blank.png width =""500"" height = ""500"" style=""border:5px solid black"">","","",""
"","435","stimulus-presentation","188","318109","0.0-17.0-1.36","SS1604517448421","<img src='images/complex/11.png' width ='500' height = '500' style='border:5px solid black'>","40","all_complex","images/complex/16.png","images/complex/11.png","images/complex/8.png,images/complex/9.png,images/complex/15.png,images/complex/5.png,images/complex/12.png,images/complex/6.png,images/complex/2.png","1","null","","200","635","","","","background","",""
"","null","html-keyboard-response","189","319219","0.0-17.0-0.37","SS1604517448421","","null","","","","","","","","","","","","<img src=images/blank.png width =""500"" height = ""500"" style=""border:5px solid black"">","","",""
"","138","stimulus-presentation","190","319563","0.0-17.0-1.37","SS1604517448421","<img src='images/complex/11.png' width ='500' height = '500' style='border:5px solid black'>","40","all_complex","images/complex/16.png","images/complex/11.png","images/complex/8.png,images/complex/9.png,images/complex/15.png,images/complex/5.png,images/complex/12.png,images/complex/6.png,images/complex/2.png","1","null","","200","338","","","","background","",""
"","null","html-keyboard-response","191","320519","0.0-17.0-0.38","SS1604517448421","","null","","","","","","","","","","","","<img src=images/blank.png width =""500"" height = ""500"" style=""border:5px solid black"">","","",""
"","219","stimulus-presentation","192","320944","0.0-17.0-1.38","SS1604517448421","<img src='images/complex/11.png' width ='500' height = '500' style='border:5px solid black'>","40","all_complex","images/complex/16.png","images/complex/11.png","images/complex/8.png,images/complex/9.png,images/complex/15.png,images/complex/5.png,images/complex/12.png,images/complex/6.png,images/complex/2.png","1","null","","200","419","","","","background","",""
"","null","html-keyboard-response","193","322077","0.0-17.0-0.39","SS1604517448421","","null","","","","","","","","","","","","<img src=images/blank.png width =""500"" height = ""500"" style=""border:5px solid black"">","","",""
"","292","stimulus-presentation","194","322576","0.0-17.0-1.39","SS1604517448421","<img src='images/complex/11.png' width ='500' height = '500' style='border:5px solid black'>","40","all_complex","images/complex/16.png","images/complex/11.png","images/complex/8.png,images/complex/9.png,images/complex/15.png,images/complex/5.png,images/complex/12.png,images/complex/6.png,images/complex/2.png","1","null","","200","492","","","","background","",""
"","null","html-keyboard-response","195","323816","0.0-17.0-0.40","SS1604517448421","","null","","","","","","","","","","","","<img src=images/blank.png width =""500"" height = ""500"" style=""border:5px solid black"">","","",""
"","292","stimulus-presentation","196","324314","0.0-17.0-1.40","SS1604517448421","<img src='images/complex/11.png' width ='500' height = '500' style='border:5px solid black'>","40","all_complex","images/complex/16.png","images/complex/11.png","images/complex/8.png,images/complex/9.png,images/complex/15.png,images/complex/5.png,images/complex/12.png,images/complex/6.png,images/complex/2.png","1","null","","200","492","","","","background","",""
"","null","html-keyboard-response","197","325474","0.0-17.0-0.41","SS1604517448421","","null","","","","","","","","","","","","<img src=images/blank.png width =""500"" height = ""500"" style=""border:5px solid black"">","","",""
"","551","stimulus-presentation","198","326231","0.0-17.0-1.41","SS1604517448421","<img src='images/complex/2.png' width ='500' height = '500' style='border:5px solid black'>","40","all_complex","images/complex/16.png","images/complex/11.png","images/complex/8.png,images/complex/9.png,images/complex/15.png,images/complex/5.png,images/complex/12.png,images/complex/6.png,images/complex/2.png","1","null","","200","751","","","","deviant","",""
"","null","html-keyboard-response","199","327282","0.0-17.0-0.42","SS1604517448421","","null","","","","","","","","","","","","<img src=images/blank.png width =""500"" height = ""500"" style=""border:5px solid black"">","","",""
"","246","stimulus-presentation","200","327730","0.0-17.0-1.42","SS1604517448421","<img src='images/complex/11.png' width ='500' height = '500' style='border:5px solid black'>","40","all_complex","images/complex/16.png","images/complex/11.png","images/complex/8.png,images/complex/9.png,images/complex/15.png,images/complex/5.png,images/complex/12.png,images/complex/6.png,images/complex/2.png","1","null","","200","446","","","","background","",""
"","null","html-keyboard-response","201","328689","0.0-17.0-0.43","SS1604517448421","","null","","","","","","","","","","","","<img src=images/blank.png width =""500"" height = ""500"" style=""border:5px solid black"">","","",""
"","310","stimulus-presentation","202","329209","0.0-17.0-1.43","SS1604517448421","<img src='images/complex/11.png' width ='500' height = '500' style='border:5px solid black'>","40","all_complex","images/complex/16.png","images/complex/11.png","images/complex/8.png,images/complex/9.png,images/complex/15.png,images/complex/5.png,images/complex/12.png,images/complex/6.png,images/complex/2.png","1","null","","200","510","","","","background","",""
"","null","html-keyboard-response","203","330225","0.0-17.0-0.44","SS1604517448421","","null","","","","","","","","","","","","<img src=images/blank.png width =""500"" height = ""500"" style=""border:5px solid black"">","","",""
"","982","stimulus-presentation","204","331411","0.0-17.0-1.44","SS1604517448421","<img src='images/complex/11.png' width ='500' height = '500' style='border:5px solid black'>","40","all_complex","images/complex/16.png","images/complex/11.png","images/complex/8.png,images/complex/9.png,images/complex/15.png,images/complex/5.png,images/complex/12.png,images/complex/6.png,images/complex/2.png","1","null","","200","1182","","","","background","",""
"","null","html-keyboard-response","205","332621","0.0-17.0-0.45","SS1604517448421","","null","","","","","","","","","","","","<img src=images/blank.png width =""500"" height = ""500"" style=""border:5px solid black"">","","",""
"","322","stimulus-presentation","206","333148","0.0-17.0-1.45","SS1604517448421","<img src='images/complex/11.png' width ='500' height = '500' style='border:5px solid black'>","40","all_complex","images/complex/16.png","images/complex/11.png","images/complex/8.png,images/complex/9.png,images/complex/15.png,images/complex/5.png,images/complex/12.png,images/complex/6.png,images/complex/2.png","1","null","","200","522","","","","background","",""
"","null","html-keyboard-response","207","334367","0.0-17.0-0.46","SS1604517448421","","null","","","","","","","","","","","","<img src=images/blank.png width =""500"" height = ""500"" style=""border:5px solid black"">","","",""
"","1116","stimulus-presentation","208","335688","0.0-17.0-1.46","SS1604517448421","<img src='images/complex/11.png' width ='500' height = '500' style='border:5px solid black'>","40","all_complex","images/complex/16.png","images/complex/11.png","images/complex/8.png,images/complex/9.png,images/complex/15.png,images/complex/5.png,images/complex/12.png,images/complex/6.png,images/complex/2.png","1","null","","200","1316","","","","background","",""
"","null","html-keyboard-response","209","336854","0.0-17.0-0.47","SS1604517448421","","null","","","","","","","","","","","","<img src=images/blank.png width =""500"" height = ""500"" style=""border:5px solid black"">","","",""
"","1625","stimulus-presentation","210","338686","0.0-17.0-1.47","SS1604517448421","<img src='images/complex/16.png' width ='500' height = '500' style='border:5px solid black'>","40","all_complex","images/complex/16.png","images/complex/11.png","images/complex/8.png,images/complex/9.png,images/complex/15.png,images/complex/5.png,images/complex/12.png,images/complex/6.png,images/complex/2.png","1","null","","200","1825","yes","921","","target","",""
"","null","html-keyboard-response","211","339925","0.0-17.0-0.48","SS1604517448421","","null","","","","","","","","","","","","<img src=images/blank.png width =""500"" height = ""500"" style=""border:5px solid black"">","","",""
"","264","stimulus-presentation","212","340393","0.0-17.0-1.48","SS1604517448421","<img src='images/complex/11.png' width ='500' height = '500' style='border:5px solid black'>","40","all_complex","images/complex/16.png","images/complex/11.png","images/complex/8.png,images/complex/9.png,images/complex/15.png,images/complex/5.png,images/complex/12.png,images/complex/6.png,images/complex/2.png","1","null","","200","464","","","","background","",""
"[{""page_index"":0,""viewing_time"":2380}]","2380","task-instructions","213","342776","0.0-18.0","SS1604517448421","","","","","","","","","","","","","","","","",""
"[{""page_index"":0,""viewing_time"":996},{""page_index"":1,""viewing_time"":1298},{""page_index"":2,""viewing_time"":1674}]","3968","instructions","214","346748","0.0-19.0","SS1604517448421","","","","","","","","","","","","","","","","",""
"","null","html-keyboard-response","215","347748","0.0-20.0-0.0","SS1604517448421","","null","","","","","","","","","","","","<img src=images/blank.png width =""500"" height = ""500"" style=""border:5px solid black"">","","",""
"","939","stimulus-presentation","216","348892","0.0-20.0-1.0","SS1604517448421","<img src='images/simple/17.png' width ='500' height = '500' style='border:5px solid black'>","40","mixed_complex_deviant","images/simple/17.png","images/simple/12.png","images/complex/17.png,images/complex/3.png,images/complex/10.png,images/complex/14.png,images/complex/7.png,images/complex/18.png,images/complex/13.png","2","null","","200","1139","yes","414","","target","",""
"","null","html-keyboard-response","217","349902","0.0-20.0-0.1","SS1604517448421","","null","","","","","","","","","","","","<img src=images/blank.png width =""500"" height = ""500"" style=""border:5px solid black"">","","",""
"","139","stimulus-presentation","218","350248","0.0-20.0-1.1","SS1604517448421","<img src='images/complex/18.png' width ='500' height = '500' style='border:5px solid black'>","40","mixed_complex_deviant","images/simple/17.png","images/simple/12.png","images/complex/17.png,images/complex/3.png,images/complex/10.png,images/complex/14.png,images/complex/7.png,images/complex/18.png,images/complex/13.png","2","null","","200","339","","","","deviant","",""
"","null","html-keyboard-response","219","351078","0.0-20.0-0.2","SS1604517448421","","null","","","","","","","","","","","","<img src=images/blank.png width =""500"" height = ""500"" style=""border:5px solid black"">","","",""
"","183","stimulus-presentation","220","351466","0.0-20.0-1.2","SS1604517448421","<img src='images/simple/12.png' width ='500' height = '500' style='border:5px solid black'>","40","mixed_complex_deviant","images/simple/17.png","images/simple/12.png","images/complex/17.png,images/complex/3.png,images/complex/10.png,images/complex/14.png,images/complex/7.png,images/complex/18.png,images/complex/13.png","2","null","","200","383","","","","background","",""
"","null","html-keyboard-response","221","352477","0.0-20.0-0.3","SS1604517448421","","null","","","","","","","","","","","","<img src=images/blank.png width =""500"" height = ""500"" style=""border:5px solid black"">","","",""
"","182","stimulus-presentation","222","352863","0.0-20.0-1.3","SS1604517448421","<img src='images/simple/12.png' width ='500' height = '500' style='border:5px solid black'>","40","mixed_complex_deviant","images/simple/17.png","images/simple/12.png","images/complex/17.png,images/complex/3.png,images/complex/10.png,images/complex/14.png,images/complex/7.png,images/complex/18.png,images/complex/13.png","2","null","","200","382","","","","background","",""
"","null","html-keyboard-response","223","353738","0.0-20.0-0.4","SS1604517448421","","null","","","","","","","","","","","","<img src=images/blank.png width =""500"" height = ""500"" style=""border:5px solid black"">","","",""
"","188","stimulus-presentation","224","354133","0.0-20.0-1.4","SS1604517448421","<img src='images/simple/12.png' width ='500' height = '500' style='border:5px solid black'>","40","mixed_complex_deviant","images/simple/17.png","images/simple/12.png","images/complex/17.png,images/complex/3.png,images/complex/10.png,images/complex/14.png,images/complex/7.png,images/complex/18.png,images/complex/13.png","2","null","","200","388","","","","background","",""
"","null","html-keyboard-response","225","355397","0.0-20.0-0.5","SS1604517448421","","null","","","","","","","","","","","","<img src=images/blank.png width =""500"" height = ""500"" style=""border:5px solid black"">","","",""
"","167","stimulus-presentation","226","355768","0.0-20.0-1.5","SS1604517448421","<img src='images/simple/12.png' width ='500' height = '500' style='border:5px solid black'>","40","mixed_complex_deviant","images/simple/17.png","images/simple/12.png","images/complex/17.png,images/complex/3.png,images/complex/10.png,images/complex/14.png,images/complex/7.png,images/complex/18.png,images/complex/13.png","2","null","","200","367","","","","background","",""
"","null","html-keyboard-response","227","356828","0.0-20.0-0.6","SS1604517448421","","null","","","","","","","","","","","","<img src=images/blank.png width =""500"" height = ""500"" style=""border:5px solid black"">","","",""
"","457","stimulus-presentation","228","357491","0.0-20.0-1.6","SS1604517448421","<img src='images/complex/17.png' width ='500' height = '500' style='border:5px solid black'>","40","mixed_complex_deviant","images/simple/17.png","images/simple/12.png","images/complex/17.png,images/complex/3.png,images/complex/10.png,images/complex/14.png,images/complex/7.png,images/complex/18.png,images/complex/13.png","2","null","","200","657","","","","deviant","",""
"","null","html-keyboard-response","229","358647","0.0-20.0-0.7","SS1604517448421","","null","","","","","","","","","","","","<img src=images/blank.png width =""500"" height = ""500"" style=""border:5px solid black"">","","",""
"","301","stimulus-presentation","230","359154","0.0-20.0-1.7","SS1604517448421","<img src='images/simple/17.png' width ='500' height = '500' style='border:5px solid black'>","40","mixed_complex_deviant","images/simple/17.png","images/simple/12.png","images/complex/17.png,images/complex/3.png,images/complex/10.png,images/complex/14.png,images/complex/7.png,images/complex/18.png,images/complex/13.png","2","null","","200","501","","","","target","",""
"","null","html-keyboard-response","231","360113","0.0-20.0-0.8","SS1604517448421","","null","","","","","","","","","","","","<img src=images/blank.png width =""500"" height = ""500"" style=""border:5px solid black"">","","",""
"","628","stimulus-presentation","232","360948","0.0-20.0-1.8","SS1604517448421","<img src='images/simple/12.png' width ='500' height = '500' style='border:5px solid black'>","40","mixed_complex_deviant","images/simple/17.png","images/simple/12.png","images/complex/17.png,images/complex/3.png,images/complex/10.png,images/complex/14.png,images/complex/7.png,images/complex/18.png,images/complex/13.png","2","null","","200","828","","","","background","",""
"","null","html-keyboard-response","233","362081","0.0-20.0-0.9","SS1604517448421","","null","","","","","","","","","","","","<img src=images/blank.png width =""500"" height = ""500"" style=""border:5px solid black"">","","",""
"","228","stimulus-presentation","234","362514","0.0-20.0-1.9","SS1604517448421","<img src='images/simple/12.png' width ='500' height = '500' style='border:5px solid black'>","40","mixed_complex_deviant","images/simple/17.png","images/simple/12.png","images/complex/17.png,images/complex/3.png,images/complex/10.png,images/complex/14.png,images/complex/7.png,images/complex/18.png,images/complex/13.png","2","null","","200","428","","","","background","",""
"","null","html-keyboard-response","235","363770","0.0-20.0-0.10","SS1604517448421","","null","","","","","","","","","","","","<img src=images/blank.png width =""500"" height = ""500"" style=""border:5px solid black"">","","",""
"","150","stimulus-presentation","236","364125","0.0-20.0-1.10","SS1604517448421","<img src='images/simple/12.png' width ='500' height = '500' style='border:5px solid black'>","40","mixed_complex_deviant","images/simple/17.png","images/simple/12.png","images/complex/17.png,images/complex/3.png,images/complex/10.png,images/complex/14.png,images/complex/7.png,images/complex/18.png,images/complex/13.png","2","null","","200","350","","","","background","",""
"","null","html-keyboard-response","237","365073","0.0-20.0-0.11","SS1604517448421","","null","","","","","","","","","","","","<img src=images/blank.png width =""500"" height = ""500"" style=""border:5px solid black"">","","",""
"","409","stimulus-presentation","238","365689","0.0-20.0-1.11","SS1604517448421","<img src='images/simple/12.png' width ='500' height = '500' style='border:5px solid black'>","40","mixed_complex_deviant","images/simple/17.png","images/simple/12.png","images/complex/17.png,images/complex/3.png,images/complex/10.png,images/complex/14.png,images/complex/7.png,images/complex/18.png,images/complex/13.png","2","null","","200","609","","","","background","",""
"","null","html-keyboard-response","239","366518","0.0-20.0-0.12","SS1604517448421","","null","","","","","","","","","","","","<img src=images/blank.png width =""500"" height = ""500"" style=""border:5px solid black"">","","",""
"","219","stimulus-presentation","240","366942","0.0-20.0-1.12","SS1604517448421","<img src='images/simple/12.png' width ='500' height = '500' style='border:5px solid black'>","40","mixed_complex_deviant","images/simple/17.png","images/simple/12.png","images/complex/17.png,images/complex/3.png,images/complex/10.png,images/complex/14.png,images/complex/7.png,images/complex/18.png,images/complex/13.png","2","null","","200","419","","","","background","",""
"","null","html-keyboard-response","241","367784","0.0-20.0-0.13","SS1604517448421","","null","","","","","","","","","","","","<img src=images/blank.png width =""500"" height = ""500"" style=""border:5px solid black"">","","",""
"","237","stimulus-presentation","242","368227","0.0-20.0-1.13","SS1604517448421","<img src='images/simple/12.png' width ='500' height = '500' style='border:5px solid black'>","40","mixed_complex_deviant","images/simple/17.png","images/simple/12.png","images/complex/17.png,images/complex/3.png,images/complex/10.png,images/complex/14.png,images/complex/7.png,images/complex/18.png,images/complex/13.png","2","null","","200","437","","","","background","",""
"","null","html-keyboard-response","243","369056","0.0-20.0-0.14","SS1604517448421","","null","","","","","","","","","","","","<img src=images/blank.png width =""500"" height = ""500"" style=""border:5px solid black"">","","",""
"","198","stimulus-presentation","244","369460","0.0-20.0-1.14","SS1604517448421","<img src='images/simple/12.png' width ='500' height = '500' style='border:5px solid black'>","40","mixed_complex_deviant","images/simple/17.png","images/simple/12.png","images/complex/17.png,images/complex/3.png,images/complex/10.png,images/complex/14.png,images/complex/7.png,images/complex/18.png,images/complex/13.png","2","null","","200","398","","","","background","",""
"","null","html-keyboard-response","245","370356","0.0-20.0-0.15","SS1604517448421","","null","","","","","","","","","","","","<img src=images/blank.png width =""500"" height = ""500"" style=""border:5px solid black"">","","",""
"","186","stimulus-presentation","246","370749","0.0-20.0-1.15","SS1604517448421","<img src='images/complex/7.png' width ='500' height = '500' style='border:5px solid black'>","40","mixed_complex_deviant","images/simple/17.png","images/simple/12.png","images/complex/17.png,images/complex/3.png,images/complex/10.png,images/complex/14.png,images/complex/7.png,images/complex/18.png,images/complex/13.png","2","null","","200","386","","","","deviant","",""
"","null","html-keyboard-response","247","371589","0.0-20.0-0.16","SS1604517448421","","null","","","","","","","","","","","","<img src=images/blank.png width =""500"" height = ""500"" style=""border:5px solid black"">","","",""
"","243","stimulus-presentation","248","372039","0.0-20.0-1.16","SS1604517448421","<img src='images/simple/17.png' width ='500' height = '500' style='border:5px solid black'>","40","mixed_complex_deviant","images/simple/17.png","images/simple/12.png","images/complex/17.png,images/complex/3.png,images/complex/10.png,images/complex/14.png,images/complex/7.png,images/complex/18.png,images/complex/13.png","2","null","","200","443","","","","target","",""
"","null","html-keyboard-response","249","373209","0.0-20.0-0.17","SS1604517448421","","null","","","","","","","","","","","","<img src=images/blank.png width =""500"" height = ""500"" style=""border:5px solid black"">","","",""
"","88","stimulus-presentation","250","373502","0.0-20.0-1.17","SS1604517448421","<img src='images/simple/12.png' width ='500' height = '500' style='border:5px solid black'>","40","mixed_complex_deviant","images/simple/17.png","images/simple/12.png","images/complex/17.png,images/complex/3.png,images/complex/10.png,images/complex/14.png,images/complex/7.png,images/complex/18.png,images/complex/13.png","2","null","","200","288","","","","background","",""
"","null","html-keyboard-response","251","374651","0.0-20.0-0.18","SS1604517448421","","null","","","","","","","","","","","","<img src=images/blank.png width =""500"" height = ""500"" style=""border:5px solid black"">","","",""
"","307","stimulus-presentation","252","375162","0.0-20.0-1.18","SS1604517448421","<img src='images/simple/12.png' width ='500' height = '500' style='border:5px solid black'>","40","mixed_complex_deviant","images/simple/17.png","images/simple/12.png","images/complex/17.png,images/complex/3.png,images/complex/10.png,images/complex/14.png,images/complex/7.png,images/complex/18.png,images/complex/13.png","2","null","","200","507","","","","background","",""
"","null","html-keyboard-response","253","376162","0.0-20.0-0.19","SS1604517448421","","null","","","","","","","","","","","","<img src=images/blank.png width =""500"" height = ""500"" style=""border:5px solid black"">","","",""
"","286","stimulus-presentation","254","376653","0.0-20.0-1.19","SS1604517448421","<img src='images/simple/12.png' width ='500' height = '500' style='border:5px solid black'>","40","mixed_complex_deviant","images/simple/17.png","images/simple/12.png","images/complex/17.png,images/complex/3.png,images/complex/10.png,images/complex/14.png,images/complex/7.png,images/complex/18.png,images/complex/13.png","2","null","","200","486","","","","background","",""
"","null","html-keyboard-response","255","377563","0.0-20.0-0.20","SS1604517448421","","null","","","","","","","","","","","","<img src=images/blank.png width =""500"" height = ""500"" style=""border:5px solid black"">","","",""
"","299","stimulus-presentation","256","378069","0.0-20.0-1.20","SS1604517448421","<img src='images/simple/12.png' width ='500' height = '500' style='border:5px solid black'>","40","mixed_complex_deviant","images/simple/17.png","images/simple/12.png","images/complex/17.png,images/complex/3.png,images/complex/10.png,images/complex/14.png,images/complex/7.png,images/complex/18.png,images/complex/13.png","2","null","","200","499","","","","background","",""
"","null","html-keyboard-response","257","379247","0.0-20.0-0.21","SS1604517448421","","null","","","","","","","","","","","","<img src=images/blank.png width =""500"" height = ""500"" style=""border:5px solid black"">","","",""
"","407","stimulus-presentation","258","379861","0.0-20.0-1.21","SS1604517448421","<img src='images/simple/12.png' width ='500' height = '500' style='border:5px solid black'>","40","mixed_complex_deviant","images/simple/17.png","images/simple/12.png","images/complex/17.png,images/complex/3.png,images/complex/10.png,images/complex/14.png,images/complex/7.png,images/complex/18.png,images/complex/13.png","2","null","","200","607","","","","background","",""
"","null","html-keyboard-response","259","380997","0.0-20.0-0.22","SS1604517448421","","null","","","","","","","","","","","","<img src=images/blank.png width =""500"" height = ""500"" style=""border:5px solid black"">","","",""
"","462","stimulus-presentation","260","381666","0.0-20.0-1.22","SS1604517448421","<img src='images/complex/14.png' width ='500' height = '500' style='border:5px solid black'>","40","mixed_complex_deviant","images/simple/17.png","images/simple/12.png","images/complex/17.png,images/complex/3.png,images/complex/10.png,images/complex/14.png,images/complex/7.png,images/complex/18.png,images/complex/13.png","2","null","","200","662","","","","deviant","",""
"","null","html-keyboard-response","261","382666","0.0-20.0-0.23","SS1604517448421","","null","","","","","","","","","","","","<img src=images/blank.png width =""500"" height = ""500"" style=""border:5px solid black"">","","",""
"","200","stimulus-presentation","262","383072","0.0-20.0-1.23","SS1604517448421","<img src='images/simple/12.png' width ='500' height = '500' style='border:5px solid black'>","40","mixed_complex_deviant","images/simple/17.png","images/simple/12.png","images/complex/17.png,images/complex/3.png,images/complex/10.png,images/complex/14.png,images/complex/7.png,images/complex/18.png,images/complex/13.png","2","null","","200","400","","","","background","",""
"","null","html-keyboard-response","263","384091","0.0-20.0-0.24","SS1604517448421","","null","","","","","","","","","","","","<img src=images/blank.png width =""500"" height = ""500"" style=""border:5px solid black"">","","",""
"","453","stimulus-presentation","264","384751","0.0-20.0-1.24","SS1604517448421","<img src='images/simple/12.png' width ='500' height = '500' style='border:5px solid black'>","40","mixed_complex_deviant","images/simple/17.png","images/simple/12.png","images/complex/17.png,images/complex/3.png,images/complex/10.png,images/complex/14.png,images/complex/7.png,images/complex/18.png,images/complex/13.png","2","null","","200","653","","","","background","",""
"","null","html-keyboard-response","265","385670","0.0-20.0-0.25","SS1604517448421","","null","","","","","","","","","","","","<img src=images/blank.png width =""500"" height = ""500"" style=""border:5px solid black"">","","",""
"","430","stimulus-presentation","266","386304","0.0-20.0-1.25","SS1604517448421","<img src='images/simple/12.png' width ='500' height = '500' style='border:5px solid black'>","40","mixed_complex_deviant","images/simple/17.png","images/simple/12.png","images/complex/17.png,images/complex/3.png,images/complex/10.png,images/complex/14.png,images/complex/7.png,images/complex/18.png,images/complex/13.png","2","null","","200","630","","","","background","",""
"","null","html-keyboard-response","267","387162","0.0-20.0-0.26","SS1604517448421","","null","","","","","","","","","","","","<img src=images/blank.png width =""500"" height = ""500"" style=""border:5px solid black"">","","",""
"","335","stimulus-presentation","268","387704","0.0-20.0-1.26","SS1604517448421","<img src='images/simple/12.png' width ='500' height = '500' style='border:5px solid black'>","40","mixed_complex_deviant","images/simple/17.png","images/simple/12.png","images/complex/17.png,images/complex/3.png,images/complex/10.png,images/complex/14.png,images/complex/7.png,images/complex/18.png,images/complex/13.png","2","null","","200","535","","","","background","",""
"","null","html-keyboard-response","269","388901","0.0-20.0-0.27","SS1604517448421","","null","","","","","","","","","","","","<img src=images/blank.png width =""500"" height = ""500"" style=""border:5px solid black"">","","",""
"","313","stimulus-presentation","270","389420","0.0-20.0-1.27","SS1604517448421","<img src='images/simple/12.png' width ='500' height = '500' style='border:5px solid black'>","40","mixed_complex_deviant","images/simple/17.png","images/simple/12.png","images/complex/17.png,images/complex/3.png,images/complex/10.png,images/complex/14.png,images/complex/7.png,images/complex/18.png,images/complex/13.png","2","null","","200","513","","","","background","",""
"","null","html-keyboard-response","271","390685","0.0-20.0-0.28","SS1604517448421","","null","","","","","","","","","","","","<img src=images/blank.png width =""500"" height = ""500"" style=""border:5px solid black"">","","",""
"","343","stimulus-presentation","272","391235","0.0-20.0-1.28","SS1604517448421","<img src='images/simple/12.png' width ='500' height = '500' style='border:5px solid black'>","40","mixed_complex_deviant","images/simple/17.png","images/simple/12.png","images/complex/17.png,images/complex/3.png,images/complex/10.png,images/complex/14.png,images/complex/7.png,images/complex/18.png,images/complex/13.png","2","null","","200","543","","","","background","",""
"","null","html-keyboard-response","273","392227","0.0-20.0-0.29","SS1604517448421","","null","","","","","","","","","","","","<img src=images/blank.png width =""500"" height = ""500"" style=""border:5px solid black"">","","",""
"","452","stimulus-presentation","274","392888","0.0-20.0-1.29","SS1604517448421","<img src='images/simple/12.png' width ='500' height = '500' style='border:5px solid black'>","40","mixed_complex_deviant","images/simple/17.png","images/simple/12.png","images/complex/17.png,images/complex/3.png,images/complex/10.png,images/complex/14.png,images/complex/7.png,images/complex/18.png,images/complex/13.png","2","null","","200","652","","","","background","",""
"","null","html-keyboard-response","275","394172","0.0-20.0-0.30","SS1604517448421","","null","","","","","","","","","","","","<img src=images/blank.png width =""500"" height = ""500"" style=""border:5px solid black"">","","",""
"","223","stimulus-presentation","276","394600","0.0-20.0-1.30","SS1604517448421","<img src='images/simple/12.png' width ='500' height = '500' style='border:5px solid black'>","40","mixed_complex_deviant","images/simple/17.png","images/simple/12.png","images/complex/17.png,images/complex/3.png,images/complex/10.png,images/complex/14.png,images/complex/7.png,images/complex/18.png,images/complex/13.png","2","null","","200","423","","","","background","",""
"","null","html-keyboard-response","277","395770","0.0-20.0-0.31","SS1604517448421","","null","","","","","","","","","","","","<img src=images/blank.png width =""500"" height = ""500"" style=""border:5px solid black"">","","",""
"","1190","stimulus-presentation","278","397165","0.0-20.0-1.31","SS1604517448421","<img src='images/simple/17.png' width ='500' height = '500' style='border:5px solid black'>","40","mixed_complex_deviant","images/simple/17.png","images/simple/12.png","images/complex/17.png,images/complex/3.png,images/complex/10.png,images/complex/14.png,images/complex/7.png,images/complex/18.png,images/complex/13.png","2","null","","200","1390","yes","405","","target","",""
"","null","html-keyboard-response","279","398083","0.0-20.0-0.32","SS1604517448421","","null","","","","","","","","","","","","<img src=images/blank.png width =""500"" height = ""500"" style=""border:5px solid black"">","","",""
"","451","stimulus-presentation","280","398743","0.0-20.0-1.32","SS1604517448421","<img src='images/complex/3.png' width ='500' height = '500' style='border:5px solid black'>","40","mixed_complex_deviant","images/simple/17.png","images/simple/12.png","images/complex/17.png,images/complex/3.png,images/complex/10.png,images/complex/14.png,images/complex/7.png,images/complex/18.png,images/complex/13.png","2","null","","200","651","","","","deviant","",""
"","null","html-keyboard-response","281","399742","0.0-20.0-0.33","SS1604517448421","","null","","","","","","","","","","","","<img src=images/blank.png width =""500"" height = ""500"" style=""border:5px solid black"">","","",""
"","282","stimulus-presentation","282","400230","0.0-20.0-1.33","SS1604517448421","<img src='images/simple/12.png' width ='500' height = '500' style='border:5px solid black'>","40","mixed_complex_deviant","images/simple/17.png","images/simple/12.png","images/complex/17.png,images/complex/3.png,images/complex/10.png,images/complex/14.png,images/complex/7.png,images/complex/18.png,images/complex/13.png","2","null","","200","482","","","","background","",""
"","null","html-keyboard-response","283","401234","0.0-20.0-0.34","SS1604517448421","","null","","","","","","","","","","","","<img src=images/blank.png width =""500"" height = ""500"" style=""border:5px solid black"">","","",""
"","401","stimulus-presentation","284","401839","0.0-20.0-1.34","SS1604517448421","<img src='images/complex/13.png' width ='500' height = '500' style='border:5px solid black'>","40","mixed_complex_deviant","images/simple/17.png","images/simple/12.png","images/complex/17.png,images/complex/3.png,images/complex/10.png,images/complex/14.png,images/complex/7.png,images/complex/18.png,images/complex/13.png","2","null","","200","601","","","","deviant","",""
"","null","html-keyboard-response","285","402810","0.0-20.0-0.35","SS1604517448421","","null","","","","","","","","","","","","<img src=images/blank.png width =""500"" height = ""500"" style=""border:5px solid black"">","","",""
"","3243","stimulus-presentation","286","406259","0.0-20.0-1.35","SS1604517448421","<img src='images/simple/12.png' width ='500' height = '500' style='border:5px solid black'>","40","mixed_complex_deviant","images/simple/17.png","images/simple/12.png","images/complex/17.png,images/complex/3.png,images/complex/10.png,images/complex/14.png,images/complex/7.png,images/complex/18.png,images/complex/13.png","2","null","","200","3443","","","","background","",""
"","null","html-keyboard-response","287","407237","0.0-20.0-0.36","SS1604517448421","","null","","","","","","","","","","","","<img src=images/blank.png width =""500"" height = ""500"" style=""border:5px solid black"">","","",""
"","232","stimulus-presentation","288","407675","0.0-20.0-1.36","SS1604517448421","<img src='images/simple/12.png' width ='500' height = '500' style='border:5px solid black'>","40","mixed_complex_deviant","images/simple/17.png","images/simple/12.png","images/complex/17.png,images/complex/3.png,images/complex/10.png,images/complex/14.png,images/complex/7.png,images/complex/18.png,images/complex/13.png","2","null","","200","432","","","","background","",""
"","null","html-keyboard-response","289","408734","0.0-20.0-0.37","SS1604517448421","","null","","","","","","","","","","","","<img src=images/blank.png width =""500"" height = ""500"" style=""border:5px solid black"">","","",""
"","470","stimulus-presentation","290","409411","0.0-20.0-1.37","SS1604517448421","<img src='images/complex/10.png' width ='500' height = '500' style='border:5px solid black'>","40","mixed_complex_deviant","images/simple/17.png","images/simple/12.png","images/complex/17.png,images/complex/3.png,images/complex/10.png,images/complex/14.png,images/complex/7.png,images/complex/18.png,images/complex/13.png","2","null","","200","670","","","","deviant","",""
"","null","html-keyboard-response","291","410513","0.0-20.0-0.38","SS1604517448421","","null","","","","","","","","","","","","<img src=images/blank.png width =""500"" height = ""500"" style=""border:5px solid black"">","","",""
"","284","stimulus-presentation","292","411001","0.0-20.0-1.38","SS1604517448421","<img src='images/simple/12.png' width ='500' height = '500' style='border:5px solid black'>","40","mixed_complex_deviant","images/simple/17.png","images/simple/12.png","images/complex/17.png,images/complex/3.png,images/complex/10.png,images/complex/14.png,images/complex/7.png,images/complex/18.png,images/complex/13.png","2","null","","200","484","","","","background","",""
"","null","html-keyboard-response","293","411900","0.0-20.0-0.39","SS1604517448421","","null","","","","","","","","","","","","<img src=images/blank.png width =""500"" height = ""500"" style=""border:5px solid black"">","","",""
"","259","stimulus-presentation","294","412365","0.0-20.0-1.39","SS1604517448421","<img src='images/simple/12.png' width ='500' height = '500' style='border:5px solid black'>","40","mixed_complex_deviant","images/simple/17.png","images/simple/12.png","images/complex/17.png,images/complex/3.png,images/complex/10.png,images/complex/14.png,images/complex/7.png,images/complex/18.png,images/complex/13.png","2","null","","200","459","","","","background","",""
"","null","html-keyboard-response","295","413421","0.0-20.0-0.40","SS1604517448421","","null","","","","","","","","","","","","<img src=images/blank.png width =""500"" height = ""500"" style=""border:5px solid black"">","","",""
