"view_history","rt","trial_type","trial_index","time_elapsed","internal_node_id","subject","trial_stimulus","key_press","task_type","task_target_stimulus","task_background_stimulus","task_deviant_stimuli","task_order_number","block_order_number","trial_order_number","minimum_viewing_duration","trial_looking_time","trial_pressed_space_bar","trial_space_bar_rt","stimulus","trial_stimulus_type","responses","question_order"
"[{""page_index"":0,""viewing_time"":3548.5649999991438}]","3550.31500000041","instructions","0","3571","0.0-0.0","SS1604590570956","","","","","","","","","","","","","","","","",""
"[{""page_index"":0,""viewing_time"":159939.78500000047},{""page_index"":1,""viewing_time"":26308.085000000603},{""page_index"":2,""viewing_time"":1655.6149999996414},{""page_index"":3,""viewing_time"":647.9500000005064},{""page_index"":4,""viewing_time"":41656.33499999967},{""page_index"":5,""viewing_time"":87213.3549999999},{""page_index"":6,""viewing_time"":41184.385000000475},{""page_index"":7,""viewing_time"":2854.339999999851},{""page_index"":8,""viewing_time"":1199.8899999998393}]","362660.2050000002","instructions","1","366245","0.0-1.0","SS1604590570956","","","","","","","","","","","","","","","","",""
"[{""page_index"":0,""viewing_time"":1346.7750000000233},{""page_index"":1,""viewing_time"":2687.9150000003865},{""page_index"":2,""viewing_time"":775.9499999993131}]","4810.884999998962","instructions","2","371060","0.0-2.0","SS1604590570956","","","","","","","","","","","","","","","","",""
"","13013.875000000582","practice-block","3","384295","0.0-3.0","SS1604590570956","<img src='images/practice/practice_background.jpeg' width ='500' height = '500' style='border:5px solid black'>","40","null","images/practice/practice_target.jpg","null","null","null","null","","200","13213.875000000582","yes","1734.2349999999278","","","",""
"","null","html-keyboard-response","4","385523","0.0-4.0","SS1604590570956","","null","","","","","","","","","","","","<img src=images/blank.png width =""500"" height = ""500"" style=""border:5px solid black"">","","",""
"","574.8500000008498","practice-block","5","386310","0.0-5.0","SS1604590570956","<img src='images/practice/practice_background.jpeg' width ='500' height = '500' style='border:5px solid black'>","40","null","images/practice/practice_target.jpg","null","null","null","null","","200","774.8500000008498","","","","","",""
"","null","html-keyboard-response","6","387448","0.0-6.0","SS1604590570956","","null","","","","","","","","","","","","<img src=images/blank.png width =""500"" height = ""500"" style=""border:5px solid black"">","","",""
"","343.9950000010431","practice-block","7","387997","0.0-7.0","SS1604590570956","<img src='images/practice/practice_deviant.jpeg' width ='500' height = '500' style='border:5px solid black'>","40","null","images/practice/practice_target.jpg","null","null","null","null","","200","543.9950000010431","","","","","",""
"","null","html-keyboard-response","8","388891","0.0-8.0","SS1604590570956","","null","","","","","","","","","","","","<img src=images/blank.png width =""500"" height = ""500"" style=""border:5px solid black"">","","",""
"","525.7349999992293","practice-block","9","394646","0.0-9.0-0.0","SS1604590570956","<img src='images/practice/practice_target.jpg' width ='500' height = '500' style='border:5px solid black'>","40","null","images/practice/practice_target.jpg","null","null","null","null","","200","725.7349999992293","","","","","",""
"","10991.67499999929","practice-block","10","405845","0.0-9.1-0.1","SS1604590570956","<img src='images/practice/practice_target.jpg' width ='500' height = '500' style='border:5px solid black'>","40","null","images/practice/practice_target.jpg","null","null","null","null","","200","11191.67499999929","yes","5175.754999998375","","","",""
"","null","html-keyboard-response","11","406979","0.0-10.0","SS1604590570956","","null","","","","","","","","","","","","<img src=images/blank.png width =""500"" height = ""500"" style=""border:5px solid black"">","","",""
"","1436.8549999999232","practice-block","12","408622","0.0-11.0","SS1604590570956","<img src='images/practice/practice_background.jpeg' width ='500' height = '500' style='border:5px solid black'>","40","null","images/practice/practice_target.jpg","null","null","null","null","","200","1636.8549999999232","","","","","",""
"[{""page_index"":0,""viewing_time"":2411}]","2411","task-instructions","13","411037","0.0-12.0","SS1604590570956","","","","","","","","","","","","","","","","",""
"[{""page_index"":0,""viewing_time"":877.5599999989499},{""page_index"":1,""viewing_time"":9711.955000000715},{""page_index"":2,""viewing_time"":1800.2249999990454}]","12389.99499999953","instructions","14","423429","0.0-13.0","SS1604590570956","","","","","","","","","","","","","","","","",""
"","null","html-keyboard-response","15","424369","0.0-14.0-0.0","SS1604590570956","","null","","","","","","","","","","","","<img src=images/blank.png width =""500"" height = ""500"" style=""border:5px solid black"">","","",""
"","1963.625000000291","stimulus-presentation","16","426541","0.0-14.0-1.0","SS1604590570956","<img src='images/simple/2.png' width ='500' height = '500' style='border:5px solid black'>","40","all_simple","images/simple/1.png","images/simple/2.png","images/simple/18.png,images/simple/6.png,images/simple/17.png,images/simple/12.png,images/simple/11.png,images/simple/16.png,images/simple/7.png","0","null","","200","2163.625000000291","","","","background","",""
"","null","html-keyboard-response","17","427617","0.0-14.0-0.1","SS1604590570956","","null","","","","","","","","","","","","<img src=images/blank.png width =""500"" height = ""500"" style=""border:5px solid black"">","","",""
"","283.64499999955297","stimulus-presentation","18","428109","0.0-14.0-1.1","SS1604590570956","<img src='images/simple/2.png' width ='500' height = '500' style='border:5px solid black'>","40","all_simple","images/simple/1.png","images/simple/2.png","images/simple/18.png,images/simple/6.png,images/simple/17.png,images/simple/12.png,images/simple/11.png,images/simple/16.png,images/simple/7.png","0","null","","200","483.64499999955297","","","","background","",""
"","null","html-keyboard-response","19","429063","0.0-14.0-0.2","SS1604590570956","","null","","","","","","","","","","","","<img src=images/blank.png width =""500"" height = ""500"" style=""border:5px solid black"">","","",""
"","328.2850000014296","stimulus-presentation","20","429597","0.0-14.0-1.2","SS1604590570956","<img src='images/simple/2.png' width ='500' height = '500' style='border:5px solid black'>","40","all_simple","images/simple/1.png","images/simple/2.png","images/simple/18.png,images/simple/6.png,images/simple/17.png,images/simple/12.png,images/simple/11.png,images/simple/16.png,images/simple/7.png","0","null","","200","528.2850000014296","","","","background","",""
"","null","html-keyboard-response","21","430596","0.0-14.0-0.3","SS1604590570956","","null","","","","","","","","","","","","<img src=images/blank.png width =""500"" height = ""500"" style=""border:5px solid black"">","","",""
"","5859.639999998792","stimulus-presentation","22","436661","0.0-14.0-1.3","SS1604590570956","<img src='images/simple/1.png' width ='500' height = '500' style='border:5px solid black'>","40","all_simple","images/simple/1.png","images/simple/2.png","images/simple/18.png,images/simple/6.png,images/simple/17.png,images/simple/12.png,images/simple/11.png,images/simple/16.png,images/simple/7.png","0","null","","200","6059.639999998792","yes","412.64500000030966","","target","",""
"","null","html-keyboard-response","23","437876","0.0-14.0-0.4","SS1604590570956","","null","","","","","","","","","","","","<img src=images/blank.png width =""500"" height = ""500"" style=""border:5px solid black"">","","",""
"","521.4550000000745","stimulus-presentation","24","438605","0.0-14.0-1.4","SS1604590570956","<img src='images/simple/2.png' width ='500' height = '500' style='border:5px solid black'>","40","all_simple","images/simple/1.png","images/simple/2.png","images/simple/18.png,images/simple/6.png,images/simple/17.png,images/simple/12.png,images/simple/11.png,images/simple/16.png,images/simple/7.png","0","null","","200","721.4550000000745","","","","background","",""
"","null","html-keyboard-response","25","439696","0.0-14.0-0.5","SS1604590570956","","null","","","","","","","","","","","","<img src=images/blank.png width =""500"" height = ""500"" style=""border:5px solid black"">","","",""
"","246.77999999950407","stimulus-presentation","26","440148","0.0-14.0-1.5","SS1604590570956","<img src='images/simple/2.png' width ='500' height = '500' style='border:5px solid black'>","40","all_simple","images/simple/1.png","images/simple/2.png","images/simple/18.png,images/simple/6.png,images/simple/17.png,images/simple/12.png,images/simple/11.png,images/simple/16.png,images/simple/7.png","0","null","","200","446.77999999950407","","","","background","",""
"","null","html-keyboard-response","27","441072","0.0-14.0-0.6","SS1604590570956","","null","","","","","","","","","","","","<img src=images/blank.png width =""500"" height = ""500"" style=""border:5px solid black"">","","",""
"","185.26999999996042","stimulus-presentation","28","441462","0.0-14.0-1.6","SS1604590570956","<img src='images/simple/2.png' width ='500' height = '500' style='border:5px solid black'>","40","all_simple","images/simple/1.png","images/simple/2.png","images/simple/18.png,images/simple/6.png,images/simple/17.png,images/simple/12.png,images/simple/11.png,images/simple/16.png,images/simple/7.png","0","null","","200","385.2699999999604","","","","background","",""
"","null","html-keyboard-response","29","442626","0.0-14.0-0.7","SS1604590570956","","null","","","","","","","","","","","","<img src=images/blank.png width =""500"" height = ""500"" style=""border:5px solid black"">","","",""
"","606.1600000011967","stimulus-presentation","30","443438","0.0-14.0-1.7","SS1604590570956","<img src='images/simple/6.png' width ='500' height = '500' style='border:5px solid black'>","40","all_simple","images/simple/1.png","images/simple/2.png","images/simple/18.png,images/simple/6.png,images/simple/17.png,images/simple/12.png,images/simple/11.png,images/simple/16.png,images/simple/7.png","0","null","","200","806.1600000011967","","","","deviant","",""
"","null","html-keyboard-response","31","444317","0.0-14.0-0.8","SS1604590570956","","null","","","","","","","","","","","","<img src=images/blank.png width =""500"" height = ""500"" style=""border:5px solid black"">","","",""
"","162.9249999987078","stimulus-presentation","32","444685","0.0-14.0-1.8","SS1604590570956","<img src='images/simple/2.png' width ='500' height = '500' style='border:5px solid black'>","40","all_simple","images/simple/1.png","images/simple/2.png","images/simple/18.png,images/simple/6.png,images/simple/17.png,images/simple/12.png,images/simple/11.png,images/simple/16.png,images/simple/7.png","0","null","","200","362.9249999987078","","","","background","",""
"","null","html-keyboard-response","33","445714","0.0-14.0-0.9","SS1604590570956","","null","","","","","","","","","","","","<img src=images/blank.png width =""500"" height = ""500"" style=""border:5px solid black"">","","",""
"","159.47500000038417","stimulus-presentation","34","446077","0.0-14.0-1.9","SS1604590570956","<img src='images/simple/2.png' width ='500' height = '500' style='border:5px solid black'>","40","all_simple","images/simple/1.png","images/simple/2.png","images/simple/18.png,images/simple/6.png,images/simple/17.png,images/simple/12.png,images/simple/11.png,images/simple/16.png,images/simple/7.png","0","null","","200","359.47500000038417","","","","background","",""
"","null","html-keyboard-response","35","446942","0.0-14.0-0.10","SS1604590570956","","null","","","","","","","","","","","","<img src=images/blank.png width =""500"" height = ""500"" style=""border:5px solid black"">","","",""
"","162.7449999995879","stimulus-presentation","36","447309","0.0-14.0-1.10","SS1604590570956","<img src='images/simple/2.png' width ='500' height = '500' style='border:5px solid black'>","40","all_simple","images/simple/1.png","images/simple/2.png","images/simple/18.png,images/simple/6.png,images/simple/17.png,images/simple/12.png,images/simple/11.png,images/simple/16.png,images/simple/7.png","0","null","","200","362.7449999995879","","","","background","",""
"","null","html-keyboard-response","37","448233","0.0-14.0-0.11","SS1604590570956","","null","","","","","","","","","","","","<img src=images/blank.png width =""500"" height = ""500"" style=""border:5px solid black"">","","",""
"","479.2300000008545","stimulus-presentation","38","448917","0.0-14.0-1.11","SS1604590570956","<img src='images/simple/16.png' width ='500' height = '500' style='border:5px solid black'>","40","all_simple","images/simple/1.png","images/simple/2.png","images/simple/18.png,images/simple/6.png,images/simple/17.png,images/simple/12.png,images/simple/11.png,images/simple/16.png,images/simple/7.png","0","null","","200","679.2300000008545","","","","deviant","",""
"","null","html-keyboard-response","39","450147","0.0-14.0-0.12","SS1604590570956","","null","","","","","","","","","","","","<img src=images/blank.png width =""500"" height = ""500"" style=""border:5px solid black"">","","",""
"","235.64000000077067","stimulus-presentation","40","450590","0.0-14.0-1.12","SS1604590570956","<img src='images/simple/2.png' width ='500' height = '500' style='border:5px solid black'>","40","all_simple","images/simple/1.png","images/simple/2.png","images/simple/18.png,images/simple/6.png,images/simple/17.png,images/simple/12.png,images/simple/11.png,images/simple/16.png,images/simple/7.png","0","null","","200","435.64000000077067","","","","background","",""
"","null","html-keyboard-response","41","451839","0.0-14.0-0.13","SS1604590570956","","null","","","","","","","","","","","","<img src=images/blank.png width =""500"" height = ""500"" style=""border:5px solid black"">","","",""
"","1369.6099999997532","stimulus-presentation","42","453413","0.0-14.0-1.13","SS1604590570956","<img src='images/simple/1.png' width ='500' height = '500' style='border:5px solid black'>","40","all_simple","images/simple/1.png","images/simple/2.png","images/simple/18.png,images/simple/6.png,images/simple/17.png,images/simple/12.png,images/simple/11.png,images/simple/16.png,images/simple/7.png","0","null","","200","1569.6099999997532","yes","402.5650000003516","","target","",""
"","null","html-keyboard-response","43","454313","0.0-14.0-0.14","SS1604590570956","","null","","","","","","","","","","","","<img src=images/blank.png width =""500"" height = ""500"" style=""border:5px solid black"">","","",""
"","191.25499999971362","stimulus-presentation","44","454717","0.0-14.0-1.14","SS1604590570956","<img src='images/simple/2.png' width ='500' height = '500' style='border:5px solid black'>","40","all_simple","images/simple/1.png","images/simple/2.png","images/simple/18.png,images/simple/6.png,images/simple/17.png,images/simple/12.png,images/simple/11.png,images/simple/16.png,images/simple/7.png","0","null","","200","391.2549999997136","","","","background","",""
"","null","html-keyboard-response","45","455772","0.0-14.0-0.15","SS1604590570956","","null","","","","","","","","","","","","<img src=images/blank.png width =""500"" height = ""500"" style=""border:5px solid black"">","","",""
"","225.07500000024447","stimulus-presentation","46","456205","0.0-14.0-1.15","SS1604590570956","<img src='images/simple/2.png' width ='500' height = '500' style='border:5px solid black'>","40","all_simple","images/simple/1.png","images/simple/2.png","images/simple/18.png,images/simple/6.png,images/simple/17.png,images/simple/12.png,images/simple/11.png,images/simple/16.png,images/simple/7.png","0","null","","200","425.0750000002445","","","","background","",""
"","null","html-keyboard-response","47","457067","0.0-14.0-0.16","SS1604590570956","","null","","","","","","","","","","","","<img src=images/blank.png width =""500"" height = ""500"" style=""border:5px solid black"">","","",""
"","179.4450000015786","stimulus-presentation","48","457453","0.0-14.0-1.16","SS1604590570956","<img src='images/simple/12.png' width ='500' height = '500' style='border:5px solid black'>","40","all_simple","images/simple/1.png","images/simple/2.png","images/simple/18.png,images/simple/6.png,images/simple/17.png,images/simple/12.png,images/simple/11.png,images/simple/16.png,images/simple/7.png","0","null","","200","379.4450000015786","","","","deviant","",""
"","null","html-keyboard-response","49","458699","0.0-14.0-0.17","SS1604590570956","","null","","","","","","","","","","","","<img src=images/blank.png width =""500"" height = ""500"" style=""border:5px solid black"">","","",""
"","336.9649999986286","stimulus-presentation","50","459244","0.0-14.0-1.17","SS1604590570956","<img src='images/simple/2.png' width ='500' height = '500' style='border:5px solid black'>","40","all_simple","images/simple/1.png","images/simple/2.png","images/simple/18.png,images/simple/6.png,images/simple/17.png,images/simple/12.png,images/simple/11.png,images/simple/16.png,images/simple/7.png","0","null","","200","536.9649999986286","","","","background","",""
"","null","html-keyboard-response","51","460308","0.0-14.0-0.18","SS1604590570956","","null","","","","","","","","","","","","<img src=images/blank.png width =""500"" height = ""500"" style=""border:5px solid black"">","","",""
"","1051.2500000004657","stimulus-presentation","52","461573","0.0-14.0-1.18","SS1604590570956","<img src='images/simple/2.png' width ='500' height = '500' style='border:5px solid black'>","40","all_simple","images/simple/1.png","images/simple/2.png","images/simple/18.png,images/simple/6.png,images/simple/17.png,images/simple/12.png,images/simple/11.png,images/simple/16.png,images/simple/7.png","0","null","","200","1251.2500000004657","","","","background","",""
"","null","html-keyboard-response","53","462515","0.0-14.0-0.19","SS1604590570956","","null","","","","","","","","","","","","<img src=images/blank.png width =""500"" height = ""500"" style=""border:5px solid black"">","","",""
"","157.2599999999511","stimulus-presentation","54","462878","0.0-14.0-1.19","SS1604590570956","<img src='images/simple/2.png' width ='500' height = '500' style='border:5px solid black'>","40","all_simple","images/simple/1.png","images/simple/2.png","images/simple/18.png,images/simple/6.png,images/simple/17.png,images/simple/12.png,images/simple/11.png,images/simple/16.png,images/simple/7.png","0","null","","200","357.2599999999511","","","","background","",""
"","null","html-keyboard-response","55","463757","0.0-14.0-0.20","SS1604590570956","","null","","","","","","","","","","","","<img src=images/blank.png width =""500"" height = ""500"" style=""border:5px solid black"">","","",""
"","501.21500000020023","stimulus-presentation","56","464485","0.0-14.0-1.20","SS1604590570956","<img src='images/simple/7.png' width ='500' height = '500' style='border:5px solid black'>","40","all_simple","images/simple/1.png","images/simple/2.png","images/simple/18.png,images/simple/6.png,images/simple/17.png,images/simple/12.png,images/simple/11.png,images/simple/16.png,images/simple/7.png","0","null","","200","701.2150000002002","","","","deviant","",""
"","null","html-keyboard-response","57","465523","0.0-14.0-0.21","SS1604590570956","","null","","","","","","","","","","","","<img src=images/blank.png width =""500"" height = ""500"" style=""border:5px solid black"">","","",""
"","523.1100000000442","stimulus-presentation","58","466261","0.0-14.0-1.21","SS1604590570956","<img src='images/simple/2.png' width ='500' height = '500' style='border:5px solid black'>","40","all_simple","images/simple/1.png","images/simple/2.png","images/simple/18.png,images/simple/6.png,images/simple/17.png,images/simple/12.png,images/simple/11.png,images/simple/16.png,images/simple/7.png","0","null","","200","723.1100000000442","","","","background","",""
"","null","html-keyboard-response","59","467419","0.0-14.0-0.22","SS1604590570956","","null","","","","","","","","","","","","<img src=images/blank.png width =""500"" height = ""500"" style=""border:5px solid black"">","","",""
"","156.93499999900814","stimulus-presentation","60","467797","0.0-14.0-1.22","SS1604590570956","<img src='images/simple/2.png' width ='500' height = '500' style='border:5px solid black'>","40","all_simple","images/simple/1.png","images/simple/2.png","images/simple/18.png,images/simple/6.png,images/simple/17.png,images/simple/12.png,images/simple/11.png,images/simple/16.png,images/simple/7.png","0","null","","200","356.93499999900814","","","","background","",""
"","null","html-keyboard-response","61","468786","0.0-14.0-0.23","SS1604590570956","","null","","","","","","","","","","","","<img src=images/blank.png width =""500"" height = ""500"" style=""border:5px solid black"">","","",""
"","133.8949999990873","stimulus-presentation","62","469140","0.0-14.0-1.23","SS1604590570956","<img src='images/simple/2.png' width ='500' height = '500' style='border:5px solid black'>","40","all_simple","images/simple/1.png","images/simple/2.png","images/simple/18.png,images/simple/6.png,images/simple/17.png,images/simple/12.png,images/simple/11.png,images/simple/16.png,images/simple/7.png","0","null","","200","333.8949999990873","","","","background","",""
"","null","html-keyboard-response","63","470348","0.0-14.0-0.24","SS1604590570956","","null","","","","","","","","","","","","<img src=images/blank.png width =""500"" height = ""500"" style=""border:5px solid black"">","","",""
"","137.09500000003027","stimulus-presentation","64","470693","0.0-14.0-1.24","SS1604590570956","<img src='images/simple/2.png' width ='500' height = '500' style='border:5px solid black'>","40","all_simple","images/simple/1.png","images/simple/2.png","images/simple/18.png,images/simple/6.png,images/simple/17.png,images/simple/12.png,images/simple/11.png,images/simple/16.png,images/simple/7.png","0","null","","200","337.09500000003027","","","","background","",""
"","null","html-keyboard-response","65","471734","0.0-14.0-0.25","SS1604590570956","","null","","","","","","","","","","","","<img src=images/blank.png width =""500"" height = ""500"" style=""border:5px solid black"">","","",""
"","127.45500000164611","stimulus-presentation","66","472077","0.0-14.0-1.25","SS1604590570956","<img src='images/simple/2.png' width ='500' height = '500' style='border:5px solid black'>","40","all_simple","images/simple/1.png","images/simple/2.png","images/simple/18.png,images/simple/6.png,images/simple/17.png,images/simple/12.png,images/simple/11.png,images/simple/16.png,images/simple/7.png","0","null","","200","327.4550000016461","","","","background","",""
"","null","html-keyboard-response","67","473334","0.0-14.0-0.26","SS1604590570956","","null","","","","","","","","","","","","<img src=images/blank.png width =""500"" height = ""500"" style=""border:5px solid black"">","","",""
"","679.9799999989918","stimulus-presentation","68","474237","0.0-14.0-1.26","SS1604590570956","<img src='images/simple/11.png' width ='500' height = '500' style='border:5px solid black'>","40","all_simple","images/simple/1.png","images/simple/2.png","images/simple/18.png,images/simple/6.png,images/simple/17.png,images/simple/12.png,images/simple/11.png,images/simple/16.png,images/simple/7.png","0","null","","200","879.9799999989918","","","","deviant","",""
"","null","html-keyboard-response","69","475511","0.0-14.0-0.27","SS1604590570956","","null","","","","","","","","","","","","<img src=images/blank.png width =""500"" height = ""500"" style=""border:5px solid black"">","","",""
"","218.60000000015134","stimulus-presentation","70","475941","0.0-14.0-1.27","SS1604590570956","<img src='images/simple/2.png' width ='500' height = '500' style='border:5px solid black'>","40","all_simple","images/simple/1.png","images/simple/2.png","images/simple/18.png,images/simple/6.png,images/simple/17.png,images/simple/12.png,images/simple/11.png,images/simple/16.png,images/simple/7.png","0","null","","200","418.60000000015134","","","","background","",""
"","null","html-keyboard-response","71","477132","0.0-14.0-0.28","SS1604590570956","","null","","","","","","","","","","","","<img src=images/blank.png width =""500"" height = ""500"" style=""border:5px solid black"">","","",""
"","278.6950000008801","stimulus-presentation","72","477621","0.0-14.0-1.28","SS1604590570956","<img src='images/simple/2.png' width ='500' height = '500' style='border:5px solid black'>","40","all_simple","images/simple/1.png","images/simple/2.png","images/simple/18.png,images/simple/6.png,images/simple/17.png,images/simple/12.png,images/simple/11.png,images/simple/16.png,images/simple/7.png","0","null","","200","478.6950000008801","","","","background","",""
"","null","html-keyboard-response","73","478856","0.0-14.0-0.29","SS1604590570956","","null","","","","","","","","","","","","<img src=images/blank.png width =""500"" height = ""500"" style=""border:5px solid black"">","","",""
"","206.78500000032363","stimulus-presentation","74","479277","0.0-14.0-1.29","SS1604590570956","<img src='images/simple/2.png' width ='500' height = '500' style='border:5px solid black'>","40","all_simple","images/simple/1.png","images/simple/2.png","images/simple/18.png,images/simple/6.png,images/simple/17.png,images/simple/12.png,images/simple/11.png,images/simple/16.png,images/simple/7.png","0","null","","200","406.78500000032363","","","","background","",""
"","null","html-keyboard-response","75","480517","0.0-14.0-0.30","SS1604590570956","","null","","","","","","","","","","","","<img src=images/blank.png width =""500"" height = ""500"" style=""border:5px solid black"">","","",""
"","190.8249999996624","stimulus-presentation","76","480919","0.0-14.0-1.30","SS1604590570956","<img src='images/simple/2.png' width ='500' height = '500' style='border:5px solid black'>","40","all_simple","images/simple/1.png","images/simple/2.png","images/simple/18.png,images/simple/6.png,images/simple/17.png,images/simple/12.png,images/simple/11.png,images/simple/16.png,images/simple/7.png","0","null","","200","390.8249999996624","","","","background","",""
"","null","html-keyboard-response","77","481778","0.0-14.0-0.31","SS1604590570956","","null","","","","","","","","","","","","<img src=images/blank.png width =""500"" height = ""500"" style=""border:5px solid black"">","","",""
"","521.155000000319","stimulus-presentation","78","482508","0.0-14.0-1.31","SS1604590570956","<img src='images/simple/2.png' width ='500' height = '500' style='border:5px solid black'>","40","all_simple","images/simple/1.png","images/simple/2.png","images/simple/18.png,images/simple/6.png,images/simple/17.png,images/simple/12.png,images/simple/11.png,images/simple/16.png,images/simple/7.png","0","null","","200","721.155000000319","","","","background","",""
"","null","html-keyboard-response","79","483329","0.0-14.0-0.32","SS1604590570956","","null","","","","","","","","","","","","<img src=images/blank.png width =""500"" height = ""500"" style=""border:5px solid black"">","","",""
"","1747.2749999997322","stimulus-presentation","80","485280","0.0-14.0-1.32","SS1604590570956","<img src='images/simple/2.png' width ='500' height = '500' style='border:5px solid black'>","40","all_simple","images/simple/1.png","images/simple/2.png","images/simple/18.png,images/simple/6.png,images/simple/17.png,images/simple/12.png,images/simple/11.png,images/simple/16.png,images/simple/7.png","0","null","","200","1947.2749999997322","","","","background","",""
"","null","html-keyboard-response","81","486368","0.0-14.0-0.33","SS1604590570956","","null","","","","","","","","","","","","<img src=images/blank.png width =""500"" height = ""500"" style=""border:5px solid black"">","","",""
"","415.46999999991385","stimulus-presentation","82","486989","0.0-14.0-1.33","SS1604590570956","<img src='images/simple/18.png' width ='500' height = '500' style='border:5px solid black'>","40","all_simple","images/simple/1.png","images/simple/2.png","images/simple/18.png,images/simple/6.png,images/simple/17.png,images/simple/12.png,images/simple/11.png,images/simple/16.png,images/simple/7.png","0","null","","200","615.4699999999139","","","","deviant","",""
"","null","html-keyboard-response","83","487967","0.0-14.0-0.34","SS1604590570956","","null","","","","","","","","","","","","<img src=images/blank.png width =""500"" height = ""500"" style=""border:5px solid black"">","","",""
"","320.66000000125496","stimulus-presentation","84","488508","0.0-14.0-1.34","SS1604590570956","<img src='images/simple/2.png' width ='500' height = '500' style='border:5px solid black'>","40","all_simple","images/simple/1.png","images/simple/2.png","images/simple/18.png,images/simple/6.png,images/simple/17.png,images/simple/12.png,images/simple/11.png,images/simple/16.png,images/simple/7.png","0","null","","200","520.660000001255","","","","background","",""
"","null","html-keyboard-response","85","489516","0.0-14.0-0.35","SS1604590570956","","null","","","","","","","","","","","","<img src=images/blank.png width =""500"" height = ""500"" style=""border:5px solid black"">","","",""
"","1313.9549999996088","stimulus-presentation","86","491052","0.0-14.0-1.35","SS1604590570956","<img src='images/simple/2.png' width ='500' height = '500' style='border:5px solid black'>","40","all_simple","images/simple/1.png","images/simple/2.png","images/simple/18.png,images/simple/6.png,images/simple/17.png,images/simple/12.png,images/simple/11.png,images/simple/16.png,images/simple/7.png","0","null","","200","1513.9549999996088","","","","background","",""
"","null","html-keyboard-response","87","492096","0.0-14.0-0.36","SS1604590570956","","null","","","","","","","","","","","","<img src=images/blank.png width =""500"" height = ""500"" style=""border:5px solid black"">","","",""
"","660.5799999997253","stimulus-presentation","88","492964","0.0-14.0-1.36","SS1604590570956","<img src='images/simple/2.png' width ='500' height = '500' style='border:5px solid black'>","40","all_simple","images/simple/1.png","images/simple/2.png","images/simple/18.png,images/simple/6.png,images/simple/17.png,images/simple/12.png,images/simple/11.png,images/simple/16.png,images/simple/7.png","0","null","","200","860.5799999997253","","","","background","",""
"","null","html-keyboard-response","89","494007","0.0-14.0-0.37","SS1604590570956","","null","","","","","","","","","","","","<img src=images/blank.png width =""500"" height = ""500"" style=""border:5px solid black"">","","",""
"","2213.710000000021","stimulus-presentation","90","496436","0.0-14.0-1.37","SS1604590570956","<img src='images/simple/1.png' width ='500' height = '500' style='border:5px solid black'>","40","all_simple","images/simple/1.png","images/simple/2.png","images/simple/18.png,images/simple/6.png,images/simple/17.png,images/simple/12.png,images/simple/11.png,images/simple/16.png,images/simple/7.png","0","null","","200","2413.710000000021","yes","421.3799999997718","","target","",""
"","null","html-keyboard-response","91","497415","0.0-14.0-0.38","SS1604590570956","","null","","","","","","","","","","","","<img src=images/blank.png width =""500"" height = ""500"" style=""border:5px solid black"">","","",""
"","743.2750000007218","stimulus-presentation","92","498364","0.0-14.0-1.38","SS1604590570956","<img src='images/simple/1.png' width ='500' height = '500' style='border:5px solid black'>","40","all_simple","images/simple/1.png","images/simple/2.png","images/simple/18.png,images/simple/6.png,images/simple/17.png,images/simple/12.png,images/simple/11.png,images/simple/16.png,images/simple/7.png","0","null","","200","943.2750000007218","","","","target","",""
"","null","html-keyboard-response","93","499628","0.0-14.0-0.39","SS1604590570956","","null","","","","","","","","","","","","<img src=images/blank.png width =""500"" height = ""500"" style=""border:5px solid black"">","","",""
"","145.92500000068685","stimulus-presentation","94","499980","0.0-14.0-1.39","SS1604590570956","<img src='images/simple/2.png' width ='500' height = '500' style='border:5px solid black'>","40","all_simple","images/simple/1.png","images/simple/2.png","images/simple/18.png,images/simple/6.png,images/simple/17.png,images/simple/12.png,images/simple/11.png,images/simple/16.png,images/simple/7.png","0","null","","200","345.92500000068685","","","","background","",""
"","null","html-keyboard-response","95","501195","0.0-14.0-0.40","SS1604590570956","","null","","","","","","","","","","","","<img src=images/blank.png width =""500"" height = ""500"" style=""border:5px solid black"">","","",""
"","216.38499999971827","stimulus-presentation","96","501613","0.0-14.0-1.40","SS1604590570956","<img src='images/simple/2.png' width ='500' height = '500' style='border:5px solid black'>","40","all_simple","images/simple/1.png","images/simple/2.png","images/simple/18.png,images/simple/6.png,images/simple/17.png,images/simple/12.png,images/simple/11.png,images/simple/16.png,images/simple/7.png","0","null","","200","416.3849999997183","","","","background","",""
"","null","html-keyboard-response","97","502803","0.0-14.0-0.41","SS1604590570956","","null","","","","","","","","","","","","<img src=images/blank.png width =""500"" height = ""500"" style=""border:5px solid black"">","","",""
"","238.16500000067754","stimulus-presentation","98","503253","0.0-14.0-1.41","SS1604590570956","<img src='images/simple/1.png' width ='500' height = '500' style='border:5px solid black'>","40","all_simple","images/simple/1.png","images/simple/2.png","images/simple/18.png,images/simple/6.png,images/simple/17.png,images/simple/12.png,images/simple/11.png,images/simple/16.png,images/simple/7.png","0","null","","200","438.16500000067754","","","","target","",""
"","null","html-keyboard-response","99","504118","0.0-14.0-0.42","SS1604590570956","","null","","","","","","","","","","","","<img src=images/blank.png width =""500"" height = ""500"" style=""border:5px solid black"">","","",""
"","279.9249999988824","stimulus-presentation","100","504612","0.0-14.0-1.42","SS1604590570956","<img src='images/simple/17.png' width ='500' height = '500' style='border:5px solid black'>","40","all_simple","images/simple/1.png","images/simple/2.png","images/simple/18.png,images/simple/6.png,images/simple/17.png,images/simple/12.png,images/simple/11.png,images/simple/16.png,images/simple/7.png","0","null","","200","479.9249999988824","","","","deviant","",""
"","null","html-keyboard-response","101","505735","0.0-14.0-0.43","SS1604590570956","","null","","","","","","","","","","","","<img src=images/blank.png width =""500"" height = ""500"" style=""border:5px solid black"">","","",""
"","420.5699999984354","stimulus-presentation","102","506365","0.0-14.0-1.43","SS1604590570956","<img src='images/simple/2.png' width ='500' height = '500' style='border:5px solid black'>","40","all_simple","images/simple/1.png","images/simple/2.png","images/simple/18.png,images/simple/6.png,images/simple/17.png,images/simple/12.png,images/simple/11.png,images/simple/16.png,images/simple/7.png","0","null","","200","620.5699999984354","","","","background","",""
"","null","html-keyboard-response","103","507373","0.0-14.0-0.44","SS1604590570956","","null","","","","","","","","","","","","<img src=images/blank.png width =""500"" height = ""500"" style=""border:5px solid black"">","","",""
"","517.8999999989173","stimulus-presentation","104","508108","0.0-14.0-1.44","SS1604590570956","<img src='images/simple/2.png' width ='500' height = '500' style='border:5px solid black'>","40","all_simple","images/simple/1.png","images/simple/2.png","images/simple/18.png,images/simple/6.png,images/simple/17.png,images/simple/12.png,images/simple/11.png,images/simple/16.png,images/simple/7.png","0","null","","200","717.8999999989173","","","","background","",""
"","null","html-keyboard-response","105","509124","0.0-14.0-0.45","SS1604590570956","","null","","","","","","","","","","","","<img src=images/blank.png width =""500"" height = ""500"" style=""border:5px solid black"">","","",""
"","35.0749999997206","stimulus-presentation","106","509372","0.0-14.0-1.45","SS1604590570956","<img src='images/simple/2.png' width ='500' height = '500' style='border:5px solid black'>","40","all_simple","images/simple/1.png","images/simple/2.png","images/simple/18.png,images/simple/6.png,images/simple/17.png,images/simple/12.png,images/simple/11.png,images/simple/16.png,images/simple/7.png","0","null","","200","235.0749999997206","","","","background","",""
"","null","html-keyboard-response","107","510605","0.0-14.0-0.46","SS1604590570956","","null","","","","","","","","","","","","<img src=images/blank.png width =""500"" height = ""500"" style=""border:5px solid black"">","","",""
"","422.20000000088476","stimulus-presentation","108","511236","0.0-14.0-1.46","SS1604590570956","<img src='images/simple/2.png' width ='500' height = '500' style='border:5px solid black'>","40","all_simple","images/simple/1.png","images/simple/2.png","images/simple/18.png,images/simple/6.png,images/simple/17.png,images/simple/12.png,images/simple/11.png,images/simple/16.png,images/simple/7.png","0","null","","200","622.2000000008848","","","","background","",""
"","null","html-keyboard-response","109","512070","0.0-14.0-0.47","SS1604590570956","","null","","","","","","","","","","","","<img src=images/blank.png width =""500"" height = ""500"" style=""border:5px solid black"">","","",""
"","126.79500000015832","stimulus-presentation","110","512404","0.0-14.0-1.47","SS1604590570956","<img src='images/simple/1.png' width ='500' height = '500' style='border:5px solid black'>","40","all_simple","images/simple/1.png","images/simple/2.png","images/simple/18.png,images/simple/6.png,images/simple/17.png,images/simple/12.png,images/simple/11.png,images/simple/16.png,images/simple/7.png","0","null","","200","326.7950000001583","","","","target","",""
"","null","html-keyboard-response","111","513262","0.0-14.0-0.48","SS1604590570956","","null","","","","","","","","","","","","<img src=images/blank.png width =""500"" height = ""500"" style=""border:5px solid black"">","","",""
"","19.83499999914784","stimulus-presentation","112","513492","0.0-14.0-1.48","SS1604590570956","<img src='images/simple/1.png' width ='500' height = '500' style='border:5px solid black'>","40","all_simple","images/simple/1.png","images/simple/2.png","images/simple/18.png,images/simple/6.png,images/simple/17.png,images/simple/12.png,images/simple/11.png,images/simple/16.png,images/simple/7.png","0","null","","200","219.83499999914784","","","","target","",""
"[{""page_index"":0,""viewing_time"":2797}]","2798","task-instructions","113","516293","0.0-15.0","SS1604590570956","","","","","","","","","","","","","","","","",""
"[{""page_index"":0,""viewing_time"":721.0149999990826},{""page_index"":1,""viewing_time"":5207.819999999716},{""page_index"":2,""viewing_time"":832.1300000007031}]","6761.179999999469","instructions","114","523060","0.0-16.0","SS1604590570956","","","","","","","","","","","","","","","","",""
"","null","html-keyboard-response","115","523884","0.0-17.0-0.0","SS1604590570956","","null","","","","","","","","","","","","<img src=images/blank.png width =""500"" height = ""500"" style=""border:5px solid black"">","","",""
"","969.9700000000885","stimulus-presentation","116","525069","0.0-17.0-1.0","SS1604590570956","<img src='images/complex/4.png' width ='500' height = '500' style='border:5px solid black'>","40","mixed_complex_deviant","images/simple/13.png","images/simple/10.png","images/complex/15.png,images/complex/13.png,images/complex/8.png,images/complex/3.png,images/complex/12.png,images/complex/14.png,images/complex/4.png","1","null","","200","1169.9700000000885","","","","deviant","",""
"","null","html-keyboard-response","117","526244","0.0-17.0-0.1","SS1604590570956","","null","","","","","","","","","","","","<img src=images/blank.png width =""500"" height = ""500"" style=""border:5px solid black"">","","",""
"","1797.345000000787","stimulus-presentation","118","528252","0.0-17.0-1.1","SS1604590570956","<img src='images/simple/13.png' width ='500' height = '500' style='border:5px solid black'>","40","mixed_complex_deviant","images/simple/13.png","images/simple/10.png","images/complex/15.png,images/complex/13.png,images/complex/8.png,images/complex/3.png,images/complex/12.png,images/complex/14.png,images/complex/4.png","1","null","","200","1997.345000000787","yes","669.7249999997439","","target","",""
"","null","html-keyboard-response","119","529366","0.0-17.0-0.2","SS1604590570956","","null","","","","","","","","","","","","<img src=images/blank.png width =""500"" height = ""500"" style=""border:5px solid black"">","","",""
"","217.28499999886844","stimulus-presentation","120","529795","0.0-17.0-1.2","SS1604590570956","<img src='images/simple/10.png' width ='500' height = '500' style='border:5px solid black'>","40","mixed_complex_deviant","images/simple/13.png","images/simple/10.png","images/complex/15.png,images/complex/13.png,images/complex/8.png,images/complex/3.png,images/complex/12.png,images/complex/14.png,images/complex/4.png","1","null","","200","417.28499999886844","","","","background","",""
"","null","html-keyboard-response","121","530950","0.0-17.0-0.3","SS1604590570956","","null","","","","","","","","","","","","<img src=images/blank.png width =""500"" height = ""500"" style=""border:5px solid black"">","","",""
"","1365.545000000624","stimulus-presentation","122","532524","0.0-17.0-1.3","SS1604590570956","<img src='images/simple/10.png' width ='500' height = '500' style='border:5px solid black'>","40","mixed_complex_deviant","images/simple/13.png","images/simple/10.png","images/complex/15.png,images/complex/13.png,images/complex/8.png,images/complex/3.png,images/complex/12.png,images/complex/14.png,images/complex/4.png","1","null","","200","1565.545000000624","","","","background","",""
"","null","html-keyboard-response","123","533597","0.0-17.0-0.4","SS1604590570956","","null","","","","","","","","","","","","<img src=images/blank.png width =""500"" height = ""500"" style=""border:5px solid black"">","","",""
"","331.4950000003446","stimulus-presentation","124","534142","0.0-17.0-1.4","SS1604590570956","<img src='images/simple/10.png' width ='500' height = '500' style='border:5px solid black'>","40","mixed_complex_deviant","images/simple/13.png","images/simple/10.png","images/complex/15.png,images/complex/13.png,images/complex/8.png,images/complex/3.png,images/complex/12.png,images/complex/14.png,images/complex/4.png","1","null","","200","531.4950000003446","","","","background","",""
"","null","html-keyboard-response","125","535210","0.0-17.0-0.5","SS1604590570956","","null","","","","","","","","","","","","<img src=images/blank.png width =""500"" height = ""500"" style=""border:5px solid black"">","","",""
"","157.07999999902677","stimulus-presentation","126","535579","0.0-17.0-1.5","SS1604590570956","<img src='images/simple/10.png' width ='500' height = '500' style='border:5px solid black'>","40","mixed_complex_deviant","images/simple/13.png","images/simple/10.png","images/complex/15.png,images/complex/13.png,images/complex/8.png,images/complex/3.png,images/complex/12.png,images/complex/14.png,images/complex/4.png","1","null","","200","357.07999999902677","","","","background","",""
"","null","html-keyboard-response","127","536406","0.0-17.0-0.6","SS1604590570956","","null","","","","","","","","","","","","<img src=images/blank.png width =""500"" height = ""500"" style=""border:5px solid black"">","","",""
"","345.9700000003213","stimulus-presentation","128","536972","0.0-17.0-1.6","SS1604590570956","<img src='images/complex/15.png' width ='500' height = '500' style='border:5px solid black'>","40","mixed_complex_deviant","images/simple/13.png","images/simple/10.png","images/complex/15.png,images/complex/13.png,images/complex/8.png,images/complex/3.png,images/complex/12.png,images/complex/14.png,images/complex/4.png","1","null","","200","545.9700000003213","","","","deviant","",""
"","null","html-keyboard-response","129","537901","0.0-17.0-0.7","SS1604590570956","","null","","","","","","","","","","","","<img src=images/blank.png width =""500"" height = ""500"" style=""border:5px solid black"">","","",""
"","443.82499999844003","stimulus-presentation","130","538556","0.0-17.0-1.7","SS1604590570956","<img src='images/simple/10.png' width ='500' height = '500' style='border:5px solid black'>","40","mixed_complex_deviant","images/simple/13.png","images/simple/10.png","images/complex/15.png,images/complex/13.png,images/complex/8.png,images/complex/3.png,images/complex/12.png,images/complex/14.png,images/complex/4.png","1","null","","200","643.82499999844","","","","background","",""
"","null","html-keyboard-response","131","539445","0.0-17.0-0.8","SS1604590570956","","null","","","","","","","","","","","","<img src=images/blank.png width =""500"" height = ""500"" style=""border:5px solid black"">","","",""
"","5226.785000000731","stimulus-presentation","132","544892","0.0-17.0-1.8","SS1604590570956","<img src='images/simple/13.png' width ='500' height = '500' style='border:5px solid black'>","40","mixed_complex_deviant","images/simple/13.png","images/simple/10.png","images/complex/15.png,images/complex/13.png,images/complex/8.png,images/complex/3.png,images/complex/12.png,images/complex/14.png,images/complex/4.png","1","null","","200","5426.785000000731","yes","298.464999999851","","target","",""
"","null","html-keyboard-response","133","546177","0.0-17.0-0.9","SS1604590570956","","null","","","","","","","","","","","","<img src=images/blank.png width =""500"" height = ""500"" style=""border:5px solid black"">","","",""
"","226.46500000159722","stimulus-presentation","134","546620","0.0-17.0-1.9","SS1604590570956","<img src='images/simple/10.png' width ='500' height = '500' style='border:5px solid black'>","40","mixed_complex_deviant","images/simple/13.png","images/simple/10.png","images/complex/15.png,images/complex/13.png,images/complex/8.png,images/complex/3.png,images/complex/12.png,images/complex/14.png,images/complex/4.png","1","null","","200","426.4650000015972","","","","background","",""
"","null","html-keyboard-response","135","547655","0.0-17.0-0.10","SS1604590570956","","null","","","","","","","","","","","","<img src=images/blank.png width =""500"" height = ""500"" style=""border:5px solid black"">","","",""
"","91.88000000000466","stimulus-presentation","136","547971","0.0-17.0-1.10","SS1604590570956","<img src='images/simple/10.png' width ='500' height = '500' style='border:5px solid black'>","40","mixed_complex_deviant","images/simple/13.png","images/simple/10.png","images/complex/15.png,images/complex/13.png,images/complex/8.png,images/complex/3.png,images/complex/12.png,images/complex/14.png,images/complex/4.png","1","null","","200","291.88000000000466","","","","background","",""
"","null","html-keyboard-response","137","548802","0.0-17.0-0.11","SS1604590570956","","null","","","","","","","","","","","","<img src=images/blank.png width =""500"" height = ""500"" style=""border:5px solid black"">","","",""
"","3085.874999998836","stimulus-presentation","138","552100","0.0-17.0-1.11","SS1604590570956","<img src='images/simple/13.png' width ='500' height = '500' style='border:5px solid black'>","40","mixed_complex_deviant","images/simple/13.png","images/simple/10.png","images/complex/15.png,images/complex/13.png,images/complex/8.png,images/complex/3.png,images/complex/12.png,images/complex/14.png,images/complex/4.png","1","null","","200","3285.874999998836","yes","373.9549999991432","","target","",""
"","null","html-keyboard-response","139","553062","0.0-17.0-0.12","SS1604590570956","","null","","","","","","","","","","","","<img src=images/blank.png width =""500"" height = ""500"" style=""border:5px solid black"">","","",""
"","1283.9299999995856","stimulus-presentation","140","554555","0.0-17.0-1.12","SS1604590570956","<img src='images/simple/13.png' width ='500' height = '500' style='border:5px solid black'>","40","mixed_complex_deviant","images/simple/13.png","images/simple/10.png","images/complex/15.png,images/complex/13.png,images/complex/8.png,images/complex/3.png,images/complex/12.png,images/complex/14.png,images/complex/4.png","1","null","","200","1483.9299999995856","yes","524.1649999988731","","target","",""
"","null","html-keyboard-response","141","555584","0.0-17.0-0.13","SS1604590570956","","null","","","","","","","","","","","","<img src=images/blank.png width =""500"" height = ""500"" style=""border:5px solid black"">","","",""
"","876.9350000002887","stimulus-presentation","142","556667","0.0-17.0-1.13","SS1604590570956","<img src='images/simple/10.png' width ='500' height = '500' style='border:5px solid black'>","40","mixed_complex_deviant","images/simple/13.png","images/simple/10.png","images/complex/15.png,images/complex/13.png,images/complex/8.png,images/complex/3.png,images/complex/12.png,images/complex/14.png,images/complex/4.png","1","null","","200","1076.9350000002887","","","","background","",""
"","null","html-keyboard-response","143","557605","0.0-17.0-0.14","SS1604590570956","","null","","","","","","","","","","","","<img src=images/blank.png width =""500"" height = ""500"" style=""border:5px solid black"">","","",""
"","156.6999999996042","stimulus-presentation","144","557971","0.0-17.0-1.14","SS1604590570956","<img src='images/simple/10.png' width ='500' height = '500' style='border:5px solid black'>","40","mixed_complex_deviant","images/simple/13.png","images/simple/10.png","images/complex/15.png,images/complex/13.png,images/complex/8.png,images/complex/3.png,images/complex/12.png,images/complex/14.png,images/complex/4.png","1","null","","200","356.6999999996042","","","","background","",""
"","null","html-keyboard-response","145","559007","0.0-17.0-0.15","SS1604590570956","","null","","","","","","","","","","","","<img src=images/blank.png width =""500"" height = ""500"" style=""border:5px solid black"">","","",""
"","171.15999999991618","stimulus-presentation","146","559388","0.0-17.0-1.15","SS1604590570956","<img src='images/simple/10.png' width ='500' height = '500' style='border:5px solid black'>","40","mixed_complex_deviant","images/simple/13.png","images/simple/10.png","images/complex/15.png,images/complex/13.png,images/complex/8.png,images/complex/3.png,images/complex/12.png,images/complex/14.png,images/complex/4.png","1","null","","200","371.1599999999162","","","","background","",""
"","null","html-keyboard-response","147","560248","0.0-17.0-0.16","SS1604590570956","","null","","","","","","","","","","","","<img src=images/blank.png width =""500"" height = ""500"" style=""border:5px solid black"">","","",""
"","200.97999999963213","stimulus-presentation","148","560660","0.0-17.0-1.16","SS1604590570956","<img src='images/simple/10.png' width ='500' height = '500' style='border:5px solid black'>","40","mixed_complex_deviant","images/simple/13.png","images/simple/10.png","images/complex/15.png,images/complex/13.png,images/complex/8.png,images/complex/3.png,images/complex/12.png,images/complex/14.png,images/complex/4.png","1","null","","200","400.9799999996321","","","","background","",""
"","null","html-keyboard-response","149","561581","0.0-17.0-0.17","SS1604590570956","","null","","","","","","","","","","","","<img src=images/blank.png width =""500"" height = ""500"" style=""border:5px solid black"">","","",""
"","150.2150000014808","stimulus-presentation","150","561958","0.0-17.0-1.17","SS1604590570956","<img src='images/complex/8.png' width ='500' height = '500' style='border:5px solid black'>","40","mixed_complex_deviant","images/simple/13.png","images/simple/10.png","images/complex/15.png,images/complex/13.png,images/complex/8.png,images/complex/3.png,images/complex/12.png,images/complex/14.png,images/complex/4.png","1","null","","200","350.2150000014808","","","","deviant","",""
"","null","html-keyboard-response","151","563122","0.0-17.0-0.18","SS1604590570956","","null","","","","","","","","","","","","<img src=images/blank.png width =""500"" height = ""500"" style=""border:5px solid black"">","","",""
"","232.75999999896158","stimulus-presentation","152","563566","0.0-17.0-1.18","SS1604590570956","<img src='images/simple/10.png' width ='500' height = '500' style='border:5px solid black'>","40","mixed_complex_deviant","images/simple/13.png","images/simple/10.png","images/complex/15.png,images/complex/13.png,images/complex/8.png,images/complex/3.png,images/complex/12.png,images/complex/14.png,images/complex/4.png","1","null","","200","432.7599999989616","","","","background","",""
"","null","html-keyboard-response","153","564781","0.0-17.0-0.19","SS1604590570956","","null","","","","","","","","","","","","<img src=images/blank.png width =""500"" height = ""500"" style=""border:5px solid black"">","","",""
"","216.2650000009453","stimulus-presentation","154","565205","0.0-17.0-1.19","SS1604590570956","<img src='images/simple/10.png' width ='500' height = '500' style='border:5px solid black'>","40","mixed_complex_deviant","images/simple/13.png","images/simple/10.png","images/complex/15.png,images/complex/13.png,images/complex/8.png,images/complex/3.png,images/complex/12.png,images/complex/14.png,images/complex/4.png","1","null","","200","416.2650000009453","","","","background","",""
"","null","html-keyboard-response","155","566290","0.0-17.0-0.20","SS1604590570956","","null","","","","","","","","","","","","<img src=images/blank.png width =""500"" height = ""500"" style=""border:5px solid black"">","","",""
"","145.53499999968335","stimulus-presentation","156","566645","0.0-17.0-1.20","SS1604590570956","<img src='images/simple/10.png' width ='500' height = '500' style='border:5px solid black'>","40","mixed_complex_deviant","images/simple/13.png","images/simple/10.png","images/complex/15.png,images/complex/13.png,images/complex/8.png,images/complex/3.png,images/complex/12.png,images/complex/14.png,images/complex/4.png","1","null","","200","345.53499999968335","","","","background","",""
"","null","html-keyboard-response","157","567522","0.0-17.0-0.21","SS1604590570956","","null","","","","","","","","","","","","<img src=images/blank.png width =""500"" height = ""500"" style=""border:5px solid black"">","","",""
"","224.49000000045635","stimulus-presentation","158","567957","0.0-17.0-1.21","SS1604590570956","<img src='images/simple/10.png' width ='500' height = '500' style='border:5px solid black'>","40","mixed_complex_deviant","images/simple/13.png","images/simple/10.png","images/complex/15.png,images/complex/13.png,images/complex/8.png,images/complex/3.png,images/complex/12.png,images/complex/14.png,images/complex/4.png","1","null","","200","424.49000000045635","","","","background","",""
"","null","html-keyboard-response","159","569136","0.0-17.0-0.22","SS1604590570956","","null","","","","","","","","","","","","<img src=images/blank.png width =""500"" height = ""500"" style=""border:5px solid black"">","","",""
"","210.46500000008382","stimulus-presentation","160","569558","0.0-17.0-1.22","SS1604590570956","<img src='images/simple/10.png' width ='500' height = '500' style='border:5px solid black'>","40","mixed_complex_deviant","images/simple/13.png","images/simple/10.png","images/complex/15.png,images/complex/13.png,images/complex/8.png,images/complex/3.png,images/complex/12.png,images/complex/14.png,images/complex/4.png","1","null","","200","410.4650000000838","","","","background","",""
"","null","html-keyboard-response","161","570430","0.0-17.0-0.23","SS1604590570956","","null","","","","","","","","","","","","<img src=images/blank.png width =""500"" height = ""500"" style=""border:5px solid black"">","","",""
"","405.56999999890104","stimulus-presentation","162","571045","0.0-17.0-1.23","SS1604590570956","<img src='images/simple/10.png' width ='500' height = '500' style='border:5px solid black'>","40","mixed_complex_deviant","images/simple/13.png","images/simple/10.png","images/complex/15.png,images/complex/13.png,images/complex/8.png,images/complex/3.png,images/complex/12.png,images/complex/14.png,images/complex/4.png","1","null","","200","605.569999998901","","","","background","",""
"","null","html-keyboard-response","163","572342","0.0-17.0-0.24","SS1604590570956","","null","","","","","","","","","","","","<img src=images/blank.png width =""500"" height = ""500"" style=""border:5px solid black"">","","",""
"","251.2450000012759","stimulus-presentation","164","572806","0.0-17.0-1.24","SS1604590570956","<img src='images/simple/10.png' width ='500' height = '500' style='border:5px solid black'>","40","mixed_complex_deviant","images/simple/13.png","images/simple/10.png","images/complex/15.png,images/complex/13.png,images/complex/8.png,images/complex/3.png,images/complex/12.png,images/complex/14.png,images/complex/4.png","1","null","","200","451.2450000012759","","","","background","",""
"","null","html-keyboard-response","165","573912","0.0-17.0-0.25","SS1604590570956","","null","","","","","","","","","","","","<img src=images/blank.png width =""500"" height = ""500"" style=""border:5px solid black"">","","",""
"","229.35999999940395","stimulus-presentation","166","574357","0.0-17.0-1.25","SS1604590570956","<img src='images/simple/10.png' width ='500' height = '500' style='border:5px solid black'>","40","mixed_complex_deviant","images/simple/13.png","images/simple/10.png","images/complex/15.png,images/complex/13.png,images/complex/8.png,images/complex/3.png,images/complex/12.png,images/complex/14.png,images/complex/4.png","1","null","","200","429.35999999940395","","","","background","",""
"","null","html-keyboard-response","167","575194","0.0-17.0-0.26","SS1604590570956","","null","","","","","","","","","","","","<img src=images/blank.png width =""500"" height = ""500"" style=""border:5px solid black"">","","",""
"","249.73499999940395","stimulus-presentation","168","575660","0.0-17.0-1.26","SS1604590570956","<img src='images/simple/10.png' width ='500' height = '500' style='border:5px solid black'>","40","mixed_complex_deviant","images/simple/13.png","images/simple/10.png","images/complex/15.png,images/complex/13.png,images/complex/8.png,images/complex/3.png,images/complex/12.png,images/complex/14.png,images/complex/4.png","1","null","","200","449.73499999940395","","","","background","",""
"","null","html-keyboard-response","169","576722","0.0-17.0-0.27","SS1604590570956","","null","","","","","","","","","","","","<img src=images/blank.png width =""500"" height = ""500"" style=""border:5px solid black"">","","",""
"","214.38500000105705","stimulus-presentation","170","577150","0.0-17.0-1.27","SS1604590570956","<img src='images/simple/10.png' width ='500' height = '500' style='border:5px solid black'>","40","mixed_complex_deviant","images/simple/13.png","images/simple/10.png","images/complex/15.png,images/complex/13.png,images/complex/8.png,images/complex/3.png,images/complex/12.png,images/complex/14.png,images/complex/4.png","1","null","","200","414.38500000105705","","","","background","",""
"","null","html-keyboard-response","171","578299","0.0-17.0-0.28","SS1604590570956","","null","","","","","","","","","","","","<img src=images/blank.png width =""500"" height = ""500"" style=""border:5px solid black"">","","",""
"","431.0050000003539","stimulus-presentation","172","578949","0.0-17.0-1.28","SS1604590570956","<img src='images/complex/12.png' width ='500' height = '500' style='border:5px solid black'>","40","mixed_complex_deviant","images/simple/13.png","images/simple/10.png","images/complex/15.png,images/complex/13.png,images/complex/8.png,images/complex/3.png,images/complex/12.png,images/complex/14.png,images/complex/4.png","1","null","","200","631.0050000003539","","","","deviant","",""
"","null","html-keyboard-response","173","579915","0.0-17.0-0.29","SS1604590570956","","null","","","","","","","","","","","","<img src=images/blank.png width =""500"" height = ""500"" style=""border:5px solid black"">","","",""
"","586.9999999995343","stimulus-presentation","174","580725","0.0-17.0-1.29","SS1604590570956","<img src='images/simple/10.png' width ='500' height = '500' style='border:5px solid black'>","40","mixed_complex_deviant","images/simple/13.png","images/simple/10.png","images/complex/15.png,images/complex/13.png,images/complex/8.png,images/complex/3.png,images/complex/12.png,images/complex/14.png,images/complex/4.png","1","null","","200","786.9999999995343","","","","background","",""
"","null","html-keyboard-response","175","581992","0.0-17.0-0.30","SS1604590570956","","null","","","","","","","","","","","","<img src=images/blank.png width =""500"" height = ""500"" style=""border:5px solid black"">","","",""
"","125.07999999984168","stimulus-presentation","176","582341","0.0-17.0-1.30","SS1604590570956","<img src='images/simple/10.png' width ='500' height = '500' style='border:5px solid black'>","40","mixed_complex_deviant","images/simple/13.png","images/simple/10.png","images/complex/15.png,images/complex/13.png,images/complex/8.png,images/complex/3.png,images/complex/12.png,images/complex/14.png,images/complex/4.png","1","null","","200","325.0799999998417","","","","background","",""
"","null","html-keyboard-response","177","583459","0.0-17.0-0.31","SS1604590570956","","null","","","","","","","","","","","","<img src=images/blank.png width =""500"" height = ""500"" style=""border:5px solid black"">","","",""
"","233.23999999952503","stimulus-presentation","178","583918","0.0-17.0-1.31","SS1604590570956","<img src='images/simple/10.png' width ='500' height = '500' style='border:5px solid black'>","40","mixed_complex_deviant","images/simple/13.png","images/simple/10.png","images/complex/15.png,images/complex/13.png,images/complex/8.png,images/complex/3.png,images/complex/12.png,images/complex/14.png,images/complex/4.png","1","null","","200","433.239999999525","","","","background","",""
"","null","html-keyboard-response","179","584801","0.0-17.0-0.32","SS1604590570956","","null","","","","","","","","","","","","<img src=images/blank.png width =""500"" height = ""500"" style=""border:5px solid black"">","","",""
"","1367.1049999993993","stimulus-presentation","180","586373","0.0-17.0-1.32","SS1604590570956","<img src='images/simple/13.png' width ='500' height = '500' style='border:5px solid black'>","40","mixed_complex_deviant","images/simple/13.png","images/simple/10.png","images/complex/15.png,images/complex/13.png,images/complex/8.png,images/complex/3.png,images/complex/12.png,images/complex/14.png,images/complex/4.png","1","null","","200","1567.1049999993993","yes","518.9599999993807","","target","",""
"","null","html-keyboard-response","181","587546","0.0-17.0-0.33","SS1604590570956","","null","","","","","","","","","","","","<img src=images/blank.png width =""500"" height = ""500"" style=""border:5px solid black"">","","",""
"","93.59500000020489","stimulus-presentation","182","587852","0.0-17.0-1.33","SS1604590570956","<img src='images/simple/10.png' width ='500' height = '500' style='border:5px solid black'>","40","mixed_complex_deviant","images/simple/13.png","images/simple/10.png","images/complex/15.png,images/complex/13.png,images/complex/8.png,images/complex/3.png,images/complex/12.png,images/complex/14.png,images/complex/4.png","1","null","","200","293.5950000002049","","","","background","",""
"","null","html-keyboard-response","183","588687","0.0-17.0-0.34","SS1604590570956","","null","","","","","","","","","","","","<img src=images/blank.png width =""500"" height = ""500"" style=""border:5px solid black"">","","",""
"","198.84499999904074","stimulus-presentation","184","589101","0.0-17.0-1.34","SS1604590570956","<img src='images/complex/3.png' width ='500' height = '500' style='border:5px solid black'>","40","mixed_complex_deviant","images/simple/13.png","images/simple/10.png","images/complex/15.png,images/complex/13.png,images/complex/8.png,images/complex/3.png,images/complex/12.png,images/complex/14.png,images/complex/4.png","1","null","","200","398.84499999904074","","","","deviant","",""
"","null","html-keyboard-response","185","589932","0.0-17.0-0.35","SS1604590570956","","null","","","","","","","","","","","","<img src=images/blank.png width =""500"" height = ""500"" style=""border:5px solid black"">","","",""
"","189.18499999924097","stimulus-presentation","186","590340","0.0-17.0-1.35","SS1604590570956","<img src='images/simple/10.png' width ='500' height = '500' style='border:5px solid black'>","40","mixed_complex_deviant","images/simple/13.png","images/simple/10.png","images/complex/15.png,images/complex/13.png,images/complex/8.png,images/complex/3.png,images/complex/12.png,images/complex/14.png,images/complex/4.png","1","null","","200","389.184999999241","","","","background","",""
"","null","html-keyboard-response","187","591409","0.0-17.0-0.36","SS1604590570956","","null","","","","","","","","","","","","<img src=images/blank.png width =""500"" height = ""500"" style=""border:5px solid black"">","","",""
"","209.25999999966007","stimulus-presentation","188","591836","0.0-17.0-1.36","SS1604590570956","<img src='images/simple/10.png' width ='500' height = '500' style='border:5px solid black'>","40","mixed_complex_deviant","images/simple/13.png","images/simple/10.png","images/complex/15.png,images/complex/13.png,images/complex/8.png,images/complex/3.png,images/complex/12.png,images/complex/14.png,images/complex/4.png","1","null","","200","409.25999999966007","","","","background","",""
"","null","html-keyboard-response","189","592847","0.0-17.0-0.37","SS1604590570956","","null","","","","","","","","","","","","<img src=images/blank.png width =""500"" height = ""500"" style=""border:5px solid black"">","","",""
"","505.320000000298","stimulus-presentation","190","593572","0.0-17.0-1.37","SS1604590570956","<img src='images/simple/10.png' width ='500' height = '500' style='border:5px solid black'>","40","mixed_complex_deviant","images/simple/13.png","images/simple/10.png","images/complex/15.png,images/complex/13.png,images/complex/8.png,images/complex/3.png,images/complex/12.png,images/complex/14.png,images/complex/4.png","1","null","","200","705.320000000298","","","","background","",""
"","null","html-keyboard-response","191","594673","0.0-17.0-0.38","SS1604590570956","","null","","","","","","","","","","","","<img src=images/blank.png width =""500"" height = ""500"" style=""border:5px solid black"">","","",""
"","426.9899999999907","stimulus-presentation","192","595310","0.0-17.0-1.38","SS1604590570956","<img src='images/complex/13.png' width ='500' height = '500' style='border:5px solid black'>","40","mixed_complex_deviant","images/simple/13.png","images/simple/10.png","images/complex/15.png,images/complex/13.png,images/complex/8.png,images/complex/3.png,images/complex/12.png,images/complex/14.png,images/complex/4.png","1","null","","200","626.9899999999907","","","","deviant","",""
"","null","html-keyboard-response","193","596201","0.0-17.0-0.39","SS1604590570956","","null","","","","","","","","","","","","<img src=images/blank.png width =""500"" height = ""500"" style=""border:5px solid black"">","","",""
"","205.4399999997113","stimulus-presentation","194","596620","0.0-17.0-1.39","SS1604590570956","<img src='images/simple/10.png' width ='500' height = '500' style='border:5px solid black'>","40","mixed_complex_deviant","images/simple/13.png","images/simple/10.png","images/complex/15.png,images/complex/13.png,images/complex/8.png,images/complex/3.png,images/complex/12.png,images/complex/14.png,images/complex/4.png","1","null","","200","405.4399999997113","","","","background","",""
"","null","html-keyboard-response","195","597477","0.0-17.0-0.40","SS1604590570956","","null","","","","","","","","","","","","<img src=images/blank.png width =""500"" height = ""500"" style=""border:5px solid black"">","","",""
"","234.70499999902677","stimulus-presentation","196","597924","0.0-17.0-1.40","SS1604590570956","<img src='images/simple/10.png' width ='500' height = '500' style='border:5px solid black'>","40","mixed_complex_deviant","images/simple/13.png","images/simple/10.png","images/complex/15.png,images/complex/13.png,images/complex/8.png,images/complex/3.png,images/complex/12.png,images/complex/14.png,images/complex/4.png","1","null","","200","434.70499999902677","","","","background","",""
"","null","html-keyboard-response","197","599020","0.0-17.0-0.41","SS1604590570956","","null","","","","","","","","","","","","<img src=images/blank.png width =""500"" height = ""500"" style=""border:5px solid black"">","","",""
"","201.22499999881256","stimulus-presentation","198","599437","0.0-17.0-1.41","SS1604590570956","<img src='images/simple/10.png' width ='500' height = '500' style='border:5px solid black'>","40","mixed_complex_deviant","images/simple/13.png","images/simple/10.png","images/complex/15.png,images/complex/13.png,images/complex/8.png,images/complex/3.png,images/complex/12.png,images/complex/14.png,images/complex/4.png","1","null","","200","401.22499999881256","","","","background","",""
"","null","html-keyboard-response","199","600306","0.0-17.0-0.42","SS1604590570956","","null","","","","","","","","","","","","<img src=images/blank.png width =""500"" height = ""500"" style=""border:5px solid black"">","","",""
"","171.9200000007404","stimulus-presentation","200","600701","0.0-17.0-1.42","SS1604590570956","<img src='images/complex/14.png' width ='500' height = '500' style='border:5px solid black'>","40","mixed_complex_deviant","images/simple/13.png","images/simple/10.png","images/complex/15.png,images/complex/13.png,images/complex/8.png,images/complex/3.png,images/complex/12.png,images/complex/14.png,images/complex/4.png","1","null","","200","371.9200000007404","","","","deviant","",""
"","null","html-keyboard-response","201","601961","0.0-17.0-0.43","SS1604590570956","","null","","","","","","","","","","","","<img src=images/blank.png width =""500"" height = ""500"" style=""border:5px solid black"">","","",""
"","95.81500000064261","stimulus-presentation","202","602277","0.0-17.0-1.43","SS1604590570956","<img src='images/simple/10.png' width ='500' height = '500' style='border:5px solid black'>","40","mixed_complex_deviant","images/simple/13.png","images/simple/10.png","images/complex/15.png,images/complex/13.png,images/complex/8.png,images/complex/3.png,images/complex/12.png,images/complex/14.png,images/complex/4.png","1","null","","200","295.8150000006426","","","","background","",""
"","null","html-keyboard-response","203","603466","0.0-17.0-0.44","SS1604590570956","","null","","","","","","","","","","","","<img src=images/blank.png width =""500"" height = ""500"" style=""border:5px solid black"">","","",""
"","108.40499999909662","stimulus-presentation","204","603796","0.0-17.0-1.44","SS1604590570956","<img src='images/simple/10.png' width ='500' height = '500' style='border:5px solid black'>","40","mixed_complex_deviant","images/simple/13.png","images/simple/10.png","images/complex/15.png,images/complex/13.png,images/complex/8.png,images/complex/3.png,images/complex/12.png,images/complex/14.png,images/complex/4.png","1","null","","200","308.4049999990966","","","","background","",""
"","null","html-keyboard-response","205","604813","0.0-17.0-0.45","SS1604590570956","","null","","","","","","","","","","","","<img src=images/blank.png width =""500"" height = ""500"" style=""border:5px solid black"">","","",""
"","155.12999999918975","stimulus-presentation","206","605188","0.0-17.0-1.45","SS1604590570956","<img src='images/simple/10.png' width ='500' height = '500' style='border:5px solid black'>","40","mixed_complex_deviant","images/simple/13.png","images/simple/10.png","images/complex/15.png,images/complex/13.png,images/complex/8.png,images/complex/3.png,images/complex/12.png,images/complex/14.png,images/complex/4.png","1","null","","200","355.12999999918975","","","","background","",""
"","null","html-keyboard-response","207","606226","0.0-17.0-0.46","SS1604590570956","","null","","","","","","","","","","","","<img src=images/blank.png width =""500"" height = ""500"" style=""border:5px solid black"">","","",""
"","1269.1949999990175","stimulus-presentation","208","607716","0.0-17.0-1.46","SS1604590570956","<img src='images/simple/13.png' width ='500' height = '500' style='border:5px solid black'>","40","mixed_complex_deviant","images/simple/13.png","images/simple/10.png","images/complex/15.png,images/complex/13.png,images/complex/8.png,images/complex/3.png,images/complex/12.png,images/complex/14.png,images/complex/4.png","1","null","","200","1469.1949999990175","yes","389.2999999989988","","target","",""
"","null","html-keyboard-response","209","608587","0.0-17.0-0.47","SS1604590570956","","null","","","","","","","","","","","","<img src=images/blank.png width =""500"" height = ""500"" style=""border:5px solid black"">","","",""
"","178.41499999852385","stimulus-presentation","210","608989","0.0-17.0-1.47","SS1604590570956","<img src='images/simple/13.png' width ='500' height = '500' style='border:5px solid black'>","40","mixed_complex_deviant","images/simple/13.png","images/simple/10.png","images/complex/15.png,images/complex/13.png,images/complex/8.png,images/complex/3.png,images/complex/12.png,images/complex/14.png,images/complex/4.png","1","null","","200","378.41499999852385","","","","target","",""
"","null","html-keyboard-response","211","610123","0.0-17.0-0.48","SS1604590570956","","null","","","","","","","","","","","","<img src=images/blank.png width =""500"" height = ""500"" style=""border:5px solid black"">","","",""
"","237.68000000016764","stimulus-presentation","212","610572","0.0-17.0-1.48","SS1604590570956","<img src='images/simple/10.png' width ='500' height = '500' style='border:5px solid black'>","40","mixed_complex_deviant","images/simple/13.png","images/simple/10.png","images/complex/15.png,images/complex/13.png,images/complex/8.png,images/complex/3.png,images/complex/12.png,images/complex/14.png,images/complex/4.png","1","null","","200","437.68000000016764","","","","background","",""
"[{""page_index"":0,""viewing_time"":4388}]","4388","task-instructions","213","614964","0.0-18.0","SS1604590570956","","","","","","","","","","","","","","","","",""
"[{""page_index"":0,""viewing_time"":482.56500000029337},{""page_index"":1,""viewing_time"":2664.265000001178},{""page_index"":2,""viewing_time"":695.4649999989197}]","3842.5500000012107","instructions","214","618812","0.0-19.0","SS1604590570956","","","","","","","","","","","","","","","","",""
"","null","html-keyboard-response","215","619862","0.0-20.0-0.0","SS1604590570956","","null","","","","","","","","","","","","<img src=images/blank.png width =""500"" height = ""500"" style=""border:5px solid black"">","","",""
"","1063.219999999972","stimulus-presentation","216","621132","0.0-20.0-1.0","SS1604590570956","<img src='images/simple/9.png' width ='500' height = '500' style='border:5px solid black'>","40","mixed_simple_deviant","images/complex/6.png","images/complex/11.png","images/simple/14.png,images/simple/9.png,images/simple/5.png,images/simple/3.png,images/simple/8.png,images/simple/4.png,images/simple/15.png","2","null","","200","1263.219999999972","","","","deviant","",""
"","null","html-keyboard-response","217","622231","0.0-20.0-0.1","SS1604590570956","","null","","","","","","","","","","","","<img src=images/blank.png width =""500"" height = ""500"" style=""border:5px solid black"">","","",""
"","273.10000000032596","stimulus-presentation","218","622733","0.0-20.0-1.1","SS1604590570956","<img src='images/complex/11.png' width ='500' height = '500' style='border:5px solid black'>","40","mixed_simple_deviant","images/complex/6.png","images/complex/11.png","images/simple/14.png,images/simple/9.png,images/simple/5.png,images/simple/3.png,images/simple/8.png,images/simple/4.png,images/simple/15.png","2","null","","200","473.10000000032596","","","","background","",""
"","null","html-keyboard-response","219","623577","0.0-20.0-0.2","SS1604590570956","","null","","","","","","","","","","","","<img src=images/blank.png width =""500"" height = ""500"" style=""border:5px solid black"">","","",""
"","200.08000000054017","stimulus-presentation","220","623989","0.0-20.0-1.2","SS1604590570956","<img src='images/complex/11.png' width ='500' height = '500' style='border:5px solid black'>","40","mixed_simple_deviant","images/complex/6.png","images/complex/11.png","images/simple/14.png,images/simple/9.png,images/simple/5.png,images/simple/3.png,images/simple/8.png,images/simple/4.png,images/simple/15.png","2","null","","200","400.08000000054017","","","","background","",""
"","null","html-keyboard-response","221","625065","0.0-20.0-0.3","SS1604590570956","","null","","","","","","","","","","","","<img src=images/blank.png width =""500"" height = ""500"" style=""border:5px solid black"">","","",""
"","1711.594999998808","stimulus-presentation","222","626989","0.0-20.0-1.3","SS1604590570956","<img src='images/complex/6.png' width ='500' height = '500' style='border:5px solid black'>","40","mixed_simple_deviant","images/complex/6.png","images/complex/11.png","images/simple/14.png,images/simple/9.png,images/simple/5.png,images/simple/3.png,images/simple/8.png,images/simple/4.png,images/simple/15.png","2","null","","200","1911.594999998808","yes","448.0299999995623","","target","",""
"","null","html-keyboard-response","223","627817","0.0-20.0-0.4","SS1604590570956","","null","","","","","","","","","","","","<img src=images/blank.png width =""500"" height = ""500"" style=""border:5px solid black"">","","",""
"","1124.8099999993574","stimulus-presentation","224","629149","0.0-20.0-1.4","SS1604590570956","<img src='images/complex/6.png' width ='500' height = '500' style='border:5px solid black'>","40","mixed_simple_deviant","images/complex/6.png","images/complex/11.png","images/simple/14.png,images/simple/9.png,images/simple/5.png,images/simple/3.png,images/simple/8.png,images/simple/4.png,images/simple/15.png","2","null","","200","1324.8099999993574","yes","454.25500000058673","","target","",""
"","null","html-keyboard-response","225","630252","0.0-20.0-0.5","SS1604590570956","","null","","","","","","","","","","","","<img src=images/blank.png width =""500"" height = ""500"" style=""border:5px solid black"">","","",""
"","883.7700000003679","stimulus-presentation","226","631349","0.0-20.0-1.5","SS1604590570956","<img src='images/complex/6.png' width ='500' height = '500' style='border:5px solid black'>","40","mixed_simple_deviant","images/complex/6.png","images/complex/11.png","images/simple/14.png,images/simple/9.png,images/simple/5.png,images/simple/3.png,images/simple/8.png,images/simple/4.png,images/simple/15.png","2","null","","200","1083.7700000003679","yes","291.6999999997206","","target","",""
"","null","html-keyboard-response","227","632314","0.0-20.0-0.6","SS1604590570956","","null","","","","","","","","","","","","<img src=images/blank.png width =""500"" height = ""500"" style=""border:5px solid black"">","","",""
"","407.7550000002375","stimulus-presentation","228","632934","0.0-20.0-1.6","SS1604590570956","<img src='images/complex/11.png' width ='500' height = '500' style='border:5px solid black'>","40","mixed_simple_deviant","images/complex/6.png","images/complex/11.png","images/simple/14.png,images/simple/9.png,images/simple/5.png,images/simple/3.png,images/simple/8.png,images/simple/4.png,images/simple/15.png","2","null","","200","607.7550000002375","","","","background","",""
"","null","html-keyboard-response","229","634178","0.0-20.0-0.7","SS1604590570956","","null","","","","","","","","","","","","<img src=images/blank.png width =""500"" height = ""500"" style=""border:5px solid black"">","","",""
"","128.93500000063796","stimulus-presentation","230","634532","0.0-20.0-1.7","SS1604590570956","<img src='images/complex/11.png' width ='500' height = '500' style='border:5px solid black'>","40","mixed_simple_deviant","images/complex/6.png","images/complex/11.png","images/simple/14.png,images/simple/9.png,images/simple/5.png,images/simple/3.png,images/simple/8.png,images/simple/4.png,images/simple/15.png","2","null","","200","328.93500000063796","","","","background","",""
"","null","html-keyboard-response","231","635811","0.0-20.0-0.8","SS1604590570956","","null","","","","","","","","","","","","<img src=images/blank.png width =""500"" height = ""500"" style=""border:5px solid black"">","","",""
"","217.90499999956228","stimulus-presentation","232","636237","0.0-20.0-1.8","SS1604590570956","<img src='images/complex/11.png' width ='500' height = '500' style='border:5px solid black'>","40","mixed_simple_deviant","images/complex/6.png","images/complex/11.png","images/simple/14.png,images/simple/9.png,images/simple/5.png,images/simple/3.png,images/simple/8.png,images/simple/4.png,images/simple/15.png","2","null","","200","417.9049999995623","","","","background","",""
"","null","html-keyboard-response","233","637390","0.0-20.0-0.9","SS1604590570956","","null","","","","","","","","","","","","<img src=images/blank.png width =""500"" height = ""500"" style=""border:5px solid black"">","","",""
"","2601.184999999474","stimulus-presentation","234","640206","0.0-20.0-1.9","SS1604590570956","<img src='images/complex/11.png' width ='500' height = '500' style='border:5px solid black'>","40","mixed_simple_deviant","images/complex/6.png","images/complex/11.png","images/simple/14.png,images/simple/9.png,images/simple/5.png,images/simple/3.png,images/simple/8.png,images/simple/4.png,images/simple/15.png","2","null","","200","2801.184999999474","","","","background","",""
"","null","html-keyboard-response","235","641132","0.0-20.0-0.10","SS1604590570956","","null","","","","","","","","","","","","<img src=images/blank.png width =""500"" height = ""500"" style=""border:5px solid black"">","","",""
"","579.069999999716","stimulus-presentation","236","641925","0.0-20.0-1.10","SS1604590570956","<img src='images/complex/11.png' width ='500' height = '500' style='border:5px solid black'>","40","mixed_simple_deviant","images/complex/6.png","images/complex/11.png","images/simple/14.png,images/simple/9.png,images/simple/5.png,images/simple/3.png,images/simple/8.png,images/simple/4.png,images/simple/15.png","2","null","","200","779.069999999716","","","","background","",""
"","null","html-keyboard-response","237","643131","0.0-20.0-0.11","SS1604590570956","","null","","","","","","","","","","","","<img src=images/blank.png width =""500"" height = ""500"" style=""border:5px solid black"">","","",""
"","349.9350000001723","stimulus-presentation","238","643693","0.0-20.0-1.11","SS1604590570956","<img src='images/complex/11.png' width ='500' height = '500' style='border:5px solid black'>","40","mixed_simple_deviant","images/complex/6.png","images/complex/11.png","images/simple/14.png,images/simple/9.png,images/simple/5.png,images/simple/3.png,images/simple/8.png,images/simple/4.png,images/simple/15.png","2","null","","200","549.9350000001723","","","","background","",""
"","null","html-keyboard-response","239","644716","0.0-20.0-0.12","SS1604590570956","","null","","","","","","","","","","","","<img src=images/blank.png width =""500"" height = ""500"" style=""border:5px solid black"">","","",""
"","105.77999999979511","stimulus-presentation","240","645037","0.0-20.0-1.12","SS1604590570956","<img src='images/complex/11.png' width ='500' height = '500' style='border:5px solid black'>","40","mixed_simple_deviant","images/complex/6.png","images/complex/11.png","images/simple/14.png,images/simple/9.png,images/simple/5.png,images/simple/3.png,images/simple/8.png,images/simple/4.png,images/simple/15.png","2","null","","200","305.7799999997951","","","","background","",""
"","null","html-keyboard-response","241","646312","0.0-20.0-0.13","SS1604590570956","","null","","","","","","","","","","","","<img src=images/blank.png width =""500"" height = ""500"" style=""border:5px solid black"">","","",""
"","591.7549999994226","stimulus-presentation","242","647117","0.0-20.0-1.13","SS1604590570956","<img src='images/complex/11.png' width ='500' height = '500' style='border:5px solid black'>","40","mixed_simple_deviant","images/complex/6.png","images/complex/11.png","images/simple/14.png,images/simple/9.png,images/simple/5.png,images/simple/3.png,images/simple/8.png,images/simple/4.png,images/simple/15.png","2","null","","200","791.7549999994226","","","","background","",""
"","null","html-keyboard-response","243","648119","0.0-20.0-0.14","SS1604590570956","","null","","","","","","","","","","","","<img src=images/blank.png width =""500"" height = ""500"" style=""border:5px solid black"">","","",""
"","258.6449999997858","stimulus-presentation","244","648589","0.0-20.0-1.14","SS1604590570956","<img src='images/complex/11.png' width ='500' height = '500' style='border:5px solid black'>","40","mixed_simple_deviant","images/complex/6.png","images/complex/11.png","images/simple/14.png,images/simple/9.png,images/simple/5.png,images/simple/3.png,images/simple/8.png,images/simple/4.png,images/simple/15.png","2","null","","200","458.6449999997858","","","","background","",""
"","null","html-keyboard-response","245","649526","0.0-20.0-0.15","SS1604590570956","","null","","","","","","","","","","","","<img src=images/blank.png width =""500"" height = ""500"" style=""border:5px solid black"">","","",""
"","2570.490000000107","stimulus-presentation","246","652309","0.0-20.0-1.15","SS1604590570956","<img src='images/complex/6.png' width ='500' height = '500' style='border:5px solid black'>","40","mixed_simple_deviant","images/complex/6.png","images/complex/11.png","images/simple/14.png,images/simple/9.png,images/simple/5.png,images/simple/3.png,images/simple/8.png,images/simple/4.png,images/simple/15.png","2","null","","200","2770.490000000107","yes","1802.6399999998976","","target","",""
"","null","html-keyboard-response","247","653199","0.0-20.0-0.16","SS1604590570956","","null","","","","","","","","","","","","<img src=images/blank.png width =""500"" height = ""500"" style=""border:5px solid black"">","","",""
"","283.245000000461","stimulus-presentation","248","653693","0.0-20.0-1.16","SS1604590570956","<img src='images/complex/11.png' width ='500' height = '500' style='border:5px solid black'>","40","mixed_simple_deviant","images/complex/6.png","images/complex/11.png","images/simple/14.png,images/simple/9.png,images/simple/5.png,images/simple/3.png,images/simple/8.png,images/simple/4.png,images/simple/15.png","2","null","","200","483.245000000461","","","","background","",""
"","null","html-keyboard-response","249","654733","0.0-20.0-0.17","SS1604590570956","","null","","","","","","","","","","","","<img src=images/blank.png width =""500"" height = ""500"" style=""border:5px solid black"">","","",""
"","472.0100000012899","stimulus-presentation","250","655412","0.0-20.0-1.17","SS1604590570956","<img src='images/simple/3.png' width ='500' height = '500' style='border:5px solid black'>","40","mixed_simple_deviant","images/complex/6.png","images/complex/11.png","images/simple/14.png,images/simple/9.png,images/simple/5.png,images/simple/3.png,images/simple/8.png,images/simple/4.png,images/simple/15.png","2","null","","200","672.0100000012899","","","","deviant","",""
"","null","html-keyboard-response","251","656416","0.0-20.0-0.18","SS1604590570956","","null","","","","","","","","","","","","<img src=images/blank.png width =""500"" height = ""500"" style=""border:5px solid black"">","","",""
"","309.054999999702","stimulus-presentation","252","656940","0.0-20.0-1.18","SS1604590570956","<img src='images/complex/11.png' width ='500' height = '500' style='border:5px solid black'>","40","mixed_simple_deviant","images/complex/6.png","images/complex/11.png","images/simple/14.png,images/simple/9.png,images/simple/5.png,images/simple/3.png,images/simple/8.png,images/simple/4.png,images/simple/15.png","2","null","","200","509.054999999702","","","","background","",""
"","null","html-keyboard-response","253","657747","0.0-20.0-0.19","SS1604590570956","","null","","","","","","","","","","","","<img src=images/blank.png width =""500"" height = ""500"" style=""border:5px solid black"">","","",""
"","189.10999999928754","stimulus-presentation","254","658149","0.0-20.0-1.19","SS1604590570956","<img src='images/complex/11.png' width ='500' height = '500' style='border:5px solid black'>","40","mixed_simple_deviant","images/complex/6.png","images/complex/11.png","images/simple/14.png,images/simple/9.png,images/simple/5.png,images/simple/3.png,images/simple/8.png,images/simple/4.png,images/simple/15.png","2","null","","200","389.10999999928754","","","","background","",""
"","null","html-keyboard-response","255","659312","0.0-20.0-0.20","SS1604590570956","","null","","","","","","","","","","","","<img src=images/blank.png width =""500"" height = ""500"" style=""border:5px solid black"">","","",""
"","379.55499999946915","stimulus-presentation","256","659908","0.0-20.0-1.20","SS1604590570956","<img src='images/simple/14.png' width ='500' height = '500' style='border:5px solid black'>","40","mixed_simple_deviant","images/complex/6.png","images/complex/11.png","images/simple/14.png,images/simple/9.png,images/simple/5.png,images/simple/3.png,images/simple/8.png,images/simple/4.png,images/simple/15.png","2","null","","200","579.5549999994691","","","","deviant","",""
"","null","html-keyboard-response","257","660794","0.0-20.0-0.21","SS1604590570956","","null","","","","","","","","","","","","<img src=images/blank.png width =""500"" height = ""500"" style=""border:5px solid black"">","","",""
"","169.85999999998603","stimulus-presentation","258","661173","0.0-20.0-1.21","SS1604590570956","<img src='images/complex/11.png' width ='500' height = '500' style='border:5px solid black'>","40","mixed_simple_deviant","images/complex/6.png","images/complex/11.png","images/simple/14.png,images/simple/9.png,images/simple/5.png,images/simple/3.png,images/simple/8.png,images/simple/4.png,images/simple/15.png","2","null","","200","369.85999999998603","","","","background","",""
"","null","html-keyboard-response","259","662192","0.0-20.0-0.22","SS1604590570956","","null","","","","","","","","","","","","<img src=images/blank.png width =""500"" height = ""500"" style=""border:5px solid black"">","","",""
"","200.7749999993248","stimulus-presentation","260","662606","0.0-20.0-1.22","SS1604590570956","<img src='images/complex/11.png' width ='500' height = '500' style='border:5px solid black'>","40","mixed_simple_deviant","images/complex/6.png","images/complex/11.png","images/simple/14.png,images/simple/9.png,images/simple/5.png,images/simple/3.png,images/simple/8.png,images/simple/4.png,images/simple/15.png","2","null","","200","400.7749999993248","","","","background","",""
"","null","html-keyboard-response","261","663693","0.0-20.0-0.23","SS1604590570956","","null","","","","","","","","","","","","<img src=images/blank.png width =""500"" height = ""500"" style=""border:5px solid black"">","","",""
"","121.86499999917578","stimulus-presentation","262","664028","0.0-20.0-1.23","SS1604590570956","<img src='images/complex/11.png' width ='500' height = '500' style='border:5px solid black'>","40","mixed_simple_deviant","images/complex/6.png","images/complex/11.png","images/simple/14.png,images/simple/9.png,images/simple/5.png,images/simple/3.png,images/simple/8.png,images/simple/4.png,images/simple/15.png","2","null","","200","321.8649999991758","","","","background","",""
"","null","html-keyboard-response","263","665197","0.0-20.0-0.24","SS1604590570956","","null","","","","","","","","","","","","<img src=images/blank.png width =""500"" height = ""500"" style=""border:5px solid black"">","","",""
"","1090.2000000005355","stimulus-presentation","264","666500","0.0-20.0-1.24","SS1604590570956","<img src='images/complex/6.png' width ='500' height = '500' style='border:5px solid black'>","40","mixed_simple_deviant","images/complex/6.png","images/complex/11.png","images/simple/14.png,images/simple/9.png,images/simple/5.png,images/simple/3.png,images/simple/8.png,images/simple/4.png,images/simple/15.png","2","null","","200","1290.2000000005355","yes","370.66000000049826","","target","",""
"","null","html-keyboard-response","265","667466","0.0-20.0-0.25","SS1604590570956","","null","","","","","","","","","","","","<img src=images/blank.png width =""500"" height = ""500"" style=""border:5px solid black"">","","",""
"","100.57000000053085","stimulus-presentation","266","667781","0.0-20.0-1.25","SS1604590570956","<img src='images/complex/11.png' width ='500' height = '500' style='border:5px solid black'>","40","mixed_simple_deviant","images/complex/6.png","images/complex/11.png","images/simple/14.png,images/simple/9.png,images/simple/5.png,images/simple/3.png,images/simple/8.png,images/simple/4.png,images/simple/15.png","2","null","","200","300.57000000053085","","","","background","",""
"","null","html-keyboard-response","267","668624","0.0-20.0-0.26","SS1604590570956","","null","","","","","","","","","","","","<img src=images/blank.png width =""500"" height = ""500"" style=""border:5px solid black"">","","",""
"","159.76500000036322","stimulus-presentation","268","668997","0.0-20.0-1.26","SS1604590570956","<img src='images/simple/15.png' width ='500' height = '500' style='border:5px solid black'>","40","mixed_simple_deviant","images/complex/6.png","images/complex/11.png","images/simple/14.png,images/simple/9.png,images/simple/5.png,images/simple/3.png,images/simple/8.png,images/simple/4.png,images/simple/15.png","2","null","","200","359.7650000003632","","","","deviant","",""
"","null","html-keyboard-response","269","670013","0.0-20.0-0.27","SS1604590570956","","null","","","","","","","","","","","","<img src=images/blank.png width =""500"" height = ""500"" style=""border:5px solid black"">","","",""
"","148.5249999986263","stimulus-presentation","270","670372","0.0-20.0-1.27","SS1604590570956","<img src='images/complex/11.png' width ='500' height = '500' style='border:5px solid black'>","40","mixed_simple_deviant","images/complex/6.png","images/complex/11.png","images/simple/14.png,images/simple/9.png,images/simple/5.png,images/simple/3.png,images/simple/8.png,images/simple/4.png,images/simple/15.png","2","null","","200","348.5249999986263","","","","background","",""
"","null","html-keyboard-response","271","671556","0.0-20.0-0.28","SS1604590570956","","null","","","","","","","","","","","","<img src=images/blank.png width =""500"" height = ""500"" style=""border:5px solid black"">","","",""
"","1021.0150000002468","stimulus-presentation","272","672789","0.0-20.0-1.28","SS1604590570956","<img src='images/complex/6.png' width ='500' height = '500' style='border:5px solid black'>","40","mixed_simple_deviant","images/complex/6.png","images/complex/11.png","images/simple/14.png,images/simple/9.png,images/simple/5.png,images/simple/3.png,images/simple/8.png,images/simple/4.png,images/simple/15.png","2","null","","200","1221.0150000002468","yes","356.3250000006519","","target","",""
"","null","html-keyboard-response","273","673720","0.0-20.0-0.29","SS1604590570956","","null","","","","","","","","","","","","<img src=images/blank.png width =""500"" height = ""500"" style=""border:5px solid black"">","","",""
"","127.25500000116881","stimulus-presentation","274","674060","0.0-20.0-1.29","SS1604590570956","<img src='images/complex/6.png' width ='500' height = '500' style='border:5px solid black'>","40","mixed_simple_deviant","images/complex/6.png","images/complex/11.png","images/simple/14.png,images/simple/9.png,images/simple/5.png,images/simple/3.png,images/simple/8.png,images/simple/4.png,images/simple/15.png","2","null","","200","327.2550000011688","","","","target","",""
"","null","html-keyboard-response","275","675033","0.0-20.0-0.30","SS1604590570956","","null","","","","","","","","","","","","<img src=images/blank.png width =""500"" height = ""500"" style=""border:5px solid black"">","","",""
"","478.914999999688","stimulus-presentation","276","675726","0.0-20.0-1.30","SS1604590570956","<img src='images/complex/11.png' width ='500' height = '500' style='border:5px solid black'>","40","mixed_simple_deviant","images/complex/6.png","images/complex/11.png","images/simple/14.png,images/simple/9.png,images/simple/5.png,images/simple/3.png,images/simple/8.png,images/simple/4.png,images/simple/15.png","2","null","","200","678.914999999688","","","","background","",""
"","null","html-keyboard-response","277","676717","0.0-20.0-0.31","SS1604590570956","","null","","","","","","","","","","","","<img src=images/blank.png width =""500"" height = ""500"" style=""border:5px solid black"">","","",""
"","561.4899999999907","stimulus-presentation","278","677492","0.0-20.0-1.31","SS1604590570956","<img src='images/complex/11.png' width ='500' height = '500' style='border:5px solid black'>","40","mixed_simple_deviant","images/complex/6.png","images/complex/11.png","images/simple/14.png,images/simple/9.png,images/simple/5.png,images/simple/3.png,images/simple/8.png,images/simple/4.png,images/simple/15.png","2","null","","200","761.4899999999907","","","","background","",""
"","null","html-keyboard-response","279","678582","0.0-20.0-0.32","SS1604590570956","","null","","","","","","","","","","","","<img src=images/blank.png width =""500"" height = ""500"" style=""border:5px solid black"">","","",""
"","151.71999999985565","stimulus-presentation","280","678948","0.0-20.0-1.32","SS1604590570956","<img src='images/complex/11.png' width ='500' height = '500' style='border:5px solid black'>","40","mixed_simple_deviant","images/complex/6.png","images/complex/11.png","images/simple/14.png,images/simple/9.png,images/simple/5.png,images/simple/3.png,images/simple/8.png,images/simple/4.png,images/simple/15.png","2","null","","200","351.71999999985565","","","","background","",""
"","null","html-keyboard-response","281","679851","0.0-20.0-0.33","SS1604590570956","","null","","","","","","","","","","","","<img src=images/blank.png width =""500"" height = ""500"" style=""border:5px solid black"">","","",""
"","122.42500000144355","stimulus-presentation","282","680180","0.0-20.0-1.33","SS1604590570956","<img src='images/complex/11.png' width ='500' height = '500' style='border:5px solid black'>","40","mixed_simple_deviant","images/complex/6.png","images/complex/11.png","images/simple/14.png,images/simple/9.png,images/simple/5.png,images/simple/3.png,images/simple/8.png,images/simple/4.png,images/simple/15.png","2","null","","200","322.42500000144355","","","","background","",""
"","null","html-keyboard-response","283","681066","0.0-20.0-0.34","SS1604590570956","","null","","","","","","","","","","","","<img src=images/blank.png width =""500"" height = ""500"" style=""border:5px solid black"">","","",""
