"view_history","rt","trial_type","trial_index","time_elapsed","internal_node_id","subject","trial_stimulus","key_press","task_type","task_target_stimulus","task_background_stimulus","task_deviant_stimuli","task_order_number","block_order_number","trial_order_number","minimum_viewing_duration","trial_looking_time","trial_pressed_space_bar","trial_space_bar_rt","stimulus","trial_stimulus_type","responses","question_order"
"[{""page_index"":0,""viewing_time"":32275.734999915585}]","32276.439999928698","instructions","0","32297","0.0-0.0","SS1604588489700","","","","","","","","","","","","","","","","",""
"[{""page_index"":0,""viewing_time"":6955.435000010766},{""page_index"":1,""viewing_time"":5949.815000058152},{""page_index"":2,""viewing_time"":13124.749999959022},{""page_index"":3,""viewing_time"":8783.04000000935},{""page_index"":4,""viewing_time"":8961.000000010245},{""page_index"":5,""viewing_time"":11070.825000060722},{""page_index"":6,""viewing_time"":4383.909999975003},{""page_index"":7,""viewing_time"":8696.839999989606},{""page_index"":8,""viewing_time"":2623.9650000352412}]","70549.81500003487","instructions","1","102848","0.0-1.0","SS1604588489700","","","","","","","","","","","","","","","","",""
"[{""page_index"":0,""viewing_time"":9097.425000043586},{""page_index"":1,""viewing_time"":11360.929999966174},{""page_index"":2,""viewing_time"":2320.0749999377877}]","22778.679999988526","instructions","2","125628","0.0-2.0","SS1604588489700","","","","","","","","","","","","","","","","",""
"","1701.7899999627843","practice-block","3","127533","0.0-3.0","SS1604588489700","<img src='images/practice/practice_background.jpeg' width ='500' height = '500' style='border:5px solid black'>","40","null","images/practice/practice_target.jpg","null","null","null","null","","200","1901.7899999627843","","","","","",""
"","null","html-keyboard-response","4","128606","0.0-4.0","SS1604588489700","","null","","","","","","","","","","","","<img src=images/blank.png width =""500"" height = ""500"" style=""border:5px solid black"">","","",""
"","1120.4049999359995","practice-block","5","129929","0.0-5.0","SS1604588489700","<img src='images/practice/practice_background.jpeg' width ='500' height = '500' style='border:5px solid black'>","40","null","images/practice/practice_target.jpg","null","null","null","null","","200","1320.4049999359995","","","","","",""
"","null","html-keyboard-response","6","130999","0.0-6.0","SS1604588489700","","null","","","","","","","","","","","","<img src=images/blank.png width =""500"" height = ""500"" style=""border:5px solid black"">","","",""
"","814.9799999082461","practice-block","7","132016","0.0-7.0","SS1604588489700","<img src='images/practice/practice_deviant.jpeg' width ='500' height = '500' style='border:5px solid black'>","40","null","images/practice/practice_target.jpg","null","null","null","null","","200","1014.9799999082461","","","","","",""
"","null","html-keyboard-response","8","132909","0.0-8.0","SS1604588489700","","null","","","","","","","","","","","","<img src=images/blank.png width =""500"" height = ""500"" style=""border:5px solid black"">","","",""
"","10572.649999987334","practice-block","9","143684","0.0-9.0-0.0","SS1604588489700","<img src='images/practice/practice_target.jpg' width ='500' height = '500' style='border:5px solid black'>","40","null","images/practice/practice_target.jpg","null","null","null","null","","200","10772.649999987334","yes","825.2949999878183","","","",""
"","null","html-keyboard-response","10","144897","0.0-10.0","SS1604588489700","","null","","","","","","","","","","","","<img src=images/blank.png width =""500"" height = ""500"" style=""border:5px solid black"">","","",""
"","595.670000067912","practice-block","11","145695","0.0-11.0","SS1604588489700","<img src='images/practice/practice_background.jpeg' width ='500' height = '500' style='border:5px solid black'>","40","null","images/practice/practice_target.jpg","null","null","null","null","","200","795.670000067912","","","","","",""
"[{""page_index"":0,""viewing_time"":3538}]","3538","task-instructions","12","149235","0.0-12.0","SS1604588489700","","","","","","","","","","","","","","","","",""
"[{""page_index"":0,""viewing_time"":10635.145000065677},{""page_index"":1,""viewing_time"":9735.794999985956},{""page_index"":2,""viewing_time"":2999.0250000264496}]","23370.220000040717","instructions","13","172607","0.0-13.0","SS1604588489700","","","","","","","","","","","","","","","","",""
"","null","html-keyboard-response","14","173412","0.0-14.0-0.0","SS1604588489700","","null","","","","","","","","","","","","<img src=images/blank.png width =""500"" height = ""500"" style=""border:5px solid black"">","","",""
"","4256.599999964237","stimulus-presentation","15","177873","0.0-14.0-1.0","SS1604588489700","<img src='images/complex/11.png' width ='500' height = '500' style='border:5px solid black'>","40","mixed_complex_deviant","images/simple/2.png","images/simple/5.png","images/complex/2.png,images/complex/16.png,images/complex/4.png,images/complex/3.png,images/complex/12.png,images/complex/11.png,images/complex/9.png","0","null","","200","4456.599999964237","","","","deviant","",""
"","null","html-keyboard-response","16","179123","0.0-14.0-0.1","SS1604588489700","","null","","","","","","","","","","","","<img src=images/blank.png width =""500"" height = ""500"" style=""border:5px solid black"">","","",""
"","2396.0750000551343","stimulus-presentation","17","181721","0.0-14.0-1.1","SS1604588489700","<img src='images/simple/5.png' width ='500' height = '500' style='border:5px solid black'>","40","mixed_complex_deviant","images/simple/2.png","images/simple/5.png","images/complex/2.png,images/complex/16.png,images/complex/4.png,images/complex/3.png,images/complex/12.png,images/complex/11.png,images/complex/9.png","0","null","","200","2596.0750000551343","","","","background","",""
"","null","html-keyboard-response","18","182844","0.0-14.0-0.2","SS1604588489700","","null","","","","","","","","","","","","<img src=images/blank.png width =""500"" height = ""500"" style=""border:5px solid black"">","","",""
"","6219.869999913499","stimulus-presentation","19","189267","0.0-14.0-1.2","SS1604588489700","<img src='images/simple/2.png' width ='500' height = '500' style='border:5px solid black'>","40","mixed_complex_deviant","images/simple/2.png","images/simple/5.png","images/complex/2.png,images/complex/16.png,images/complex/4.png,images/complex/3.png,images/complex/12.png,images/complex/11.png,images/complex/9.png","0","null","","200","6419.869999913499","yes","1178.0499999877065","","target","",""
"","null","html-keyboard-response","20","190416","0.0-14.0-0.3","SS1604588489700","","null","","","","","","","","","","","","<img src=images/blank.png width =""500"" height = ""500"" style=""border:5px solid black"">","","",""
"","2464.9500000523403","stimulus-presentation","21","193083","0.0-14.0-1.3","SS1604588489700","<img src='images/simple/5.png' width ='500' height = '500' style='border:5px solid black'>","40","mixed_complex_deviant","images/simple/2.png","images/simple/5.png","images/complex/2.png,images/complex/16.png,images/complex/4.png,images/complex/3.png,images/complex/12.png,images/complex/11.png,images/complex/9.png","0","null","","200","2664.9500000523403","","","","background","",""
"","null","html-keyboard-response","22","194162","0.0-14.0-0.4","SS1604588489700","","null","","","","","","","","","","","","<img src=images/blank.png width =""500"" height = ""500"" style=""border:5px solid black"">","","",""
"","2215.139999985695","stimulus-presentation","23","196579","0.0-14.0-1.4","SS1604588489700","<img src='images/simple/5.png' width ='500' height = '500' style='border:5px solid black'>","40","mixed_complex_deviant","images/simple/2.png","images/simple/5.png","images/complex/2.png,images/complex/16.png,images/complex/4.png,images/complex/3.png,images/complex/12.png,images/complex/11.png,images/complex/9.png","0","null","","200","2415.139999985695","","","","background","",""
"","null","html-keyboard-response","24","197731","0.0-14.0-0.5","SS1604588489700","","null","","","","","","","","","","","","<img src=images/blank.png width =""500"" height = ""500"" style=""border:5px solid black"">","","",""
"","729.1850000619888","stimulus-presentation","25","198663","0.0-14.0-1.5","SS1604588489700","<img src='images/simple/5.png' width ='500' height = '500' style='border:5px solid black'>","40","mixed_complex_deviant","images/simple/2.png","images/simple/5.png","images/complex/2.png,images/complex/16.png,images/complex/4.png,images/complex/3.png,images/complex/12.png,images/complex/11.png,images/complex/9.png","0","null","","200","929.1850000619888","","","","background","",""
"","null","html-keyboard-response","26","199566","0.0-14.0-0.6","SS1604588489700","","null","","","","","","","","","","","","<img src=images/blank.png width =""500"" height = ""500"" style=""border:5px solid black"">","","",""
"","392.05999998375773","stimulus-presentation","27","200160","0.0-14.0-1.6","SS1604588489700","<img src='images/simple/5.png' width ='500' height = '500' style='border:5px solid black'>","40","mixed_complex_deviant","images/simple/2.png","images/simple/5.png","images/complex/2.png,images/complex/16.png,images/complex/4.png,images/complex/3.png,images/complex/12.png,images/complex/11.png,images/complex/9.png","0","null","","200","592.0599999837577","","","","background","",""
"","null","html-keyboard-response","28","201172","0.0-14.0-0.7","SS1604588489700","","null","","","","","","","","","","","","<img src=images/blank.png width =""500"" height = ""500"" style=""border:5px solid black"">","","",""
"","2851.3099999399856","stimulus-presentation","29","204225","0.0-14.0-1.7","SS1604588489700","<img src='images/simple/5.png' width ='500' height = '500' style='border:5px solid black'>","40","mixed_complex_deviant","images/simple/2.png","images/simple/5.png","images/complex/2.png,images/complex/16.png,images/complex/4.png,images/complex/3.png,images/complex/12.png,images/complex/11.png,images/complex/9.png","0","null","","200","3051.3099999399856","","","","background","",""
"","null","html-keyboard-response","30","205468","0.0-14.0-0.8","SS1604588489700","","null","","","","","","","","","","","","<img src=images/blank.png width =""500"" height = ""500"" style=""border:5px solid black"">","","",""
"","4823.345000040717","stimulus-presentation","31","210494","0.0-14.0-1.8","SS1604588489700","<img src='images/complex/9.png' width ='500' height = '500' style='border:5px solid black'>","40","mixed_complex_deviant","images/simple/2.png","images/simple/5.png","images/complex/2.png,images/complex/16.png,images/complex/4.png,images/complex/3.png,images/complex/12.png,images/complex/11.png,images/complex/9.png","0","null","","200","5023.345000040717","","","","deviant","",""
"","null","html-keyboard-response","32","211390","0.0-14.0-0.9","SS1604588489700","","null","","","","","","","","","","","","<img src=images/blank.png width =""500"" height = ""500"" style=""border:5px solid black"">","","",""
"","2369.749999954365","stimulus-presentation","33","213962","0.0-14.0-1.9","SS1604588489700","<img src='images/simple/5.png' width ='500' height = '500' style='border:5px solid black'>","40","mixed_complex_deviant","images/simple/2.png","images/simple/5.png","images/complex/2.png,images/complex/16.png,images/complex/4.png,images/complex/3.png,images/complex/12.png,images/complex/11.png,images/complex/9.png","0","null","","200","2569.749999954365","","","","background","",""
"","null","html-keyboard-response","34","215015","0.0-14.0-0.10","SS1604588489700","","null","","","","","","","","","","","","<img src=images/blank.png width =""500"" height = ""500"" style=""border:5px solid black"">","","",""
"","2588.274999987334","stimulus-presentation","35","217807","0.0-14.0-1.10","SS1604588489700","<img src='images/simple/5.png' width ='500' height = '500' style='border:5px solid black'>","40","mixed_complex_deviant","images/simple/2.png","images/simple/5.png","images/complex/2.png,images/complex/16.png,images/complex/4.png,images/complex/3.png,images/complex/12.png,images/complex/11.png,images/complex/9.png","0","null","","200","2788.274999987334","","","","background","",""
"","null","html-keyboard-response","36","218774","0.0-14.0-0.11","SS1604588489700","","null","","","","","","","","","","","","<img src=images/blank.png width =""500"" height = ""500"" style=""border:5px solid black"">","","",""
"","2311.424999963492","stimulus-presentation","37","221288","0.0-14.0-1.11","SS1604588489700","<img src='images/simple/5.png' width ='500' height = '500' style='border:5px solid black'>","40","mixed_complex_deviant","images/simple/2.png","images/simple/5.png","images/complex/2.png,images/complex/16.png,images/complex/4.png,images/complex/3.png,images/complex/12.png,images/complex/11.png,images/complex/9.png","0","null","","200","2511.424999963492","","","","background","",""
"","null","html-keyboard-response","38","222324","0.0-14.0-0.12","SS1604588489700","","null","","","","","","","","","","","","<img src=images/blank.png width =""500"" height = ""500"" style=""border:5px solid black"">","","",""
"","823.6549999564886","stimulus-presentation","39","223350","0.0-14.0-1.12","SS1604588489700","<img src='images/simple/5.png' width ='500' height = '500' style='border:5px solid black'>","40","mixed_complex_deviant","images/simple/2.png","images/simple/5.png","images/complex/2.png,images/complex/16.png,images/complex/4.png,images/complex/3.png,images/complex/12.png,images/complex/11.png,images/complex/9.png","0","null","","200","1023.6549999564886","","","","background","",""
"","null","html-keyboard-response","40","224279","0.0-14.0-0.13","SS1604588489700","","null","","","","","","","","","","","","<img src=images/blank.png width =""500"" height = ""500"" style=""border:5px solid black"">","","",""
"","1460.1949999341741","stimulus-presentation","41","225943","0.0-14.0-1.13","SS1604588489700","<img src='images/simple/5.png' width ='500' height = '500' style='border:5px solid black'>","40","mixed_complex_deviant","images/simple/2.png","images/simple/5.png","images/complex/2.png,images/complex/16.png,images/complex/4.png,images/complex/3.png,images/complex/12.png,images/complex/11.png,images/complex/9.png","0","null","","200","1660.1949999341741","","","","background","",""
"","null","html-keyboard-response","42","226959","0.0-14.0-0.14","SS1604588489700","","null","","","","","","","","","","","","<img src=images/blank.png width =""500"" height = ""500"" style=""border:5px solid black"">","","",""
"","828.1300000380725","stimulus-presentation","43","227989","0.0-14.0-1.14","SS1604588489700","<img src='images/simple/5.png' width ='500' height = '500' style='border:5px solid black'>","40","mixed_complex_deviant","images/simple/2.png","images/simple/5.png","images/complex/2.png,images/complex/16.png,images/complex/4.png,images/complex/3.png,images/complex/12.png,images/complex/11.png,images/complex/9.png","0","null","","200","1028.1300000380725","","","","background","",""
"","null","html-keyboard-response","44","229043","0.0-14.0-0.15","SS1604588489700","","null","","","","","","","","","","","","<img src=images/blank.png width =""500"" height = ""500"" style=""border:5px solid black"">","","",""
"","1031.0750000644475","stimulus-presentation","45","230277","0.0-14.0-1.15","SS1604588489700","<img src='images/simple/5.png' width ='500' height = '500' style='border:5px solid black'>","40","mixed_complex_deviant","images/simple/2.png","images/simple/5.png","images/complex/2.png,images/complex/16.png,images/complex/4.png,images/complex/3.png,images/complex/12.png,images/complex/11.png,images/complex/9.png","0","null","","200","1231.0750000644475","","","","background","",""
"","null","html-keyboard-response","46","231469","0.0-14.0-0.16","SS1604588489700","","null","","","","","","","","","","","","<img src=images/blank.png width =""500"" height = ""500"" style=""border:5px solid black"">","","",""
"","708.600000012666","stimulus-presentation","47","232380","0.0-14.0-1.16","SS1604588489700","<img src='images/simple/5.png' width ='500' height = '500' style='border:5px solid black'>","40","mixed_complex_deviant","images/simple/2.png","images/simple/5.png","images/complex/2.png,images/complex/16.png,images/complex/4.png,images/complex/3.png,images/complex/12.png,images/complex/11.png,images/complex/9.png","0","null","","200","908.600000012666","","","","background","",""
"","null","html-keyboard-response","48","233473","0.0-14.0-0.17","SS1604588489700","","null","","","","","","","","","","","","<img src=images/blank.png width =""500"" height = ""500"" style=""border:5px solid black"">","","",""
"","288.90000004321337","stimulus-presentation","49","233964","0.0-14.0-1.17","SS1604588489700","<img src='images/simple/5.png' width ='500' height = '500' style='border:5px solid black'>","40","mixed_complex_deviant","images/simple/2.png","images/simple/5.png","images/complex/2.png,images/complex/16.png,images/complex/4.png,images/complex/3.png,images/complex/12.png,images/complex/11.png,images/complex/9.png","0","null","","200","488.90000004321337","","","","background","",""
"","null","html-keyboard-response","50","235011","0.0-14.0-0.18","SS1604588489700","","null","","","","","","","","","","","","<img src=images/blank.png width =""500"" height = ""500"" style=""border:5px solid black"">","","",""
"","5483.134999987669","stimulus-presentation","51","240697","0.0-14.0-1.18","SS1604588489700","<img src='images/complex/2.png' width ='500' height = '500' style='border:5px solid black'>","40","mixed_complex_deviant","images/simple/2.png","images/simple/5.png","images/complex/2.png,images/complex/16.png,images/complex/4.png,images/complex/3.png,images/complex/12.png,images/complex/11.png,images/complex/9.png","0","null","","200","5683.134999987669","","","","deviant","",""
"","null","html-keyboard-response","52","241708","0.0-14.0-0.19","SS1604588489700","","null","","","","","","","","","","","","<img src=images/blank.png width =""500"" height = ""500"" style=""border:5px solid black"">","","",""
"","663.8150000944734","stimulus-presentation","53","242575","0.0-14.0-1.19","SS1604588489700","<img src='images/simple/5.png' width ='500' height = '500' style='border:5px solid black'>","40","mixed_complex_deviant","images/simple/2.png","images/simple/5.png","images/complex/2.png,images/complex/16.png,images/complex/4.png,images/complex/3.png,images/complex/12.png,images/complex/11.png,images/complex/9.png","0","null","","200","863.8150000944734","","","","background","",""
"","null","html-keyboard-response","54","243385","0.0-14.0-0.20","SS1604588489700","","null","","","","","","","","","","","","<img src=images/blank.png width =""500"" height = ""500"" style=""border:5px solid black"">","","",""
"","3226.3650000095367","stimulus-presentation","55","246814","0.0-14.0-1.20","SS1604588489700","<img src='images/simple/2.png' width ='500' height = '500' style='border:5px solid black'>","40","mixed_complex_deviant","images/simple/2.png","images/simple/5.png","images/complex/2.png,images/complex/16.png,images/complex/4.png,images/complex/3.png,images/complex/12.png,images/complex/11.png,images/complex/9.png","0","null","","200","3426.3650000095367","yes","1515.7050000270829","","target","",""
"","null","html-keyboard-response","56","247846","0.0-14.0-0.21","SS1604588489700","","null","","","","","","","","","","","","<img src=images/blank.png width =""500"" height = ""500"" style=""border:5px solid black"">","","",""
"","850.330000044778","stimulus-presentation","57","248899","0.0-14.0-1.21","SS1604588489700","<img src='images/simple/5.png' width ='500' height = '500' style='border:5px solid black'>","40","mixed_complex_deviant","images/simple/2.png","images/simple/5.png","images/complex/2.png,images/complex/16.png,images/complex/4.png,images/complex/3.png,images/complex/12.png,images/complex/11.png,images/complex/9.png","0","null","","200","1050.330000044778","","","","background","",""
"","null","html-keyboard-response","58","249814","0.0-14.0-0.22","SS1604588489700","","null","","","","","","","","","","","","<img src=images/blank.png width =""500"" height = ""500"" style=""border:5px solid black"">","","",""
"","1816.5349999908358","stimulus-presentation","59","251833","0.0-14.0-1.22","SS1604588489700","<img src='images/simple/2.png' width ='500' height = '500' style='border:5px solid black'>","40","mixed_complex_deviant","images/simple/2.png","images/simple/5.png","images/complex/2.png,images/complex/16.png,images/complex/4.png,images/complex/3.png,images/complex/12.png,images/complex/11.png,images/complex/9.png","0","null","","200","2016.5349999908358","yes","653.249999973923","","target","",""
"","null","html-keyboard-response","60","253063","0.0-14.0-0.23","SS1604588489700","","null","","","","","","","","","","","","<img src=images/blank.png width =""500"" height = ""500"" style=""border:5px solid black"">","","",""
"","2110.6249999720603","stimulus-presentation","61","255376","0.0-14.0-1.23","SS1604588489700","<img src='images/simple/2.png' width ='500' height = '500' style='border:5px solid black'>","40","mixed_complex_deviant","images/simple/2.png","images/simple/5.png","images/complex/2.png,images/complex/16.png,images/complex/4.png,images/complex/3.png,images/complex/12.png,images/complex/11.png,images/complex/9.png","0","null","","200","2310.6249999720603","yes","709.389999974519","","target","",""
"","null","html-keyboard-response","62","256341","0.0-14.0-0.24","SS1604588489700","","null","","","","","","","","","","","","<img src=images/blank.png width =""500"" height = ""500"" style=""border:5px solid black"">","","",""
"","1988.2849999703467","stimulus-presentation","63","258532","0.0-14.0-1.24","SS1604588489700","<img src='images/complex/3.png' width ='500' height = '500' style='border:5px solid black'>","40","mixed_complex_deviant","images/simple/2.png","images/simple/5.png","images/complex/2.png,images/complex/16.png,images/complex/4.png,images/complex/3.png,images/complex/12.png,images/complex/11.png,images/complex/9.png","0","null","","200","2188.2849999703467","","","","deviant","",""
"","null","html-keyboard-response","64","259565","0.0-14.0-0.25","SS1604588489700","","null","","","","","","","","","","","","<img src=images/blank.png width =""500"" height = ""500"" style=""border:5px solid black"">","","",""
"","649.0500000072643","stimulus-presentation","65","260417","0.0-14.0-1.25","SS1604588489700","<img src='images/simple/5.png' width ='500' height = '500' style='border:5px solid black'>","40","mixed_complex_deviant","images/simple/2.png","images/simple/5.png","images/complex/2.png,images/complex/16.png,images/complex/4.png,images/complex/3.png,images/complex/12.png,images/complex/11.png,images/complex/9.png","0","null","","200","849.0500000072643","","","","background","",""
"","null","html-keyboard-response","66","261410","0.0-14.0-0.26","SS1604588489700","","null","","","","","","","","","","","","<img src=images/blank.png width =""500"" height = ""500"" style=""border:5px solid black"">","","",""
"","432.7000000048429","stimulus-presentation","67","262045","0.0-14.0-1.26","SS1604588489700","<img src='images/simple/5.png' width ='500' height = '500' style='border:5px solid black'>","40","mixed_complex_deviant","images/simple/2.png","images/simple/5.png","images/complex/2.png,images/complex/16.png,images/complex/4.png,images/complex/3.png,images/complex/12.png,images/complex/11.png,images/complex/9.png","0","null","","200","632.7000000048429","","","","background","",""
"","null","html-keyboard-response","68","263167","0.0-14.0-0.27","SS1604588489700","","null","","","","","","","","","","","","<img src=images/blank.png width =""500"" height = ""500"" style=""border:5px solid black"">","","",""
"","748.9250000799075","stimulus-presentation","69","264118","0.0-14.0-1.27","SS1604588489700","<img src='images/simple/5.png' width ='500' height = '500' style='border:5px solid black'>","40","mixed_complex_deviant","images/simple/2.png","images/simple/5.png","images/complex/2.png,images/complex/16.png,images/complex/4.png,images/complex/3.png,images/complex/12.png,images/complex/11.png,images/complex/9.png","0","null","","200","948.9250000799075","","","","background","",""
"","null","html-keyboard-response","70","265375","0.0-14.0-0.28","SS1604588489700","","null","","","","","","","","","","","","<img src=images/blank.png width =""500"" height = ""500"" style=""border:5px solid black"">","","",""
"","7207.909999997355","stimulus-presentation","71","272786","0.0-14.0-1.28","SS1604588489700","<img src='images/complex/12.png' width ='500' height = '500' style='border:5px solid black'>","40","mixed_complex_deviant","images/simple/2.png","images/simple/5.png","images/complex/2.png,images/complex/16.png,images/complex/4.png,images/complex/3.png,images/complex/12.png,images/complex/11.png,images/complex/9.png","0","null","","200","7407.909999997355","","","","deviant","",""
"","null","html-keyboard-response","72","273683","0.0-14.0-0.29","SS1604588489700","","null","","","","","","","","","","","","<img src=images/blank.png width =""500"" height = ""500"" style=""border:5px solid black"">","","",""
"","529.1999999899417","stimulus-presentation","73","274414","0.0-14.0-1.29","SS1604588489700","<img src='images/simple/5.png' width ='500' height = '500' style='border:5px solid black'>","40","mixed_complex_deviant","images/simple/2.png","images/simple/5.png","images/complex/2.png,images/complex/16.png,images/complex/4.png,images/complex/3.png,images/complex/12.png,images/complex/11.png,images/complex/9.png","0","null","","200","729.1999999899417","","","","background","",""
"","null","html-keyboard-response","74","275255","0.0-14.0-0.30","SS1604588489700","","null","","","","","","","","","","","","<img src=images/blank.png width =""500"" height = ""500"" style=""border:5px solid black"">","","",""
"","493.0750000057742","stimulus-presentation","75","275951","0.0-14.0-1.30","SS1604588489700","<img src='images/simple/5.png' width ='500' height = '500' style='border:5px solid black'>","40","mixed_complex_deviant","images/simple/2.png","images/simple/5.png","images/complex/2.png,images/complex/16.png,images/complex/4.png,images/complex/3.png,images/complex/12.png,images/complex/11.png,images/complex/9.png","0","null","","200","693.0750000057742","","","","background","",""
"","null","html-keyboard-response","76","276859","0.0-14.0-0.31","SS1604588489700","","null","","","","","","","","","","","","<img src=images/blank.png width =""500"" height = ""500"" style=""border:5px solid black"">","","",""
"","507.0149999810383","stimulus-presentation","77","277569","0.0-14.0-1.31","SS1604588489700","<img src='images/simple/5.png' width ='500' height = '500' style='border:5px solid black'>","40","mixed_complex_deviant","images/simple/2.png","images/simple/5.png","images/complex/2.png,images/complex/16.png,images/complex/4.png,images/complex/3.png,images/complex/12.png,images/complex/11.png,images/complex/9.png","0","null","","200","707.0149999810383","","","","background","",""
"","null","html-keyboard-response","78","278715","0.0-14.0-0.32","SS1604588489700","","null","","","","","","","","","","","","<img src=images/blank.png width =""500"" height = ""500"" style=""border:5px solid black"">","","",""
"","700.4050000105053","stimulus-presentation","79","279618","0.0-14.0-1.32","SS1604588489700","<img src='images/simple/5.png' width ='500' height = '500' style='border:5px solid black'>","40","mixed_complex_deviant","images/simple/2.png","images/simple/5.png","images/complex/2.png,images/complex/16.png,images/complex/4.png,images/complex/3.png,images/complex/12.png,images/complex/11.png,images/complex/9.png","0","null","","200","900.4050000105053","","","","background","",""
"","null","html-keyboard-response","80","280656","0.0-14.0-0.33","SS1604588489700","","null","","","","","","","","","","","","<img src=images/blank.png width =""500"" height = ""500"" style=""border:5px solid black"">","","",""
"","8473.490000003949","stimulus-presentation","81","289333","0.0-14.0-1.33","SS1604588489700","<img src='images/simple/2.png' width ='500' height = '500' style='border:5px solid black'>","40","mixed_complex_deviant","images/simple/2.png","images/simple/5.png","images/complex/2.png,images/complex/16.png,images/complex/4.png,images/complex/3.png,images/complex/12.png,images/complex/11.png,images/complex/9.png","0","null","","200","8673.490000003949","yes","1351.905000046827","","target","",""
"","null","html-keyboard-response","82","290367","0.0-14.0-0.34","SS1604588489700","","null","","","","","","","","","","","","<img src=images/blank.png width =""500"" height = ""500"" style=""border:5px solid black"">","","",""
"","722.330000018701","stimulus-presentation","83","291292","0.0-14.0-1.34","SS1604588489700","<img src='images/simple/5.png' width ='500' height = '500' style='border:5px solid black'>","40","mixed_complex_deviant","images/simple/2.png","images/simple/5.png","images/complex/2.png,images/complex/16.png,images/complex/4.png,images/complex/3.png,images/complex/12.png,images/complex/11.png,images/complex/9.png","0","null","","200","922.330000018701","","","","background","",""
"","null","html-keyboard-response","84","292574","0.0-14.0-0.35","SS1604588489700","","null","","","","","","","","","","","","<img src=images/blank.png width =""500"" height = ""500"" style=""border:5px solid black"">","","",""
"","543.4649999951944","stimulus-presentation","85","293321","0.0-14.0-1.35","SS1604588489700","<img src='images/simple/5.png' width ='500' height = '500' style='border:5px solid black'>","40","mixed_complex_deviant","images/simple/2.png","images/simple/5.png","images/complex/2.png,images/complex/16.png,images/complex/4.png,images/complex/3.png,images/complex/12.png,images/complex/11.png,images/complex/9.png","0","null","","200","743.4649999951944","","","","background","",""
"","null","html-keyboard-response","86","294459","0.0-14.0-0.36","SS1604588489700","","null","","","","","","","","","","","","<img src=images/blank.png width =""500"" height = ""500"" style=""border:5px solid black"">","","",""
"","5592.949999962002","stimulus-presentation","87","300255","0.0-14.0-1.36","SS1604588489700","<img src='images/complex/16.png' width ='500' height = '500' style='border:5px solid black'>","40","mixed_complex_deviant","images/simple/2.png","images/simple/5.png","images/complex/2.png,images/complex/16.png,images/complex/4.png,images/complex/3.png,images/complex/12.png,images/complex/11.png,images/complex/9.png","0","null","","200","5792.949999962002","","","","deviant","",""
"","null","html-keyboard-response","88","301153","0.0-14.0-0.37","SS1604588489700","","null","","","","","","","","","","","","<img src=images/blank.png width =""500"" height = ""500"" style=""border:5px solid black"">","","",""
"","3644.590000039898","stimulus-presentation","89","305002","0.0-14.0-1.37","SS1604588489700","<img src='images/simple/2.png' width ='500' height = '500' style='border:5px solid black'>","40","mixed_complex_deviant","images/simple/2.png","images/simple/5.png","images/complex/2.png,images/complex/16.png,images/complex/4.png,images/complex/3.png,images/complex/12.png,images/complex/11.png,images/complex/9.png","0","null","","200","3844.590000039898","yes","2173.090000054799","","target","",""
"","null","html-keyboard-response","90","306102","0.0-14.0-0.38","SS1604588489700","","null","","","","","","","","","","","","<img src=images/blank.png width =""500"" height = ""500"" style=""border:5px solid black"">","","",""
"","794.7149999672547","stimulus-presentation","91","307100","0.0-14.0-1.38","SS1604588489700","<img src='images/simple/5.png' width ='500' height = '500' style='border:5px solid black'>","40","mixed_complex_deviant","images/simple/2.png","images/simple/5.png","images/complex/2.png,images/complex/16.png,images/complex/4.png,images/complex/3.png,images/complex/12.png,images/complex/11.png,images/complex/9.png","0","null","","200","994.7149999672547","","","","background","",""
"","null","html-keyboard-response","92","308118","0.0-14.0-0.39","SS1604588489700","","null","","","","","","","","","","","","<img src=images/blank.png width =""500"" height = ""500"" style=""border:5px solid black"">","","",""
"","2142.229999997653","stimulus-presentation","93","310463","0.0-14.0-1.39","SS1604588489700","<img src='images/simple/5.png' width ='500' height = '500' style='border:5px solid black'>","40","mixed_complex_deviant","images/simple/2.png","images/simple/5.png","images/complex/2.png,images/complex/16.png,images/complex/4.png,images/complex/3.png,images/complex/12.png,images/complex/11.png,images/complex/9.png","0","null","","200","2342.229999997653","","","","background","",""
"","null","html-keyboard-response","94","311478","0.0-14.0-0.40","SS1604588489700","","null","","","","","","","","","","","","<img src=images/blank.png width =""500"" height = ""500"" style=""border:5px solid black"">","","",""
"","4149.015000090003","stimulus-presentation","95","315830","0.0-14.0-1.40","SS1604588489700","<img src='images/complex/4.png' width ='500' height = '500' style='border:5px solid black'>","40","mixed_complex_deviant","images/simple/2.png","images/simple/5.png","images/complex/2.png,images/complex/16.png,images/complex/4.png,images/complex/3.png,images/complex/12.png,images/complex/11.png,images/complex/9.png","0","null","","200","4349.015000090003","","","","deviant","",""
"","null","html-keyboard-response","96","317037","0.0-14.0-0.41","SS1604588489700","","null","","","","","","","","","","","","<img src=images/blank.png width =""500"" height = ""500"" style=""border:5px solid black"">","","",""
"","628.1350000062957","stimulus-presentation","97","317868","0.0-14.0-1.41","SS1604588489700","<img src='images/simple/5.png' width ='500' height = '500' style='border:5px solid black'>","40","mixed_complex_deviant","images/simple/2.png","images/simple/5.png","images/complex/2.png,images/complex/16.png,images/complex/4.png,images/complex/3.png,images/complex/12.png,images/complex/11.png,images/complex/9.png","0","null","","200","828.1350000062957","","","","background","",""
"","null","html-keyboard-response","98","319039","0.0-14.0-0.42","SS1604588489700","","null","","","","","","","","","","","","<img src=images/blank.png width =""500"" height = ""500"" style=""border:5px solid black"">","","",""
"","460.0749999517575","stimulus-presentation","99","319702","0.0-14.0-1.42","SS1604588489700","<img src='images/simple/5.png' width ='500' height = '500' style='border:5px solid black'>","40","mixed_complex_deviant","images/simple/2.png","images/simple/5.png","images/complex/2.png,images/complex/16.png,images/complex/4.png,images/complex/3.png,images/complex/12.png,images/complex/11.png,images/complex/9.png","0","null","","200","660.0749999517575","","","","background","",""
"","null","html-keyboard-response","100","320531","0.0-14.0-0.43","SS1604588489700","","null","","","","","","","","","","","","<img src=images/blank.png width =""500"" height = ""500"" style=""border:5px solid black"">","","",""
"","1489.9250000016764","stimulus-presentation","101","322225","0.0-14.0-1.43","SS1604588489700","<img src='images/simple/5.png' width ='500' height = '500' style='border:5px solid black'>","40","mixed_complex_deviant","images/simple/2.png","images/simple/5.png","images/complex/2.png,images/complex/16.png,images/complex/4.png,images/complex/3.png,images/complex/12.png,images/complex/11.png,images/complex/9.png","0","null","","200","1689.9250000016764","","","","background","",""
"","null","html-keyboard-response","102","323192","0.0-14.0-0.44","SS1604588489700","","null","","","","","","","","","","","","<img src=images/blank.png width =""500"" height = ""500"" style=""border:5px solid black"">","","",""
"","2128.510000067763","stimulus-presentation","103","325524","0.0-14.0-1.44","SS1604588489700","<img src='images/simple/5.png' width ='500' height = '500' style='border:5px solid black'>","40","mixed_complex_deviant","images/simple/2.png","images/simple/5.png","images/complex/2.png,images/complex/16.png,images/complex/4.png,images/complex/3.png,images/complex/12.png,images/complex/11.png,images/complex/9.png","0","null","","200","2328.510000067763","","","","background","",""
"","null","html-keyboard-response","104","326695","0.0-14.0-0.45","SS1604588489700","","null","","","","","","","","","","","","<img src=images/blank.png width =""500"" height = ""500"" style=""border:5px solid black"">","","",""
"","280.3449999773875","stimulus-presentation","105","327178","0.0-14.0-1.45","SS1604588489700","<img src='images/simple/5.png' width ='500' height = '500' style='border:5px solid black'>","40","mixed_complex_deviant","images/simple/2.png","images/simple/5.png","images/complex/2.png,images/complex/16.png,images/complex/4.png,images/complex/3.png,images/complex/12.png,images/complex/11.png,images/complex/9.png","0","null","","200","480.3449999773875","","","","background","",""
"","null","html-keyboard-response","106","327989","0.0-14.0-0.46","SS1604588489700","","null","","","","","","","","","","","","<img src=images/blank.png width =""500"" height = ""500"" style=""border:5px solid black"">","","",""
"","1524.6049999259412","stimulus-presentation","107","329717","0.0-14.0-1.46","SS1604588489700","<img src='images/simple/2.png' width ='500' height = '500' style='border:5px solid black'>","40","mixed_complex_deviant","images/simple/2.png","images/simple/5.png","images/complex/2.png,images/complex/16.png,images/complex/4.png,images/complex/3.png,images/complex/12.png,images/complex/11.png,images/complex/9.png","0","null","","200","1724.6049999259412","yes","572.5499999243766","","target","",""
"","null","html-keyboard-response","108","330970","0.0-14.0-0.47","SS1604588489700","","null","","","","","","","","","","","","<img src=images/blank.png width =""500"" height = ""500"" style=""border:5px solid black"">","","",""
"","380.08500006981194","stimulus-presentation","109","331554","0.0-14.0-1.47","SS1604588489700","<img src='images/simple/5.png' width ='500' height = '500' style='border:5px solid black'>","40","mixed_complex_deviant","images/simple/2.png","images/simple/5.png","images/complex/2.png,images/complex/16.png,images/complex/4.png,images/complex/3.png,images/complex/12.png,images/complex/11.png,images/complex/9.png","0","null","","200","580.0850000698119","","","","background","",""
"","null","html-keyboard-response","110","332731","0.0-14.0-0.48","SS1604588489700","","null","","","","","","","","","","","","<img src=images/blank.png width =""500"" height = ""500"" style=""border:5px solid black"">","","",""
"","178.76000003889203","stimulus-presentation","111","333113","0.0-14.0-1.48","SS1604588489700","<img src='images/simple/5.png' width ='500' height = '500' style='border:5px solid black'>","40","mixed_complex_deviant","images/simple/2.png","images/simple/5.png","images/complex/2.png,images/complex/16.png,images/complex/4.png,images/complex/3.png,images/complex/12.png,images/complex/11.png,images/complex/9.png","0","null","","200","378.76000003889203","","","","background","",""
"[{""page_index"":0,""viewing_time"":5001}]","5001","task-instructions","112","338116","0.0-15.0","SS1604588489700","","","","","","","","","","","","","","","","",""
"[{""page_index"":0,""viewing_time"":6291.029999963939},{""page_index"":1,""viewing_time"":7906.760000041686},{""page_index"":2,""viewing_time"":1136.9299999205396}]","15334.990000003017","instructions","113","353454","0.0-16.0","SS1604588489700","","","","","","","","","","","","","","","","",""
"","null","html-keyboard-response","114","354743","0.0-17.0-0.0","SS1604588489700","","null","","","","","","","","","","","","<img src=images/blank.png width =""500"" height = ""500"" style=""border:5px solid black"">","","",""
"","2068.9199999906123","stimulus-presentation","115","357015","0.0-17.0-1.0","SS1604588489700","<img src='images/complex/10.png' width ='500' height = '500' style='border:5px solid black'>","40","mixed_simple_deviant","images/complex/6.png","images/complex/10.png","images/simple/4.png,images/simple/7.png,images/simple/10.png,images/simple/9.png,images/simple/16.png,images/simple/13.png,images/simple/17.png","1","null","","200","2268.9199999906123","","","","background","",""
"","null","html-keyboard-response","116","358156","0.0-17.0-0.1","SS1604588489700","","null","","","","","","","","","","","","<img src=images/blank.png width =""500"" height = ""500"" style=""border:5px solid black"">","","",""
"","1106.5299999900162","stimulus-presentation","117","359466","0.0-17.0-1.1","SS1604588489700","<img src='images/simple/4.png' width ='500' height = '500' style='border:5px solid black'>","40","mixed_simple_deviant","images/complex/6.png","images/complex/10.png","images/simple/4.png,images/simple/7.png,images/simple/10.png,images/simple/9.png,images/simple/16.png,images/simple/13.png,images/simple/17.png","1","null","","200","1306.5299999900162","","","","deviant","",""
"","null","html-keyboard-response","118","360461","0.0-17.0-0.2","SS1604588489700","","null","","","","","","","","","","","","<img src=images/blank.png width =""500"" height = ""500"" style=""border:5px solid black"">","","",""
"","2205.3450000239536","stimulus-presentation","119","362870","0.0-17.0-1.2","SS1604588489700","<img src='images/complex/6.png' width ='500' height = '500' style='border:5px solid black'>","40","mixed_simple_deviant","images/complex/6.png","images/complex/10.png","images/simple/4.png,images/simple/7.png,images/simple/10.png,images/simple/9.png,images/simple/16.png,images/simple/13.png,images/simple/17.png","1","null","","200","2405.3450000239536","yes","1169.8649999452755","","target","",""
"","null","html-keyboard-response","120","363715","0.0-17.0-0.3","SS1604588489700","","null","","","","","","","","","","","","<img src=images/blank.png width =""500"" height = ""500"" style=""border:5px solid black"">","","",""
"","654.6399999642745","stimulus-presentation","121","364573","0.0-17.0-1.3","SS1604588489700","<img src='images/complex/10.png' width ='500' height = '500' style='border:5px solid black'>","40","mixed_simple_deviant","images/complex/6.png","images/complex/10.png","images/simple/4.png,images/simple/7.png,images/simple/10.png,images/simple/9.png,images/simple/16.png,images/simple/13.png,images/simple/17.png","1","null","","200","854.6399999642745","","","","background","",""
"","null","html-keyboard-response","122","365479","0.0-17.0-0.4","SS1604588489700","","null","","","","","","","","","","","","<img src=images/blank.png width =""500"" height = ""500"" style=""border:5px solid black"">","","",""
"","361.2250000005588","stimulus-presentation","123","366044","0.0-17.0-1.4","SS1604588489700","<img src='images/complex/10.png' width ='500' height = '500' style='border:5px solid black'>","40","mixed_simple_deviant","images/complex/6.png","images/complex/10.png","images/simple/4.png,images/simple/7.png,images/simple/10.png,images/simple/9.png,images/simple/16.png,images/simple/13.png,images/simple/17.png","1","null","","200","561.2250000005588","","","","background","",""
"","null","html-keyboard-response","124","366856","0.0-17.0-0.5","SS1604588489700","","null","","","","","","","","","","","","<img src=images/blank.png width =""500"" height = ""500"" style=""border:5px solid black"">","","",""
"","501.3899999903515","stimulus-presentation","125","367561","0.0-17.0-1.5","SS1604588489700","<img src='images/complex/10.png' width ='500' height = '500' style='border:5px solid black'>","40","mixed_simple_deviant","images/complex/6.png","images/complex/10.png","images/simple/4.png,images/simple/7.png,images/simple/10.png,images/simple/9.png,images/simple/16.png,images/simple/13.png,images/simple/17.png","1","null","","200","701.3899999903515","","","","background","",""
"","null","html-keyboard-response","126","368672","0.0-17.0-0.6","SS1604588489700","","null","","","","","","","","","","","","<img src=images/blank.png width =""500"" height = ""500"" style=""border:5px solid black"">","","",""
"","446.8699999852106","stimulus-presentation","127","369322","0.0-17.0-1.6","SS1604588489700","<img src='images/complex/10.png' width ='500' height = '500' style='border:5px solid black'>","40","mixed_simple_deviant","images/complex/6.png","images/complex/10.png","images/simple/4.png,images/simple/7.png,images/simple/10.png,images/simple/9.png,images/simple/16.png,images/simple/13.png,images/simple/17.png","1","null","","200","646.8699999852106","","","","background","",""
"","null","html-keyboard-response","128","370157","0.0-17.0-0.7","SS1604588489700","","null","","","","","","","","","","","","<img src=images/blank.png width =""500"" height = ""500"" style=""border:5px solid black"">","","",""
"","324.4499999564141","stimulus-presentation","129","370685","0.0-17.0-1.7","SS1604588489700","<img src='images/complex/10.png' width ='500' height = '500' style='border:5px solid black'>","40","mixed_simple_deviant","images/complex/6.png","images/complex/10.png","images/simple/4.png,images/simple/7.png,images/simple/10.png,images/simple/9.png,images/simple/16.png,images/simple/13.png,images/simple/17.png","1","null","","200","524.4499999564141","","","","background","",""
"","null","html-keyboard-response","130","371789","0.0-17.0-0.8","SS1604588489700","","null","","","","","","","","","","","","<img src=images/blank.png width =""500"" height = ""500"" style=""border:5px solid black"">","","",""
"","206.05999999679625","stimulus-presentation","131","372198","0.0-17.0-1.8","SS1604588489700","<img src='images/complex/10.png' width ='500' height = '500' style='border:5px solid black'>","40","mixed_simple_deviant","images/complex/6.png","images/complex/10.png","images/simple/4.png,images/simple/7.png,images/simple/10.png,images/simple/9.png,images/simple/16.png,images/simple/13.png,images/simple/17.png","1","null","","200","406.05999999679625","","","","background","",""
"","null","html-keyboard-response","132","373045","0.0-17.0-0.9","SS1604588489700","","null","","","","","","","","","","","","<img src=images/blank.png width =""500"" height = ""500"" style=""border:5px solid black"">","","",""
"","1029.0599999716505","stimulus-presentation","133","374277","0.0-17.0-1.9","SS1604588489700","<img src='images/simple/16.png' width ='500' height = '500' style='border:5px solid black'>","40","mixed_simple_deviant","images/complex/6.png","images/complex/10.png","images/simple/4.png,images/simple/7.png,images/simple/10.png,images/simple/9.png,images/simple/16.png,images/simple/13.png,images/simple/17.png","1","null","","200","1229.0599999716505","","","","deviant","",""
"","null","html-keyboard-response","134","375140","0.0-17.0-0.10","SS1604588489700","","null","","","","","","","","","","","","<img src=images/blank.png width =""500"" height = ""500"" style=""border:5px solid black"">","","",""
"","691.7499999981374","stimulus-presentation","135","376036","0.0-17.0-1.10","SS1604588489700","<img src='images/complex/10.png' width ='500' height = '500' style='border:5px solid black'>","40","mixed_simple_deviant","images/complex/6.png","images/complex/10.png","images/simple/4.png,images/simple/7.png,images/simple/10.png,images/simple/9.png,images/simple/16.png,images/simple/13.png,images/simple/17.png","1","null","","200","891.7499999981374","","","","background","",""
"","null","html-keyboard-response","136","377311","0.0-17.0-0.11","SS1604588489700","","null","","","","","","","","","","","","<img src=images/blank.png width =""500"" height = ""500"" style=""border:5px solid black"">","","",""
"","230.31999997328967","stimulus-presentation","137","377746","0.0-17.0-1.11","SS1604588489700","<img src='images/complex/10.png' width ='500' height = '500' style='border:5px solid black'>","40","mixed_simple_deviant","images/complex/6.png","images/complex/10.png","images/simple/4.png,images/simple/7.png,images/simple/10.png,images/simple/9.png,images/simple/16.png,images/simple/13.png,images/simple/17.png","1","null","","200","430.31999997328967","","","","background","",""
"","null","html-keyboard-response","138","378761","0.0-17.0-0.12","SS1604588489700","","null","","","","","","","","","","","","<img src=images/blank.png width =""500"" height = ""500"" style=""border:5px solid black"">","","",""
"","347.234999993816","stimulus-presentation","139","379312","0.0-17.0-1.12","SS1604588489700","<img src='images/complex/10.png' width ='500' height = '500' style='border:5px solid black'>","40","mixed_simple_deviant","images/complex/6.png","images/complex/10.png","images/simple/4.png,images/simple/7.png,images/simple/10.png,images/simple/9.png,images/simple/16.png,images/simple/13.png,images/simple/17.png","1","null","","200","547.234999993816","","","","background","",""
"","null","html-keyboard-response","140","380300","0.0-17.0-0.13","SS1604588489700","","null","","","","","","","","","","","","<img src=images/blank.png width =""500"" height = ""500"" style=""border:5px solid black"">","","",""
"","1902.8249999973923","stimulus-presentation","141","382408","0.0-17.0-1.13","SS1604588489700","<img src='images/complex/6.png' width ='500' height = '500' style='border:5px solid black'>","40","mixed_simple_deviant","images/complex/6.png","images/complex/10.png","images/simple/4.png,images/simple/7.png,images/simple/10.png,images/simple/9.png,images/simple/16.png,images/simple/13.png,images/simple/17.png","1","null","","200","2102.8249999973923","yes","794.9350000126287","","target","",""
"","null","html-keyboard-response","142","383355","0.0-17.0-0.14","SS1604588489700","","null","","","","","","","","","","","","<img src=images/blank.png width =""500"" height = ""500"" style=""border:5px solid black"">","","",""
"","411.725000012666","stimulus-presentation","143","383970","0.0-17.0-1.14","SS1604588489700","<img src='images/simple/7.png' width ='500' height = '500' style='border:5px solid black'>","40","mixed_simple_deviant","images/complex/6.png","images/complex/10.png","images/simple/4.png,images/simple/7.png,images/simple/10.png,images/simple/9.png,images/simple/16.png,images/simple/13.png,images/simple/17.png","1","null","","200","611.725000012666","","","","deviant","",""
"","null","html-keyboard-response","144","385130","0.0-17.0-0.15","SS1604588489700","","null","","","","","","","","","","","","<img src=images/blank.png width =""500"" height = ""500"" style=""border:5px solid black"">","","",""
"","524.849999928847","stimulus-presentation","145","385858","0.0-17.0-1.15","SS1604588489700","<img src='images/complex/10.png' width ='500' height = '500' style='border:5px solid black'>","40","mixed_simple_deviant","images/complex/6.png","images/complex/10.png","images/simple/4.png,images/simple/7.png,images/simple/10.png,images/simple/9.png,images/simple/16.png,images/simple/13.png,images/simple/17.png","1","null","","200","724.849999928847","","","","background","",""
"","null","html-keyboard-response","146","386710","0.0-17.0-0.16","SS1604588489700","","null","","","","","","","","","","","","<img src=images/blank.png width =""500"" height = ""500"" style=""border:5px solid black"">","","",""
"","290.7199999317527","stimulus-presentation","147","387203","0.0-17.0-1.16","SS1604588489700","<img src='images/complex/10.png' width ='500' height = '500' style='border:5px solid black'>","40","mixed_simple_deviant","images/complex/6.png","images/complex/10.png","images/simple/4.png,images/simple/7.png,images/simple/10.png,images/simple/9.png,images/simple/16.png,images/simple/13.png,images/simple/17.png","1","null","","200","490.7199999317527","","","","background","",""
"","null","html-keyboard-response","148","388015","0.0-17.0-0.17","SS1604588489700","","null","","","","","","","","","","","","<img src=images/blank.png width =""500"" height = ""500"" style=""border:5px solid black"">","","",""
"","195.65000000875443","stimulus-presentation","149","388414","0.0-17.0-1.17","SS1604588489700","<img src='images/complex/10.png' width ='500' height = '500' style='border:5px solid black'>","40","mixed_simple_deviant","images/complex/6.png","images/complex/10.png","images/simple/4.png,images/simple/7.png,images/simple/10.png,images/simple/9.png,images/simple/16.png,images/simple/13.png,images/simple/17.png","1","null","","200","395.65000000875443","","","","background","",""
"","null","html-keyboard-response","150","389465","0.0-17.0-0.18","SS1604588489700","","null","","","","","","","","","","","","<img src=images/blank.png width =""500"" height = ""500"" style=""border:5px solid black"">","","",""
"","275.3650000086054","stimulus-presentation","151","389943","0.0-17.0-1.18","SS1604588489700","<img src='images/complex/10.png' width ='500' height = '500' style='border:5px solid black'>","40","mixed_simple_deviant","images/complex/6.png","images/complex/10.png","images/simple/4.png,images/simple/7.png,images/simple/10.png,images/simple/9.png,images/simple/16.png,images/simple/13.png,images/simple/17.png","1","null","","200","475.3650000086054","","","","background","",""
"","null","html-keyboard-response","152","391114","0.0-17.0-0.19","SS1604588489700","","null","","","","","","","","","","","","<img src=images/blank.png width =""500"" height = ""500"" style=""border:5px solid black"">","","",""
"","1757.5299999443814","stimulus-presentation","153","393075","0.0-17.0-1.19","SS1604588489700","<img src='images/complex/6.png' width ='500' height = '500' style='border:5px solid black'>","40","mixed_simple_deviant","images/complex/6.png","images/complex/10.png","images/simple/4.png,images/simple/7.png,images/simple/10.png,images/simple/9.png,images/simple/16.png,images/simple/13.png,images/simple/17.png","1","null","","200","1957.5299999443814","yes","650.0600000144914","","target","",""
"","null","html-keyboard-response","154","394162","0.0-17.0-0.20","SS1604588489700","","null","","","","","","","","","","","","<img src=images/blank.png width =""500"" height = ""500"" style=""border:5px solid black"">","","",""
"","343.8499999465421","stimulus-presentation","155","394710","0.0-17.0-1.20","SS1604588489700","<img src='images/complex/10.png' width ='500' height = '500' style='border:5px solid black'>","40","mixed_simple_deviant","images/complex/6.png","images/complex/10.png","images/simple/4.png,images/simple/7.png,images/simple/10.png,images/simple/9.png,images/simple/16.png,images/simple/13.png,images/simple/17.png","1","null","","200","543.8499999465421","","","","background","",""
"","null","html-keyboard-response","156","395708","0.0-17.0-0.21","SS1604588489700","","null","","","","","","","","","","","","<img src=images/blank.png width =""500"" height = ""500"" style=""border:5px solid black"">","","",""
"","506.98000006377697","stimulus-presentation","157","396418","0.0-17.0-1.21","SS1604588489700","<img src='images/complex/10.png' width ='500' height = '500' style='border:5px solid black'>","40","mixed_simple_deviant","images/complex/6.png","images/complex/10.png","images/simple/4.png,images/simple/7.png,images/simple/10.png,images/simple/9.png,images/simple/16.png,images/simple/13.png,images/simple/17.png","1","null","","200","706.980000063777","","","","background","",""
"","null","html-keyboard-response","158","397323","0.0-17.0-0.22","SS1604588489700","","null","","","","","","","","","","","","<img src=images/blank.png width =""500"" height = ""500"" style=""border:5px solid black"">","","",""
"","2049.555000034161","stimulus-presentation","159","399577","0.0-17.0-1.22","SS1604588489700","<img src='images/complex/6.png' width ='500' height = '500' style='border:5px solid black'>","40","mixed_simple_deviant","images/complex/6.png","images/complex/10.png","images/simple/4.png,images/simple/7.png,images/simple/10.png,images/simple/9.png,images/simple/16.png,images/simple/13.png,images/simple/17.png","1","null","","200","2249.555000034161","yes","765.6699999934062","","target","",""
"","null","html-keyboard-response","160","400643","0.0-17.0-0.23","SS1604588489700","","null","","","","","","","","","","","","<img src=images/blank.png width =""500"" height = ""500"" style=""border:5px solid black"">","","",""
"","309.54000004567206","stimulus-presentation","161","401156","0.0-17.0-1.23","SS1604588489700","<img src='images/complex/10.png' width ='500' height = '500' style='border:5px solid black'>","40","mixed_simple_deviant","images/complex/6.png","images/complex/10.png","images/simple/4.png,images/simple/7.png,images/simple/10.png,images/simple/9.png,images/simple/16.png,images/simple/13.png,images/simple/17.png","1","null","","200","509.54000004567206","","","","background","",""
"","null","html-keyboard-response","162","402251","0.0-17.0-0.24","SS1604588489700","","null","","","","","","","","","","","","<img src=images/blank.png width =""500"" height = ""500"" style=""border:5px solid black"">","","",""
"","321.76500000059605","stimulus-presentation","163","402776","0.0-17.0-1.24","SS1604588489700","<img src='images/complex/10.png' width ='500' height = '500' style='border:5px solid black'>","40","mixed_simple_deviant","images/complex/6.png","images/complex/10.png","images/simple/4.png,images/simple/7.png,images/simple/10.png,images/simple/9.png,images/simple/16.png,images/simple/13.png,images/simple/17.png","1","null","","200","521.765000000596","","","","background","",""
"","null","html-keyboard-response","164","403606","0.0-17.0-0.25","SS1604588489700","","null","","","","","","","","","","","","<img src=images/blank.png width =""500"" height = ""500"" style=""border:5px solid black"">","","",""
"","458.2050000317395","stimulus-presentation","165","404268","0.0-17.0-1.25","SS1604588489700","<img src='images/simple/17.png' width ='500' height = '500' style='border:5px solid black'>","40","mixed_simple_deviant","images/complex/6.png","images/complex/10.png","images/simple/4.png,images/simple/7.png,images/simple/10.png,images/simple/9.png,images/simple/16.png,images/simple/13.png,images/simple/17.png","1","null","","200","658.2050000317395","","","","deviant","",""
"","null","html-keyboard-response","166","405097","0.0-17.0-0.26","SS1604588489700","","null","","","","","","","","","","","","<img src=images/blank.png width =""500"" height = ""500"" style=""border:5px solid black"">","","",""
"","412.6150000374764","stimulus-presentation","167","405714","0.0-17.0-1.26","SS1604588489700","<img src='images/complex/10.png' width ='500' height = '500' style='border:5px solid black'>","40","mixed_simple_deviant","images/complex/6.png","images/complex/10.png","images/simple/4.png,images/simple/7.png,images/simple/10.png,images/simple/9.png,images/simple/16.png,images/simple/13.png,images/simple/17.png","1","null","","200","612.6150000374764","","","","background","",""
"","null","html-keyboard-response","168","406733","0.0-17.0-0.27","SS1604588489700","","null","","","","","","","","","","","","<img src=images/blank.png width =""500"" height = ""500"" style=""border:5px solid black"">","","",""
"","210.07000003010035","stimulus-presentation","169","407146","0.0-17.0-1.27","SS1604588489700","<img src='images/complex/10.png' width ='500' height = '500' style='border:5px solid black'>","40","mixed_simple_deviant","images/complex/6.png","images/complex/10.png","images/simple/4.png,images/simple/7.png,images/simple/10.png,images/simple/9.png,images/simple/16.png,images/simple/13.png,images/simple/17.png","1","null","","200","410.07000003010035","","","","background","",""
"","null","html-keyboard-response","170","408295","0.0-17.0-0.28","SS1604588489700","","null","","","","","","","","","","","","<img src=images/blank.png width =""500"" height = ""500"" style=""border:5px solid black"">","","",""
"","228.22499996982515","stimulus-presentation","171","408728","0.0-17.0-1.28","SS1604588489700","<img src='images/complex/10.png' width ='500' height = '500' style='border:5px solid black'>","40","mixed_simple_deviant","images/complex/6.png","images/complex/10.png","images/simple/4.png,images/simple/7.png,images/simple/10.png,images/simple/9.png,images/simple/16.png,images/simple/13.png,images/simple/17.png","1","null","","200","428.22499996982515","","","","background","",""
"","null","html-keyboard-response","172","409940","0.0-17.0-0.29","SS1604588489700","","null","","","","","","","","","","","","<img src=images/blank.png width =""500"" height = ""500"" style=""border:5px solid black"">","","",""
"","276.51499991770834","stimulus-presentation","173","410421","0.0-17.0-1.29","SS1604588489700","<img src='images/complex/10.png' width ='500' height = '500' style='border:5px solid black'>","40","mixed_simple_deviant","images/complex/6.png","images/complex/10.png","images/simple/4.png,images/simple/7.png,images/simple/10.png,images/simple/9.png,images/simple/16.png,images/simple/13.png,images/simple/17.png","1","null","","200","476.51499991770834","","","","background","",""
"","null","html-keyboard-response","174","411647","0.0-17.0-0.30","SS1604588489700","","null","","","","","","","","","","","","<img src=images/blank.png width =""500"" height = ""500"" style=""border:5px solid black"">","","",""
"","496.6349999886006","stimulus-presentation","175","412348","0.0-17.0-1.30","SS1604588489700","<img src='images/complex/10.png' width ='500' height = '500' style='border:5px solid black'>","40","mixed_simple_deviant","images/complex/6.png","images/complex/10.png","images/simple/4.png,images/simple/7.png,images/simple/10.png,images/simple/9.png,images/simple/16.png,images/simple/13.png,images/simple/17.png","1","null","","200","696.6349999886006","","","","background","",""
"","null","html-keyboard-response","176","413254","0.0-17.0-0.31","SS1604588489700","","null","","","","","","","","","","","","<img src=images/blank.png width =""500"" height = ""500"" style=""border:5px solid black"">","","",""
"","954.9849999602884","stimulus-presentation","177","414414","0.0-17.0-1.31","SS1604588489700","<img src='images/simple/13.png' width ='500' height = '500' style='border:5px solid black'>","40","mixed_simple_deviant","images/complex/6.png","images/complex/10.png","images/simple/4.png,images/simple/7.png,images/simple/10.png,images/simple/9.png,images/simple/16.png,images/simple/13.png,images/simple/17.png","1","null","","200","1154.9849999602884","","","","deviant","",""
"","null","html-keyboard-response","178","415647","0.0-17.0-0.32","SS1604588489700","","null","","","","","","","","","","","","<img src=images/blank.png width =""500"" height = ""500"" style=""border:5px solid black"">","","",""
"","429.535000002943","stimulus-presentation","179","416280","0.0-17.0-1.32","SS1604588489700","<img src='images/complex/10.png' width ='500' height = '500' style='border:5px solid black'>","40","mixed_simple_deviant","images/complex/6.png","images/complex/10.png","images/simple/4.png,images/simple/7.png,images/simple/10.png,images/simple/9.png,images/simple/16.png,images/simple/13.png,images/simple/17.png","1","null","","200","629.535000002943","","","","background","",""
"","null","html-keyboard-response","180","417316","0.0-17.0-0.33","SS1604588489700","","null","","","","","","","","","","","","<img src=images/blank.png width =""500"" height = ""500"" style=""border:5px solid black"">","","",""
"","1863.3350000018254","stimulus-presentation","181","419384","0.0-17.0-1.33","SS1604588489700","<img src='images/complex/6.png' width ='500' height = '500' style='border:5px solid black'>","40","mixed_simple_deviant","images/complex/6.png","images/complex/10.png","images/simple/4.png,images/simple/7.png,images/simple/10.png,images/simple/9.png,images/simple/16.png,images/simple/13.png,images/simple/17.png","1","null","","200","2063.3350000018254","yes","880.8600000338629","","target","",""
"","null","html-keyboard-response","182","420434","0.0-17.0-0.34","SS1604588489700","","null","","","","","","","","","","","","<img src=images/blank.png width =""500"" height = ""500"" style=""border:5px solid black"">","","",""
"","357.69500001333654","stimulus-presentation","183","420996","0.0-17.0-1.34","SS1604588489700","<img src='images/complex/10.png' width ='500' height = '500' style='border:5px solid black'>","40","mixed_simple_deviant","images/complex/6.png","images/complex/10.png","images/simple/4.png,images/simple/7.png,images/simple/10.png,images/simple/9.png,images/simple/16.png,images/simple/13.png,images/simple/17.png","1","null","","200","557.6950000133365","","","","background","",""
"","null","html-keyboard-response","184","421945","0.0-17.0-0.35","SS1604588489700","","null","","","","","","","","","","","","<img src=images/blank.png width =""500"" height = ""500"" style=""border:5px solid black"">","","",""
"","337.41499995812774","stimulus-presentation","185","422487","0.0-17.0-1.35","SS1604588489700","<img src='images/complex/10.png' width ='500' height = '500' style='border:5px solid black'>","40","mixed_simple_deviant","images/complex/6.png","images/complex/10.png","images/simple/4.png,images/simple/7.png,images/simple/10.png,images/simple/9.png,images/simple/16.png,images/simple/13.png,images/simple/17.png","1","null","","200","537.4149999581277","","","","background","",""
"","null","html-keyboard-response","186","423327","0.0-17.0-0.36","SS1604588489700","","null","","","","","","","","","","","","<img src=images/blank.png width =""500"" height = ""500"" style=""border:5px solid black"">","","",""
"","327.39999995101243","stimulus-presentation","187","423859","0.0-17.0-1.36","SS1604588489700","<img src='images/complex/10.png' width ='500' height = '500' style='border:5px solid black'>","40","mixed_simple_deviant","images/complex/6.png","images/complex/10.png","images/simple/4.png,images/simple/7.png,images/simple/10.png,images/simple/9.png,images/simple/16.png,images/simple/13.png,images/simple/17.png","1","null","","200","527.3999999510124","","","","background","",""
"","null","html-keyboard-response","188","425150","0.0-17.0-0.37","SS1604588489700","","null","","","","","","","","","","","","<img src=images/blank.png width =""500"" height = ""500"" style=""border:5px solid black"">","","",""
"","192.87499994970858","stimulus-presentation","189","425547","0.0-17.0-1.37","SS1604588489700","<img src='images/complex/10.png' width ='500' height = '500' style='border:5px solid black'>","40","mixed_simple_deviant","images/complex/6.png","images/complex/10.png","images/simple/4.png,images/simple/7.png,images/simple/10.png,images/simple/9.png,images/simple/16.png,images/simple/13.png,images/simple/17.png","1","null","","200","392.8749999497086","","","","background","",""
"","null","html-keyboard-response","190","426699","0.0-17.0-0.38","SS1604588489700","","null","","","","","","","","","","","","<img src=images/blank.png width =""500"" height = ""500"" style=""border:5px solid black"">","","",""
"","208.39000004343688","stimulus-presentation","191","427111","0.0-17.0-1.38","SS1604588489700","<img src='images/complex/10.png' width ='500' height = '500' style='border:5px solid black'>","40","mixed_simple_deviant","images/complex/6.png","images/complex/10.png","images/simple/4.png,images/simple/7.png,images/simple/10.png,images/simple/9.png,images/simple/16.png,images/simple/13.png,images/simple/17.png","1","null","","200","408.3900000434369","","","","background","",""
"","null","html-keyboard-response","192","428371","0.0-17.0-0.39","SS1604588489700","","null","","","","","","","","","","","","<img src=images/blank.png width =""500"" height = ""500"" style=""border:5px solid black"">","","",""
"","1624.0949999773875","stimulus-presentation","193","430199","0.0-17.0-1.39","SS1604588489700","<img src='images/complex/6.png' width ='500' height = '500' style='border:5px solid black'>","40","mixed_simple_deviant","images/complex/6.png","images/complex/10.png","images/simple/4.png,images/simple/7.png,images/simple/10.png,images/simple/9.png,images/simple/16.png,images/simple/13.png,images/simple/17.png","1","null","","200","1824.0949999773875","yes","739.0899999300018","","target","",""
"","null","html-keyboard-response","194","431201","0.0-17.0-0.40","SS1604588489700","","null","","","","","","","","","","","","<img src=images/blank.png width =""500"" height = ""500"" style=""border:5px solid black"">","","",""
"","888.6549999006093","stimulus-presentation","195","432295","0.0-17.0-1.40","SS1604588489700","<img src='images/complex/10.png' width ='500' height = '500' style='border:5px solid black'>","40","mixed_simple_deviant","images/complex/6.png","images/complex/10.png","images/simple/4.png,images/simple/7.png,images/simple/10.png,images/simple/9.png,images/simple/16.png,images/simple/13.png,images/simple/17.png","1","null","","200","1088.6549999006093","","","","background","",""
"","null","html-keyboard-response","196","433341","0.0-17.0-0.41","SS1604588489700","","null","","","","","","","","","","","","<img src=images/blank.png width =""500"" height = ""500"" style=""border:5px solid black"">","","",""
"","304.219999932684","stimulus-presentation","197","433850","0.0-17.0-1.41","SS1604588489700","<img src='images/complex/10.png' width ='500' height = '500' style='border:5px solid black'>","40","mixed_simple_deviant","images/complex/6.png","images/complex/10.png","images/simple/4.png,images/simple/7.png,images/simple/10.png,images/simple/9.png,images/simple/16.png,images/simple/13.png,images/simple/17.png","1","null","","200","504.219999932684","","","","background","",""
"","null","html-keyboard-response","198","434967","0.0-17.0-0.42","SS1604588489700","","null","","","","","","","","","","","","<img src=images/blank.png width =""500"" height = ""500"" style=""border:5px solid black"">","","",""
"","926.3599999248981","stimulus-presentation","199","436097","0.0-17.0-1.42","SS1604588489700","<img src='images/simple/10.png' width ='500' height = '500' style='border:5px solid black'>","40","mixed_simple_deviant","images/complex/6.png","images/complex/10.png","images/simple/4.png,images/simple/7.png,images/simple/10.png,images/simple/9.png,images/simple/16.png,images/simple/13.png,images/simple/17.png","1","null","","200","1126.3599999248981","","","","deviant","",""
"","null","html-keyboard-response","200","437208","0.0-17.0-0.43","SS1604588489700","","null","","","","","","","","","","","","<img src=images/blank.png width =""500"" height = ""500"" style=""border:5px solid black"">","","",""
"","1526.4449999667704","stimulus-presentation","201","438939","0.0-17.0-1.43","SS1604588489700","<img src='images/complex/10.png' width ='500' height = '500' style='border:5px solid black'>","40","mixed_simple_deviant","images/complex/6.png","images/complex/10.png","images/simple/4.png,images/simple/7.png,images/simple/10.png,images/simple/9.png,images/simple/16.png,images/simple/13.png,images/simple/17.png","1","null","","200","1726.4449999667704","","","","background","",""
"","null","html-keyboard-response","202","440103","0.0-17.0-0.44","SS1604588489700","","null","","","","","","","","","","","","<img src=images/blank.png width =""500"" height = ""500"" style=""border:5px solid black"">","","",""
"","1163.5499999392778","stimulus-presentation","203","441471","0.0-17.0-1.44","SS1604588489700","<img src='images/complex/10.png' width ='500' height = '500' style='border:5px solid black'>","40","mixed_simple_deviant","images/complex/6.png","images/complex/10.png","images/simple/4.png,images/simple/7.png,images/simple/10.png,images/simple/9.png,images/simple/16.png,images/simple/13.png,images/simple/17.png","1","null","","200","1363.5499999392778","","","","background","",""
"","null","html-keyboard-response","204","442554","0.0-17.0-0.45","SS1604588489700","","null","","","","","","","","","","","","<img src=images/blank.png width =""500"" height = ""500"" style=""border:5px solid black"">","","",""
"","517.1500000869855","stimulus-presentation","205","443276","0.0-17.0-1.45","SS1604588489700","<img src='images/complex/10.png' width ='500' height = '500' style='border:5px solid black'>","40","mixed_simple_deviant","images/complex/6.png","images/complex/10.png","images/simple/4.png,images/simple/7.png,images/simple/10.png,images/simple/9.png,images/simple/16.png,images/simple/13.png,images/simple/17.png","1","null","","200","717.1500000869855","","","","background","",""
"","null","html-keyboard-response","206","444470","0.0-17.0-0.46","SS1604588489700","","null","","","","","","","","","","","","<img src=images/blank.png width =""500"" height = ""500"" style=""border:5px solid black"">","","",""
"","844.1549999406561","stimulus-presentation","207","445519","0.0-17.0-1.46","SS1604588489700","<img src='images/simple/9.png' width ='500' height = '500' style='border:5px solid black'>","40","mixed_simple_deviant","images/complex/6.png","images/complex/10.png","images/simple/4.png,images/simple/7.png,images/simple/10.png,images/simple/9.png,images/simple/16.png,images/simple/13.png,images/simple/17.png","1","null","","200","1044.1549999406561","","","","deviant","",""
"","null","html-keyboard-response","208","446603","0.0-17.0-0.47","SS1604588489700","","null","","","","","","","","","","","","<img src=images/blank.png width =""500"" height = ""500"" style=""border:5px solid black"">","","",""
"","339.96999997179955","stimulus-presentation","209","447148","0.0-17.0-1.47","SS1604588489700","<img src='images/complex/10.png' width ='500' height = '500' style='border:5px solid black'>","40","mixed_simple_deviant","images/complex/6.png","images/complex/10.png","images/simple/4.png,images/simple/7.png,images/simple/10.png,images/simple/9.png,images/simple/16.png,images/simple/13.png,images/simple/17.png","1","null","","200","539.9699999717996","","","","background","",""
"","null","html-keyboard-response","210","448156","0.0-17.0-0.48","SS1604588489700","","null","","","","","","","","","","","","<img src=images/blank.png width =""500"" height = ""500"" style=""border:5px solid black"">","","",""
"","2785.675000050105","stimulus-presentation","211","451146","0.0-17.0-1.48","SS1604588489700","<img src='images/complex/6.png' width ='500' height = '500' style='border:5px solid black'>","40","mixed_simple_deviant","images/complex/6.png","images/complex/10.png","images/simple/4.png,images/simple/7.png,images/simple/10.png,images/simple/9.png,images/simple/16.png,images/simple/13.png,images/simple/17.png","1","null","","200","2985.675000050105","yes","1608.1199999898672","","target","",""
"[{""page_index"":0,""viewing_time"":2311}]","2311","task-instructions","212","453461","0.0-18.0","SS1604588489700","","","","","","","","","","","","","","","","",""
"[{""page_index"":0,""viewing_time"":2390.08499996271},{""page_index"":1,""viewing_time"":5368.009999976493},{""page_index"":2,""viewing_time"":1223.920000018552}]","8982.240000041202","instructions","213","462448","0.0-19.0","SS1604588489700","","","","","","","","","","","","","","","","",""
"","null","html-keyboard-response","214","463577","0.0-20.0-0.0","SS1604588489700","","null","","","","","","","","","","","","<img src=images/blank.png width =""500"" height = ""500"" style=""border:5px solid black"">","","",""
"","458.31999997608364","stimulus-presentation","215","464240","0.0-20.0-1.0","SS1604588489700","<img src='images/simple/14.png' width ='500' height = '500' style='border:5px solid black'>","40","all_simple","images/simple/8.png","images/simple/3.png","images/simple/14.png,images/simple/18.png,images/simple/11.png,images/simple/6.png,images/simple/12.png,images/simple/15.png,images/simple/1.png","2","null","","200","658.3199999760836","","","","deviant","",""
"","null","html-keyboard-response","216","465076","0.0-20.0-0.1","SS1604588489700","","null","","","","","","","","","","","","<img src=images/blank.png width =""500"" height = ""500"" style=""border:5px solid black"">","","",""
"","801.3650000793859","stimulus-presentation","217","466081","0.0-20.0-1.1","SS1604588489700","<img src='images/simple/3.png' width ='500' height = '500' style='border:5px solid black'>","40","all_simple","images/simple/8.png","images/simple/3.png","images/simple/14.png,images/simple/18.png,images/simple/11.png,images/simple/6.png,images/simple/12.png,images/simple/15.png,images/simple/1.png","2","null","","200","1001.3650000793859","","","","background","",""
"","null","html-keyboard-response","218","466953","0.0-20.0-0.2","SS1604588489700","","null","","","","","","","","","","","","<img src=images/blank.png width =""500"" height = ""500"" style=""border:5px solid black"">","","",""
"","392.69500004593283","stimulus-presentation","219","467552","0.0-20.0-1.2","SS1604588489700","<img src='images/simple/3.png' width ='500' height = '500' style='border:5px solid black'>","40","all_simple","images/simple/8.png","images/simple/3.png","images/simple/14.png,images/simple/18.png,images/simple/11.png,images/simple/6.png,images/simple/12.png,images/simple/15.png,images/simple/1.png","2","null","","200","592.6950000459328","","","","background","",""
"","null","html-keyboard-response","220","468556","0.0-20.0-0.3","SS1604588489700","","null","","","","","","","","","","","","<img src=images/blank.png width =""500"" height = ""500"" style=""border:5px solid black"">","","",""
"","294.95499993208796","stimulus-presentation","221","469055","0.0-20.0-1.3","SS1604588489700","<img src='images/simple/3.png' width ='500' height = '500' style='border:5px solid black'>","40","all_simple","images/simple/8.png","images/simple/3.png","images/simple/14.png,images/simple/18.png,images/simple/11.png,images/simple/6.png,images/simple/12.png,images/simple/15.png,images/simple/1.png","2","null","","200","494.95499993208796","","","","background","",""
"","null","html-keyboard-response","222","469937","0.0-20.0-0.4","SS1604588489700","","null","","","","","","","","","","","","<img src=images/blank.png width =""500"" height = ""500"" style=""border:5px solid black"">","","",""
"","824.3100000545382","stimulus-presentation","223","470966","0.0-20.0-1.4","SS1604588489700","<img src='images/simple/1.png' width ='500' height = '500' style='border:5px solid black'>","40","all_simple","images/simple/8.png","images/simple/3.png","images/simple/14.png,images/simple/18.png,images/simple/11.png,images/simple/6.png,images/simple/12.png,images/simple/15.png,images/simple/1.png","2","null","","200","1024.3100000545382","","","","deviant","",""
"","null","html-keyboard-response","224","471837","0.0-20.0-0.5","SS1604588489700","","null","","","","","","","","","","","","<img src=images/blank.png width =""500"" height = ""500"" style=""border:5px solid black"">","","",""
"","1019.6599999908358","stimulus-presentation","225","473060","0.0-20.0-1.5","SS1604588489700","<img src='images/simple/3.png' width ='500' height = '500' style='border:5px solid black'>","40","all_simple","images/simple/8.png","images/simple/3.png","images/simple/14.png,images/simple/18.png,images/simple/11.png,images/simple/6.png,images/simple/12.png,images/simple/15.png,images/simple/1.png","2","null","","200","1219.6599999908358","","","","background","",""
"","null","html-keyboard-response","226","473962","0.0-20.0-0.6","SS1604588489700","","null","","","","","","","","","","","","<img src=images/blank.png width =""500"" height = ""500"" style=""border:5px solid black"">","","",""
"","480.4149999981746","stimulus-presentation","227","474647","0.0-20.0-1.6","SS1604588489700","<img src='images/simple/3.png' width ='500' height = '500' style='border:5px solid black'>","40","all_simple","images/simple/8.png","images/simple/3.png","images/simple/14.png,images/simple/18.png,images/simple/11.png,images/simple/6.png,images/simple/12.png,images/simple/15.png,images/simple/1.png","2","null","","200","680.4149999981746","","","","background","",""
"","null","html-keyboard-response","228","475845","0.0-20.0-0.7","SS1604588489700","","null","","","","","","","","","","","","<img src=images/blank.png width =""500"" height = ""500"" style=""border:5px solid black"">","","",""
"","266.1599999992177","stimulus-presentation","229","476316","0.0-20.0-1.7","SS1604588489700","<img src='images/simple/3.png' width ='500' height = '500' style='border:5px solid black'>","40","all_simple","images/simple/8.png","images/simple/3.png","images/simple/14.png,images/simple/18.png,images/simple/11.png,images/simple/6.png,images/simple/12.png,images/simple/15.png,images/simple/1.png","2","null","","200","466.1599999992177","","","","background","",""
"","null","html-keyboard-response","230","477427","0.0-20.0-0.8","SS1604588489700","","null","","","","","","","","","","","","<img src=images/blank.png width =""500"" height = ""500"" style=""border:5px solid black"">","","",""
"","257.0000000996515","stimulus-presentation","231","477889","0.0-20.0-1.8","SS1604588489700","<img src='images/simple/3.png' width ='500' height = '500' style='border:5px solid black'>","40","all_simple","images/simple/8.png","images/simple/3.png","images/simple/14.png,images/simple/18.png,images/simple/11.png,images/simple/6.png,images/simple/12.png,images/simple/15.png,images/simple/1.png","2","null","","200","457.0000000996515","","","","background","",""
"","null","html-keyboard-response","232","478941","0.0-20.0-0.9","SS1604588489700","","null","","","","","","","","","","","","<img src=images/blank.png width =""500"" height = ""500"" style=""border:5px solid black"">","","",""
"","165.3099999530241","stimulus-presentation","233","479311","0.0-20.0-1.9","SS1604588489700","<img src='images/simple/3.png' width ='500' height = '500' style='border:5px solid black'>","40","all_simple","images/simple/8.png","images/simple/3.png","images/simple/14.png,images/simple/18.png,images/simple/11.png,images/simple/6.png,images/simple/12.png,images/simple/15.png,images/simple/1.png","2","null","","200","365.3099999530241","","","","background","",""
"","null","html-keyboard-response","234","480499","0.0-20.0-0.10","SS1604588489700","","null","","","","","","","","","","","","<img src=images/blank.png width =""500"" height = ""500"" style=""border:5px solid black"">","","",""
"","133.35499993991107","stimulus-presentation","235","480838","0.0-20.0-1.10","SS1604588489700","<img src='images/simple/3.png' width ='500' height = '500' style='border:5px solid black'>","40","all_simple","images/simple/8.png","images/simple/3.png","images/simple/14.png,images/simple/18.png,images/simple/11.png,images/simple/6.png,images/simple/12.png,images/simple/15.png,images/simple/1.png","2","null","","200","333.35499993991107","","","","background","",""
"","null","html-keyboard-response","236","482036","0.0-20.0-0.11","SS1604588489700","","null","","","","","","","","","","","","<img src=images/blank.png width =""500"" height = ""500"" style=""border:5px solid black"">","","",""
"","1568.0799999972805","stimulus-presentation","237","483808","0.0-20.0-1.11","SS1604588489700","<img src='images/simple/8.png' width ='500' height = '500' style='border:5px solid black'>","40","all_simple","images/simple/8.png","images/simple/3.png","images/simple/14.png,images/simple/18.png,images/simple/11.png,images/simple/6.png,images/simple/12.png,images/simple/15.png,images/simple/1.png","2","null","","200","1768.0799999972805","yes","617.9149999516085","","target","",""
"","null","html-keyboard-response","238","484996","0.0-20.0-0.12","SS1604588489700","","null","","","","","","","","","","","","<img src=images/blank.png width =""500"" height = ""500"" style=""border:5px solid black"">","","",""
"","344.49000004678965","stimulus-presentation","239","485545","0.0-20.0-1.12","SS1604588489700","<img src='images/simple/3.png' width ='500' height = '500' style='border:5px solid black'>","40","all_simple","images/simple/8.png","images/simple/3.png","images/simple/14.png,images/simple/18.png,images/simple/11.png,images/simple/6.png,images/simple/12.png,images/simple/15.png,images/simple/1.png","2","null","","200","544.4900000467896","","","","background","",""
"","null","html-keyboard-response","240","486481","0.0-20.0-0.13","SS1604588489700","","null","","","","","","","","","","","","<img src=images/blank.png width =""500"" height = ""500"" style=""border:5px solid black"">","","",""
"","544.3100000265986","stimulus-presentation","241","487230","0.0-20.0-1.13","SS1604588489700","<img src='images/simple/18.png' width ='500' height = '500' style='border:5px solid black'>","40","all_simple","images/simple/8.png","images/simple/3.png","images/simple/14.png,images/simple/18.png,images/simple/11.png,images/simple/6.png,images/simple/12.png,images/simple/15.png,images/simple/1.png","2","null","","200","744.3100000265986","","","","deviant","",""
"","null","html-keyboard-response","242","488185","0.0-20.0-0.14","SS1604588489700","","null","","","","","","","","","","","","<img src=images/blank.png width =""500"" height = ""500"" style=""border:5px solid black"">","","",""
"","205.49999992363155","stimulus-presentation","243","488595","0.0-20.0-1.14","SS1604588489700","<img src='images/simple/3.png' width ='500' height = '500' style='border:5px solid black'>","40","all_simple","images/simple/8.png","images/simple/3.png","images/simple/14.png,images/simple/18.png,images/simple/11.png,images/simple/6.png,images/simple/12.png,images/simple/15.png,images/simple/1.png","2","null","","200","405.49999992363155","","","","background","",""
"","null","html-keyboard-response","244","489452","0.0-20.0-0.15","SS1604588489700","","null","","","","","","","","","","","","<img src=images/blank.png width =""500"" height = ""500"" style=""border:5px solid black"">","","",""
"","191.5100000333041","stimulus-presentation","245","489848","0.0-20.0-1.15","SS1604588489700","<img src='images/simple/3.png' width ='500' height = '500' style='border:5px solid black'>","40","all_simple","images/simple/8.png","images/simple/3.png","images/simple/14.png,images/simple/18.png,images/simple/11.png,images/simple/6.png,images/simple/12.png,images/simple/15.png,images/simple/1.png","2","null","","200","391.5100000333041","","","","background","",""
"","null","html-keyboard-response","246","490958","0.0-20.0-0.16","SS1604588489700","","null","","","","","","","","","","","","<img src=images/blank.png width =""500"" height = ""500"" style=""border:5px solid black"">","","",""
"","192.02999991830438","stimulus-presentation","247","491355","0.0-20.0-1.16","SS1604588489700","<img src='images/simple/3.png' width ='500' height = '500' style='border:5px solid black'>","40","all_simple","images/simple/8.png","images/simple/3.png","images/simple/14.png,images/simple/18.png,images/simple/11.png,images/simple/6.png,images/simple/12.png,images/simple/15.png,images/simple/1.png","2","null","","200","392.0299999183044","","","","background","",""
"","null","html-keyboard-response","248","492528","0.0-20.0-0.17","SS1604588489700","","null","","","","","","","","","","","","<img src=images/blank.png width =""500"" height = ""500"" style=""border:5px solid black"">","","",""
"","418.2550000259653","stimulus-presentation","249","493151","0.0-20.0-1.17","SS1604588489700","<img src='images/simple/11.png' width ='500' height = '500' style='border:5px solid black'>","40","all_simple","images/simple/8.png","images/simple/3.png","images/simple/14.png,images/simple/18.png,images/simple/11.png,images/simple/6.png,images/simple/12.png,images/simple/15.png,images/simple/1.png","2","null","","200","618.2550000259653","","","","deviant","",""
"","null","html-keyboard-response","250","494356","0.0-20.0-0.18","SS1604588489700","","null","","","","","","","","","","","","<img src=images/blank.png width =""500"" height = ""500"" style=""border:5px solid black"">","","",""
"","349.3200000375509","stimulus-presentation","251","494910","0.0-20.0-1.18","SS1604588489700","<img src='images/simple/3.png' width ='500' height = '500' style='border:5px solid black'>","40","all_simple","images/simple/8.png","images/simple/3.png","images/simple/14.png,images/simple/18.png,images/simple/11.png,images/simple/6.png,images/simple/12.png,images/simple/15.png,images/simple/1.png","2","null","","200","549.3200000375509","","","","background","",""
"","null","html-keyboard-response","252","496160","0.0-20.0-0.19","SS1604588489700","","null","","","","","","","","","","","","<img src=images/blank.png width =""500"" height = ""500"" style=""border:5px solid black"">","","",""
"","1578.499999945052","stimulus-presentation","253","497944","0.0-20.0-1.19","SS1604588489700","<img src='images/simple/8.png' width ='500' height = '500' style='border:5px solid black'>","40","all_simple","images/simple/8.png","images/simple/3.png","images/simple/14.png,images/simple/18.png,images/simple/11.png,images/simple/6.png,images/simple/12.png,images/simple/15.png,images/simple/1.png","2","null","","200","1778.499999945052","yes","607.979999971576","","target","",""
"","null","html-keyboard-response","254","499082","0.0-20.0-0.20","SS1604588489700","","null","","","","","","","","","","","","<img src=images/blank.png width =""500"" height = ""500"" style=""border:5px solid black"">","","",""
"","1704.0999999735504","stimulus-presentation","255","500991","0.0-20.0-1.20","SS1604588489700","<img src='images/simple/8.png' width ='500' height = '500' style='border:5px solid black'>","40","all_simple","images/simple/8.png","images/simple/3.png","images/simple/14.png,images/simple/18.png,images/simple/11.png,images/simple/6.png,images/simple/12.png,images/simple/15.png,images/simple/1.png","2","null","","200","1904.0999999735504","yes","766.8299999786541","","target","",""
"","null","html-keyboard-response","256","502287","0.0-20.0-0.21","SS1604588489700","","null","","","","","","","","","","","","<img src=images/blank.png width =""500"" height = ""500"" style=""border:5px solid black"">","","",""
"","592.4749999539927","stimulus-presentation","257","503084","0.0-20.0-1.21","SS1604588489700","<img src='images/simple/3.png' width ='500' height = '500' style='border:5px solid black'>","40","all_simple","images/simple/8.png","images/simple/3.png","images/simple/14.png,images/simple/18.png,images/simple/11.png,images/simple/6.png,images/simple/12.png,images/simple/15.png,images/simple/1.png","2","null","","200","792.4749999539927","","","","background","",""
"","null","html-keyboard-response","258","504122","0.0-20.0-0.22","SS1604588489700","","null","","","","","","","","","","","","<img src=images/blank.png width =""500"" height = ""500"" style=""border:5px solid black"">","","",""
"","1595.7949999719858","stimulus-presentation","259","505923","0.0-20.0-1.22","SS1604588489700","<img src='images/simple/8.png' width ='500' height = '500' style='border:5px solid black'>","40","all_simple","images/simple/8.png","images/simple/3.png","images/simple/14.png,images/simple/18.png,images/simple/11.png,images/simple/6.png,images/simple/12.png,images/simple/15.png,images/simple/1.png","2","null","","200","1795.7949999719858","yes","700.7599999196827","","target","",""
"","null","html-keyboard-response","260","506915","0.0-20.0-0.23","SS1604588489700","","null","","","","","","","","","","","","<img src=images/blank.png width =""500"" height = ""500"" style=""border:5px solid black"">","","",""
"","220.42999998666346","stimulus-presentation","261","507341","0.0-20.0-1.23","SS1604588489700","<img src='images/simple/3.png' width ='500' height = '500' style='border:5px solid black'>","40","all_simple","images/simple/8.png","images/simple/3.png","images/simple/14.png,images/simple/18.png,images/simple/11.png,images/simple/6.png,images/simple/12.png,images/simple/15.png,images/simple/1.png","2","null","","200","420.42999998666346","","","","background","",""
"","null","html-keyboard-response","262","508179","0.0-20.0-0.24","SS1604588489700","","null","","","","","","","","","","","","<img src=images/blank.png width =""500"" height = ""500"" style=""border:5px solid black"">","","",""
"","274.074999964796","stimulus-presentation","263","508657","0.0-20.0-1.24","SS1604588489700","<img src='images/simple/3.png' width ='500' height = '500' style='border:5px solid black'>","40","all_simple","images/simple/8.png","images/simple/3.png","images/simple/14.png,images/simple/18.png,images/simple/11.png,images/simple/6.png,images/simple/12.png,images/simple/15.png,images/simple/1.png","2","null","","200","474.074999964796","","","","background","",""
"","null","html-keyboard-response","264","509866","0.0-20.0-0.25","SS1604588489700","","null","","","","","","","","","","","","<img src=images/blank.png width =""500"" height = ""500"" style=""border:5px solid black"">","","",""
"","314.3099999288097","stimulus-presentation","265","510384","0.0-20.0-1.25","SS1604588489700","<img src='images/simple/6.png' width ='500' height = '500' style='border:5px solid black'>","40","all_simple","images/simple/8.png","images/simple/3.png","images/simple/14.png,images/simple/18.png,images/simple/11.png,images/simple/6.png,images/simple/12.png,images/simple/15.png,images/simple/1.png","2","null","","200","514.3099999288097","","","","deviant","",""
"","null","html-keyboard-response","266","511619","0.0-20.0-0.26","SS1604588489700","","null","","","","","","","","","","","","<img src=images/blank.png width =""500"" height = ""500"" style=""border:5px solid black"">","","",""
"","176.2800000142306","stimulus-presentation","267","512000","0.0-20.0-1.26","SS1604588489700","<img src='images/simple/3.png' width ='500' height = '500' style='border:5px solid black'>","40","all_simple","images/simple/8.png","images/simple/3.png","images/simple/14.png,images/simple/18.png,images/simple/11.png,images/simple/6.png,images/simple/12.png,images/simple/15.png,images/simple/1.png","2","null","","200","376.2800000142306","","","","background","",""
"","null","html-keyboard-response","268","513091","0.0-20.0-0.27","SS1604588489700","","null","","","","","","","","","","","","<img src=images/blank.png width =""500"" height = ""500"" style=""border:5px solid black"">","","",""
"","2496.0149999242276","stimulus-presentation","269","515792","0.0-20.0-1.27","SS1604588489700","<img src='images/simple/8.png' width ='500' height = '500' style='border:5px solid black'>","40","all_simple","images/simple/8.png","images/simple/3.png","images/simple/14.png,images/simple/18.png,images/simple/11.png,images/simple/6.png,images/simple/12.png,images/simple/15.png,images/simple/1.png","2","null","","200","2696.0149999242276","yes","1531.9850000087172","","target","",""
"","null","html-keyboard-response","270","516922","0.0-20.0-0.28","SS1604588489700","","null","","","","","","","","","","","","<img src=images/blank.png width =""500"" height = ""500"" style=""border:5px solid black"">","","",""
"","593.0350000271574","stimulus-presentation","271","517719","0.0-20.0-1.28","SS1604588489700","<img src='images/simple/3.png' width ='500' height = '500' style='border:5px solid black'>","40","all_simple","images/simple/8.png","images/simple/3.png","images/simple/14.png,images/simple/18.png,images/simple/11.png,images/simple/6.png,images/simple/12.png,images/simple/15.png,images/simple/1.png","2","null","","200","793.0350000271574","","","","background","",""
"","null","html-keyboard-response","272","518895","0.0-20.0-0.29","SS1604588489700","","null","","","","","","","","","","","","<img src=images/blank.png width =""500"" height = ""500"" style=""border:5px solid black"">","","",""
"","488.4700000984594","stimulus-presentation","273","519589","0.0-20.0-1.29","SS1604588489700","<img src='images/simple/15.png' width ='500' height = '500' style='border:5px solid black'>","40","all_simple","images/simple/8.png","images/simple/3.png","images/simple/14.png,images/simple/18.png,images/simple/11.png,images/simple/6.png,images/simple/12.png,images/simple/15.png,images/simple/1.png","2","null","","200","688.4700000984594","","","","deviant","",""
"","null","html-keyboard-response","274","520859","0.0-20.0-0.30","SS1604588489700","","null","","","","","","","","","","","","<img src=images/blank.png width =""500"" height = ""500"" style=""border:5px solid black"">","","",""
"","4082.6400000369176","stimulus-presentation","275","525147","0.0-20.0-1.30","SS1604588489700","<img src='images/simple/8.png' width ='500' height = '500' style='border:5px solid black'>","40","all_simple","images/simple/8.png","images/simple/3.png","images/simple/14.png,images/simple/18.png,images/simple/11.png,images/simple/6.png,images/simple/12.png,images/simple/15.png,images/simple/1.png","2","null","","200","4282.640000036918","yes","756.2150000594556","","target","",""
"","null","html-keyboard-response","276","526042","0.0-20.0-0.31","SS1604588489700","","null","","","","","","","","","","","","<img src=images/blank.png width =""500"" height = ""500"" style=""border:5px solid black"">","","",""
"","264.9550000205636","stimulus-presentation","277","526513","0.0-20.0-1.31","SS1604588489700","<img src='images/simple/3.png' width ='500' height = '500' style='border:5px solid black'>","40","all_simple","images/simple/8.png","images/simple/3.png","images/simple/14.png,images/simple/18.png,images/simple/11.png,images/simple/6.png,images/simple/12.png,images/simple/15.png,images/simple/1.png","2","null","","200","464.9550000205636","","","","background","",""
"","null","html-keyboard-response","278","527486","0.0-20.0-0.32","SS1604588489700","","null","","","","","","","","","","","","<img src=images/blank.png width =""500"" height = ""500"" style=""border:5px solid black"">","","",""
"","214.76000000257045","stimulus-presentation","279","527906","0.0-20.0-1.32","SS1604588489700","<img src='images/simple/3.png' width ='500' height = '500' style='border:5px solid black'>","40","all_simple","images/simple/8.png","images/simple/3.png","images/simple/14.png,images/simple/18.png,images/simple/11.png,images/simple/6.png,images/simple/12.png,images/simple/15.png,images/simple/1.png","2","null","","200","414.76000000257045","","","","background","",""
"","null","html-keyboard-response","280","529168","0.0-20.0-0.33","SS1604588489700","","null","","","","","","","","","","","","<img src=images/blank.png width =""500"" height = ""500"" style=""border:5px solid black"">","","",""
"","192.7849999628961","stimulus-presentation","281","529567","0.0-20.0-1.33","SS1604588489700","<img src='images/simple/3.png' width ='500' height = '500' style='border:5px solid black'>","40","all_simple","images/simple/8.png","images/simple/3.png","images/simple/14.png,images/simple/18.png,images/simple/11.png,images/simple/6.png,images/simple/12.png,images/simple/15.png,images/simple/1.png","2","null","","200","392.7849999628961","","","","background","",""
"","null","html-keyboard-response","282","530624","0.0-20.0-0.34","SS1604588489700","","null","","","","","","","","","","","","<img src=images/blank.png width =""500"" height = ""500"" style=""border:5px solid black"">","","",""
"","360.47499999403954","stimulus-presentation","283","531190","0.0-20.0-1.34","SS1604588489700","<img src='images/simple/3.png' width ='500' height = '500' style='border:5px solid black'>","40","all_simple","images/simple/8.png","images/simple/3.png","images/simple/14.png,images/simple/18.png,images/simple/11.png,images/simple/6.png,images/simple/12.png,images/simple/15.png,images/simple/1.png","2","null","","200","560.4749999940395","","","","background","",""
