"view_history","rt","trial_type","trial_index","time_elapsed","internal_node_id","subject","trial_stimulus","key_press","task_type","task_target_stimulus","task_background_stimulus","task_deviant_stimuli","task_order_number","block_order_number","trial_order_number","minimum_viewing_duration","trial_looking_time","trial_pressed_space_bar","trial_space_bar_rt","stimulus","trial_stimulus_type","responses","question_order"
"[{""page_index"":0,""viewing_time"":11341.619999846444}]","11343.319999985397","instructions","0","11555","0.0-0.0","SS1604588544536","","","","","","","","","","","","","","","","",""
"[{""page_index"":0,""viewing_time"":4588.845000136644},{""page_index"":1,""viewing_time"":6347.215000074357},{""page_index"":2,""viewing_time"":14045.20499985665},{""page_index"":3,""viewing_time"":8683.824999956414},{""page_index"":4,""viewing_time"":7943.045000080019},{""page_index"":5,""viewing_time"":6826.695000054315},{""page_index"":6,""viewing_time"":2032.8750000335276},{""page_index"":7,""viewing_time"":6666.334999958053},{""page_index"":8,""viewing_time"":1796.085000038147}]","58931.62000016309","instructions","1","70498","0.0-1.0","SS1604588544536","","","","","","","","","","","","","","","","",""
"[{""page_index"":0,""viewing_time"":5978.295000037178},{""page_index"":1,""viewing_time"":5886.974999913946},{""page_index"":2,""viewing_time"":2110.490000108257}]","13976.615000050515","instructions","2","84480","0.0-2.0","SS1604588544536","","","","","","","","","","","","","","","","",""
"","576.9849999342114","practice-block","3","85268","0.0-3.0","SS1604588544536","<img src='images/practice/practice_background.jpeg' width ='500' height = '500' style='border:5px solid black'>","40","null","images/practice/practice_target.jpg","null","null","null","null","","200","776.9849999342114","","","","","",""
"","null","html-keyboard-response","4","86459","0.0-4.0","SS1604588544536","","null","","","","","","","","","","","","<img src=images/blank.png width =""500"" height = ""500"" style=""border:5px solid black"">","","",""
"","476.069999858737","practice-block","5","87147","0.0-5.0","SS1604588544536","<img src='images/practice/practice_background.jpeg' width ='500' height = '500' style='border:5px solid black'>","40","null","images/practice/practice_target.jpg","null","null","null","null","","200","676.069999858737","","","","","",""
"","null","html-keyboard-response","6","88393","0.0-6.0","SS1604588544536","","null","","","","","","","","","","","","<img src=images/blank.png width =""500"" height = ""500"" style=""border:5px solid black"">","","",""
"","386.1350000370294","practice-block","7","88988","0.0-7.0","SS1604588544536","<img src='images/practice/practice_deviant.jpeg' width ='500' height = '500' style='border:5px solid black'>","40","null","images/practice/practice_target.jpg","null","null","null","null","","200","586.1350000370294","","","","","",""
"","null","html-keyboard-response","8","89953","0.0-8.0","SS1604588544536","","null","","","","","","","","","","","","<img src=images/blank.png width =""500"" height = ""500"" style=""border:5px solid black"">","","",""
"","4070.1050001662225","practice-block","9","94242","0.0-9.0-0.0","SS1604588544536","<img src='images/practice/practice_target.jpg' width ='500' height = '500' style='border:5px solid black'>","40","null","images/practice/practice_target.jpg","null","null","null","null","","200","4270.105000166222","yes","398.44000013545156","","","",""
"","null","html-keyboard-response","10","95059","0.0-10.0","SS1604588544536","","null","","","","","","","","","","","","<img src=images/blank.png width =""500"" height = ""500"" style=""border:5px solid black"">","","",""
"","463.9200000092387","practice-block","11","95729","0.0-11.0","SS1604588544536","<img src='images/practice/practice_background.jpeg' width ='500' height = '500' style='border:5px solid black'>","40","null","images/practice/practice_target.jpg","null","null","null","null","","200","663.9200000092387","","","","","",""
"[{""page_index"":0,""viewing_time"":2313}]","2314","task-instructions","12","98046","0.0-12.0","SS1604588544536","","","","","","","","","","","","","","","","",""
"[{""page_index"":0,""viewing_time"":2935.5800000485033},{""page_index"":1,""viewing_time"":3719.5349999237806},{""page_index"":2,""viewing_time"":2125.7650000043213}]","8784.240000182763","instructions","13","106838","0.0-13.0","SS1604588544536","","","","","","","","","","","","","","","","",""
"","null","html-keyboard-response","14","107849","0.0-14.0-0.0","SS1604588544536","","null","","","","","","","","","","","","<img src=images/blank.png width =""500"" height = ""500"" style=""border:5px solid black"">","","",""
"","507.84499989822507","stimulus-presentation","15","108572","0.0-14.0-1.0","SS1604588544536","<img src='images/simple/14.png' width ='500' height = '500' style='border:5px solid black'>","40","all_simple","images/simple/15.png","images/simple/16.png","images/simple/7.png,images/simple/14.png,images/simple/13.png,images/simple/1.png,images/simple/8.png,images/simple/10.png,images/simple/18.png","0","null","","200","707.8449998982251","","","","deviant","",""
"","null","html-keyboard-response","16","109562","0.0-14.0-0.1","SS1604588544536","","null","","","","","","","","","","","","<img src=images/blank.png width =""500"" height = ""500"" style=""border:5px solid black"">","","",""
"","934.720000019297","stimulus-presentation","17","110703","0.0-14.0-1.1","SS1604588544536","<img src='images/simple/16.png' width ='500' height = '500' style='border:5px solid black'>","40","all_simple","images/simple/15.png","images/simple/16.png","images/simple/7.png,images/simple/14.png,images/simple/13.png,images/simple/1.png,images/simple/8.png,images/simple/10.png,images/simple/18.png","0","null","","200","1134.720000019297","","","","background","",""
"","null","html-keyboard-response","18","111518","0.0-14.0-0.2","SS1604588544536","","null","","","","","","","","","","","","<img src=images/blank.png width =""500"" height = ""500"" style=""border:5px solid black"">","","",""
"","730.5250000208616","stimulus-presentation","19","112456","0.0-14.0-1.2","SS1604588544536","<img src='images/simple/16.png' width ='500' height = '500' style='border:5px solid black'>","40","all_simple","images/simple/15.png","images/simple/16.png","images/simple/7.png,images/simple/14.png,images/simple/13.png,images/simple/1.png,images/simple/8.png,images/simple/10.png,images/simple/18.png","0","null","","200","930.5250000208616","","","","background","",""
"","null","html-keyboard-response","20","113479","0.0-14.0-0.3","SS1604588544536","","null","","","","","","","","","","","","<img src=images/blank.png width =""500"" height = ""500"" style=""border:5px solid black"">","","",""
"","418.22999995201826","stimulus-presentation","21","114103","0.0-14.0-1.3","SS1604588544536","<img src='images/simple/16.png' width ='500' height = '500' style='border:5px solid black'>","40","all_simple","images/simple/15.png","images/simple/16.png","images/simple/7.png,images/simple/14.png,images/simple/13.png,images/simple/1.png,images/simple/8.png,images/simple/10.png,images/simple/18.png","0","null","","200","618.2299999520183","","","","background","",""
"","null","html-keyboard-response","22","114940","0.0-14.0-0.4","SS1604588544536","","null","","","","","","","","","","","","<img src=images/blank.png width =""500"" height = ""500"" style=""border:5px solid black"">","","",""
"","577.070000115782","stimulus-presentation","23","115736","0.0-14.0-1.4","SS1604588544536","<img src='images/simple/1.png' width ='500' height = '500' style='border:5px solid black'>","40","all_simple","images/simple/15.png","images/simple/16.png","images/simple/7.png,images/simple/14.png,images/simple/13.png,images/simple/1.png,images/simple/8.png,images/simple/10.png,images/simple/18.png","0","null","","200","777.070000115782","","","","deviant","",""
"","null","html-keyboard-response","24","116878","0.0-14.0-0.5","SS1604588544536","","null","","","","","","","","","","","","<img src=images/blank.png width =""500"" height = ""500"" style=""border:5px solid black"">","","",""
"","451.3699999079108","stimulus-presentation","25","117536","0.0-14.0-1.5","SS1604588544536","<img src='images/simple/16.png' width ='500' height = '500' style='border:5px solid black'>","40","all_simple","images/simple/15.png","images/simple/16.png","images/simple/7.png,images/simple/14.png,images/simple/13.png,images/simple/1.png,images/simple/8.png,images/simple/10.png,images/simple/18.png","0","null","","200","651.3699999079108","","","","background","",""
"","null","html-keyboard-response","26","118600","0.0-14.0-0.6","SS1604588544536","","null","","","","","","","","","","","","<img src=images/blank.png width =""500"" height = ""500"" style=""border:5px solid black"">","","",""
"","2014.2050001304597","stimulus-presentation","27","120823","0.0-14.0-1.6","SS1604588544536","<img src='images/simple/15.png' width ='500' height = '500' style='border:5px solid black'>","40","all_simple","images/simple/15.png","images/simple/16.png","images/simple/7.png,images/simple/14.png,images/simple/13.png,images/simple/1.png,images/simple/8.png,images/simple/10.png,images/simple/18.png","0","null","","200","2214.2050001304597","","","","target","",""
"","null","html-keyboard-response","28","121882","0.0-14.0-0.7","SS1604588544536","","null","","","","","","","","","","","","<img src=images/blank.png width =""500"" height = ""500"" style=""border:5px solid black"">","","",""
"","565.6350001227111","stimulus-presentation","29","122654","0.0-14.0-1.7","SS1604588544536","<img src='images/simple/13.png' width ='500' height = '500' style='border:5px solid black'>","40","all_simple","images/simple/15.png","images/simple/16.png","images/simple/7.png,images/simple/14.png,images/simple/13.png,images/simple/1.png,images/simple/8.png,images/simple/10.png,images/simple/18.png","0","null","","200","765.6350001227111","","","","deviant","",""
"","null","html-keyboard-response","30","123505","0.0-14.0-0.8","SS1604588544536","","null","","","","","","","","","","","","<img src=images/blank.png width =""500"" height = ""500"" style=""border:5px solid black"">","","",""
"","366.78999988362193","stimulus-presentation","31","124078","0.0-14.0-1.8","SS1604588544536","<img src='images/simple/16.png' width ='500' height = '500' style='border:5px solid black'>","40","all_simple","images/simple/15.png","images/simple/16.png","images/simple/7.png,images/simple/14.png,images/simple/13.png,images/simple/1.png,images/simple/8.png,images/simple/10.png,images/simple/18.png","0","null","","200","566.7899998836219","","","","background","",""
"","null","html-keyboard-response","32","125010","0.0-14.0-0.9","SS1604588544536","","null","","","","","","","","","","","","<img src=images/blank.png width =""500"" height = ""500"" style=""border:5px solid black"">","","",""
"","292.38499980419874","stimulus-presentation","33","125510","0.0-14.0-1.9","SS1604588544536","<img src='images/simple/16.png' width ='500' height = '500' style='border:5px solid black'>","40","all_simple","images/simple/15.png","images/simple/16.png","images/simple/7.png,images/simple/14.png,images/simple/13.png,images/simple/1.png,images/simple/8.png,images/simple/10.png,images/simple/18.png","0","null","","200","492.38499980419874","","","","background","",""
"","null","html-keyboard-response","34","126671","0.0-14.0-0.10","SS1604588544536","","null","","","","","","","","","","","","<img src=images/blank.png width =""500"" height = ""500"" style=""border:5px solid black"">","","",""
"","311.530000064522","stimulus-presentation","35","127190","0.0-14.0-1.10","SS1604588544536","<img src='images/simple/16.png' width ='500' height = '500' style='border:5px solid black'>","40","all_simple","images/simple/15.png","images/simple/16.png","images/simple/7.png,images/simple/14.png,images/simple/13.png,images/simple/1.png,images/simple/8.png,images/simple/10.png,images/simple/18.png","0","null","","200","511.530000064522","","","","background","",""
"","null","html-keyboard-response","36","128381","0.0-14.0-0.11","SS1604588544536","","null","","","","","","","","","","","","<img src=images/blank.png width =""500"" height = ""500"" style=""border:5px solid black"">","","",""
"","318.63499991595745","stimulus-presentation","37","128909","0.0-14.0-1.11","SS1604588544536","<img src='images/simple/16.png' width ='500' height = '500' style='border:5px solid black'>","40","all_simple","images/simple/15.png","images/simple/16.png","images/simple/7.png,images/simple/14.png,images/simple/13.png,images/simple/1.png,images/simple/8.png,images/simple/10.png,images/simple/18.png","0","null","","200","518.6349999159575","","","","background","",""
"","null","html-keyboard-response","38","129746","0.0-14.0-0.12","SS1604588544536","","null","","","","","","","","","","","","<img src=images/blank.png width =""500"" height = ""500"" style=""border:5px solid black"">","","",""
"","404.6650000382215","stimulus-presentation","39","130357","0.0-14.0-1.12","SS1604588544536","<img src='images/simple/16.png' width ='500' height = '500' style='border:5px solid black'>","40","all_simple","images/simple/15.png","images/simple/16.png","images/simple/7.png,images/simple/14.png,images/simple/13.png,images/simple/1.png,images/simple/8.png,images/simple/10.png,images/simple/18.png","0","null","","200","604.6650000382215","","","","background","",""
"","null","html-keyboard-response","40","131589","0.0-14.0-0.13","SS1604588544536","","null","","","","","","","","","","","","<img src=images/blank.png width =""500"" height = ""500"" style=""border:5px solid black"">","","",""
"","257.454999955371","stimulus-presentation","41","132053","0.0-14.0-1.13","SS1604588544536","<img src='images/simple/16.png' width ='500' height = '500' style='border:5px solid black'>","40","all_simple","images/simple/15.png","images/simple/16.png","images/simple/7.png,images/simple/14.png,images/simple/13.png,images/simple/1.png,images/simple/8.png,images/simple/10.png,images/simple/18.png","0","null","","200","457.454999955371","","","","background","",""
"","null","html-keyboard-response","42","133212","0.0-14.0-0.14","SS1604588544536","","null","","","","","","","","","","","","<img src=images/blank.png width =""500"" height = ""500"" style=""border:5px solid black"">","","",""
"","248.4599999152124","stimulus-presentation","43","133668","0.0-14.0-1.14","SS1604588544536","<img src='images/simple/16.png' width ='500' height = '500' style='border:5px solid black'>","40","all_simple","images/simple/15.png","images/simple/16.png","images/simple/7.png,images/simple/14.png,images/simple/13.png,images/simple/1.png,images/simple/8.png,images/simple/10.png,images/simple/18.png","0","null","","200","448.4599999152124","","","","background","",""
"","null","html-keyboard-response","44","134645","0.0-14.0-0.15","SS1604588544536","","null","","","","","","","","","","","","<img src=images/blank.png width =""500"" height = ""500"" style=""border:5px solid black"">","","",""
"","201.28500019200146","stimulus-presentation","45","135052","0.0-14.0-1.15","SS1604588544536","<img src='images/simple/16.png' width ='500' height = '500' style='border:5px solid black'>","40","all_simple","images/simple/15.png","images/simple/16.png","images/simple/7.png,images/simple/14.png,images/simple/13.png,images/simple/1.png,images/simple/8.png,images/simple/10.png,images/simple/18.png","0","null","","200","401.28500019200146","","","","background","",""
"","null","html-keyboard-response","46","136272","0.0-14.0-0.16","SS1604588544536","","null","","","","","","","","","","","","<img src=images/blank.png width =""500"" height = ""500"" style=""border:5px solid black"">","","",""
"","196.57999998889863","stimulus-presentation","47","136677","0.0-14.0-1.16","SS1604588544536","<img src='images/simple/16.png' width ='500' height = '500' style='border:5px solid black'>","40","all_simple","images/simple/15.png","images/simple/16.png","images/simple/7.png,images/simple/14.png,images/simple/13.png,images/simple/1.png,images/simple/8.png,images/simple/10.png,images/simple/18.png","0","null","","200","396.57999998889863","","","","background","",""
"","null","html-keyboard-response","48","137976","0.0-14.0-0.17","SS1604588544536","","null","","","","","","","","","","","","<img src=images/blank.png width =""500"" height = ""500"" style=""border:5px solid black"">","","",""
"","237.39999998360872","stimulus-presentation","49","138421","0.0-14.0-1.17","SS1604588544536","<img src='images/simple/16.png' width ='500' height = '500' style='border:5px solid black'>","40","all_simple","images/simple/15.png","images/simple/16.png","images/simple/7.png,images/simple/14.png,images/simple/13.png,images/simple/1.png,images/simple/8.png,images/simple/10.png,images/simple/18.png","0","null","","200","437.3999999836087","","","","background","",""
"","null","html-keyboard-response","50","139510","0.0-14.0-0.18","SS1604588544536","","null","","","","","","","","","","","","<img src=images/blank.png width =""500"" height = ""500"" style=""border:5px solid black"">","","",""
"","151.49000007659197","stimulus-presentation","51","139867","0.0-14.0-1.18","SS1604588544536","<img src='images/simple/16.png' width ='500' height = '500' style='border:5px solid black'>","40","all_simple","images/simple/15.png","images/simple/16.png","images/simple/7.png,images/simple/14.png,images/simple/13.png,images/simple/1.png,images/simple/8.png,images/simple/10.png,images/simple/18.png","0","null","","200","351.49000007659197","","","","background","",""
"","null","html-keyboard-response","52","140981","0.0-14.0-0.19","SS1604588544536","","null","","","","","","","","","","","","<img src=images/blank.png width =""500"" height = ""500"" style=""border:5px solid black"">","","",""
"","199.74500010721385","stimulus-presentation","53","141388","0.0-14.0-1.19","SS1604588544536","<img src='images/simple/16.png' width ='500' height = '500' style='border:5px solid black'>","40","all_simple","images/simple/15.png","images/simple/16.png","images/simple/7.png,images/simple/14.png,images/simple/13.png,images/simple/1.png,images/simple/8.png,images/simple/10.png,images/simple/18.png","0","null","","200","399.74500010721385","","","","background","",""
"","null","html-keyboard-response","54","142267","0.0-14.0-0.20","SS1604588544536","","null","","","","","","","","","","","","<img src=images/blank.png width =""500"" height = ""500"" style=""border:5px solid black"">","","",""
"","265.9249999560416","stimulus-presentation","55","142740","0.0-14.0-1.20","SS1604588544536","<img src='images/simple/16.png' width ='500' height = '500' style='border:5px solid black'>","40","all_simple","images/simple/15.png","images/simple/16.png","images/simple/7.png,images/simple/14.png,images/simple/13.png,images/simple/1.png,images/simple/8.png,images/simple/10.png,images/simple/18.png","0","null","","200","465.9249999560416","","","","background","",""
"","null","html-keyboard-response","56","144002","0.0-14.0-0.21","SS1604588544536","","null","","","","","","","","","","","","<img src=images/blank.png width =""500"" height = ""500"" style=""border:5px solid black"">","","",""
"","518.6950000934303","stimulus-presentation","57","144731","0.0-14.0-1.21","SS1604588544536","<img src='images/simple/8.png' width ='500' height = '500' style='border:5px solid black'>","40","all_simple","images/simple/15.png","images/simple/16.png","images/simple/7.png,images/simple/14.png,images/simple/13.png,images/simple/1.png,images/simple/8.png,images/simple/10.png,images/simple/18.png","0","null","","200","718.6950000934303","","","","deviant","",""
"","null","html-keyboard-response","58","146027","0.0-14.0-0.22","SS1604588544536","","null","","","","","","","","","","","","<img src=images/blank.png width =""500"" height = ""500"" style=""border:5px solid black"">","","",""
"","206.5349998883903","stimulus-presentation","59","146443","0.0-14.0-1.22","SS1604588544536","<img src='images/simple/16.png' width ='500' height = '500' style='border:5px solid black'>","40","all_simple","images/simple/15.png","images/simple/16.png","images/simple/7.png,images/simple/14.png,images/simple/13.png,images/simple/1.png,images/simple/8.png,images/simple/10.png,images/simple/18.png","0","null","","200","406.5349998883903","","","","background","",""
"","null","html-keyboard-response","60","147698","0.0-14.0-0.23","SS1604588544536","","null","","","","","","","","","","","","<img src=images/blank.png width =""500"" height = ""500"" style=""border:5px solid black"">","","",""
"","147.7949998807162","stimulus-presentation","61","148059","0.0-14.0-1.23","SS1604588544536","<img src='images/simple/16.png' width ='500' height = '500' style='border:5px solid black'>","40","all_simple","images/simple/15.png","images/simple/16.png","images/simple/7.png,images/simple/14.png,images/simple/13.png,images/simple/1.png,images/simple/8.png,images/simple/10.png,images/simple/18.png","0","null","","200","347.7949998807162","","","","background","",""
"","null","html-keyboard-response","62","149031","0.0-14.0-0.24","SS1604588544536","","null","","","","","","","","","","","","<img src=images/blank.png width =""500"" height = ""500"" style=""border:5px solid black"">","","",""
"","1596.129999961704","stimulus-presentation","63","150834","0.0-14.0-1.24","SS1604588544536","<img src='images/simple/15.png' width ='500' height = '500' style='border:5px solid black'>","40","all_simple","images/simple/15.png","images/simple/16.png","images/simple/7.png,images/simple/14.png,images/simple/13.png,images/simple/1.png,images/simple/8.png,images/simple/10.png,images/simple/18.png","0","null","","200","1796.129999961704","yes","461.82999992743134","","target","",""
"","null","html-keyboard-response","64","152058","0.0-14.0-0.25","SS1604588544536","","null","","","","","","","","","","","","<img src=images/blank.png width =""500"" height = ""500"" style=""border:5px solid black"">","","",""
"","1210.0099998060614","stimulus-presentation","65","153482","0.0-14.0-1.25","SS1604588544536","<img src='images/simple/15.png' width ='500' height = '500' style='border:5px solid black'>","40","all_simple","images/simple/15.png","images/simple/16.png","images/simple/7.png,images/simple/14.png,images/simple/13.png,images/simple/1.png,images/simple/8.png,images/simple/10.png,images/simple/18.png","0","null","","200","1410.0099998060614","yes","346.2549999821931","","target","",""
"","null","html-keyboard-response","66","154754","0.0-14.0-0.26","SS1604588544536","","null","","","","","","","","","","","","<img src=images/blank.png width =""500"" height = ""500"" style=""border:5px solid black"">","","",""
"","557.5800000224262","stimulus-presentation","67","155529","0.0-14.0-1.26","SS1604588544536","<img src='images/simple/18.png' width ='500' height = '500' style='border:5px solid black'>","40","all_simple","images/simple/15.png","images/simple/16.png","images/simple/7.png,images/simple/14.png,images/simple/13.png,images/simple/1.png,images/simple/8.png,images/simple/10.png,images/simple/18.png","0","null","","200","757.5800000224262","","","","deviant","",""
"","null","html-keyboard-response","68","156615","0.0-14.0-0.27","SS1604588544536","","null","","","","","","","","","","","","<img src=images/blank.png width =""500"" height = ""500"" style=""border:5px solid black"">","","",""
"","433.8650000281632","stimulus-presentation","69","157267","0.0-14.0-1.27","SS1604588544536","<img src='images/simple/16.png' width ='500' height = '500' style='border:5px solid black'>","40","all_simple","images/simple/15.png","images/simple/16.png","images/simple/7.png,images/simple/14.png,images/simple/13.png,images/simple/1.png,images/simple/8.png,images/simple/10.png,images/simple/18.png","0","null","","200","633.8650000281632","","","","background","",""
"","null","html-keyboard-response","70","158156","0.0-14.0-0.28","SS1604588544536","","null","","","","","","","","","","","","<img src=images/blank.png width =""500"" height = ""500"" style=""border:5px solid black"">","","",""
"","333.369999891147","stimulus-presentation","71","158697","0.0-14.0-1.28","SS1604588544536","<img src='images/simple/16.png' width ='500' height = '500' style='border:5px solid black'>","40","all_simple","images/simple/15.png","images/simple/16.png","images/simple/7.png,images/simple/14.png,images/simple/13.png,images/simple/1.png,images/simple/8.png,images/simple/10.png,images/simple/18.png","0","null","","200","533.369999891147","","","","background","",""
"","null","html-keyboard-response","72","159778","0.0-14.0-0.29","SS1604588544536","","null","","","","","","","","","","","","<img src=images/blank.png width =""500"" height = ""500"" style=""border:5px solid black"">","","",""
"","208.5500000976026","stimulus-presentation","73","160194","0.0-14.0-1.29","SS1604588544536","<img src='images/simple/16.png' width ='500' height = '500' style='border:5px solid black'>","40","all_simple","images/simple/15.png","images/simple/16.png","images/simple/7.png,images/simple/14.png,images/simple/13.png,images/simple/1.png,images/simple/8.png,images/simple/10.png,images/simple/18.png","0","null","","200","408.5500000976026","","","","background","",""
"","null","html-keyboard-response","74","161298","0.0-14.0-0.30","SS1604588544536","","null","","","","","","","","","","","","<img src=images/blank.png width =""500"" height = ""500"" style=""border:5px solid black"">","","",""
"","272.4650001619011","stimulus-presentation","75","161777","0.0-14.0-1.30","SS1604588544536","<img src='images/simple/16.png' width ='500' height = '500' style='border:5px solid black'>","40","all_simple","images/simple/15.png","images/simple/16.png","images/simple/7.png,images/simple/14.png,images/simple/13.png,images/simple/1.png,images/simple/8.png,images/simple/10.png,images/simple/18.png","0","null","","200","472.4650001619011","","","","background","",""
"","null","html-keyboard-response","76","162645","0.0-14.0-0.31","SS1604588544536","","null","","","","","","","","","","","","<img src=images/blank.png width =""500"" height = ""500"" style=""border:5px solid black"">","","",""
"","258.62999982200563","stimulus-presentation","77","163113","0.0-14.0-1.31","SS1604588544536","<img src='images/simple/16.png' width ='500' height = '500' style='border:5px solid black'>","40","all_simple","images/simple/15.png","images/simple/16.png","images/simple/7.png,images/simple/14.png,images/simple/13.png,images/simple/1.png,images/simple/8.png,images/simple/10.png,images/simple/18.png","0","null","","200","458.62999982200563","","","","background","",""
"","null","html-keyboard-response","78","164365","0.0-14.0-0.32","SS1604588544536","","null","","","","","","","","","","","","<img src=images/blank.png width =""500"" height = ""500"" style=""border:5px solid black"">","","",""
"","195.10999997146428","stimulus-presentation","79","164768","0.0-14.0-1.32","SS1604588544536","<img src='images/simple/16.png' width ='500' height = '500' style='border:5px solid black'>","40","all_simple","images/simple/15.png","images/simple/16.png","images/simple/7.png,images/simple/14.png,images/simple/13.png,images/simple/1.png,images/simple/8.png,images/simple/10.png,images/simple/18.png","0","null","","200","395.1099999714643","","","","background","",""
"","null","html-keyboard-response","80","165772","0.0-14.0-0.33","SS1604588544536","","null","","","","","","","","","","","","<img src=images/blank.png width =""500"" height = ""500"" style=""border:5px solid black"">","","",""
"","1395.1950001064688","stimulus-presentation","81","167376","0.0-14.0-1.33","SS1604588544536","<img src='images/simple/15.png' width ='500' height = '500' style='border:5px solid black'>","40","all_simple","images/simple/15.png","images/simple/16.png","images/simple/7.png,images/simple/14.png,images/simple/13.png,images/simple/1.png,images/simple/8.png,images/simple/10.png,images/simple/18.png","0","null","","200","1595.1950001064688","yes","442.9000001400709","","target","",""
"","null","html-keyboard-response","82","168342","0.0-14.0-0.34","SS1604588544536","","null","","","","","","","","","","","","<img src=images/blank.png width =""500"" height = ""500"" style=""border:5px solid black"">","","",""
"","387.0599998626858","stimulus-presentation","83","168936","0.0-14.0-1.34","SS1604588544536","<img src='images/simple/7.png' width ='500' height = '500' style='border:5px solid black'>","40","all_simple","images/simple/15.png","images/simple/16.png","images/simple/7.png,images/simple/14.png,images/simple/13.png,images/simple/1.png,images/simple/8.png,images/simple/10.png,images/simple/18.png","0","null","","200","587.0599998626858","","","","deviant","",""
"","null","html-keyboard-response","84","169771","0.0-14.0-0.35","SS1604588544536","","null","","","","","","","","","","","","<img src=images/blank.png width =""500"" height = ""500"" style=""border:5px solid black"">","","",""
"","1440.3399999719113","stimulus-presentation","85","171423","0.0-14.0-1.35","SS1604588544536","<img src='images/simple/15.png' width ='500' height = '500' style='border:5px solid black'>","40","all_simple","images/simple/15.png","images/simple/16.png","images/simple/7.png,images/simple/14.png,images/simple/13.png,images/simple/1.png,images/simple/8.png,images/simple/10.png,images/simple/18.png","0","null","","200","1640.3399999719113","yes","416.9449999462813","","target","",""
"","null","html-keyboard-response","86","172486","0.0-14.0-0.36","SS1604588544536","","null","","","","","","","","","","","","<img src=images/blank.png width =""500"" height = ""500"" style=""border:5px solid black"">","","",""
"","346.18499991483986","stimulus-presentation","87","173039","0.0-14.0-1.36","SS1604588544536","<img src='images/simple/16.png' width ='500' height = '500' style='border:5px solid black'>","40","all_simple","images/simple/15.png","images/simple/16.png","images/simple/7.png,images/simple/14.png,images/simple/13.png,images/simple/1.png,images/simple/8.png,images/simple/10.png,images/simple/18.png","0","null","","200","546.1849999148399","","","","background","",""
"","null","html-keyboard-response","88","174118","0.0-14.0-0.37","SS1604588544536","","null","","","","","","","","","","","","<img src=images/blank.png width =""500"" height = ""500"" style=""border:5px solid black"">","","",""
"","305.87000004015863","stimulus-presentation","89","174639","0.0-14.0-1.37","SS1604588544536","<img src='images/simple/16.png' width ='500' height = '500' style='border:5px solid black'>","40","all_simple","images/simple/15.png","images/simple/16.png","images/simple/7.png,images/simple/14.png,images/simple/13.png,images/simple/1.png,images/simple/8.png,images/simple/10.png,images/simple/18.png","0","null","","200","505.87000004015863","","","","background","",""
"","null","html-keyboard-response","90","175664","0.0-14.0-0.38","SS1604588544536","","null","","","","","","","","","","","","<img src=images/blank.png width =""500"" height = ""500"" style=""border:5px solid black"">","","",""
"","286.94500005804","stimulus-presentation","91","176158","0.0-14.0-1.38","SS1604588544536","<img src='images/simple/16.png' width ='500' height = '500' style='border:5px solid black'>","40","all_simple","images/simple/15.png","images/simple/16.png","images/simple/7.png,images/simple/14.png,images/simple/13.png,images/simple/1.png,images/simple/8.png,images/simple/10.png,images/simple/18.png","0","null","","200","486.94500005804","","","","background","",""
"","null","html-keyboard-response","92","177149","0.0-14.0-0.39","SS1604588544536","","null","","","","","","","","","","","","<img src=images/blank.png width =""500"" height = ""500"" style=""border:5px solid black"">","","",""
"","1782.1299999486655","stimulus-presentation","93","179168","0.0-14.0-1.39","SS1604588544536","<img src='images/simple/15.png' width ='500' height = '500' style='border:5px solid black'>","40","all_simple","images/simple/15.png","images/simple/16.png","images/simple/7.png,images/simple/14.png,images/simple/13.png,images/simple/1.png,images/simple/8.png,images/simple/10.png,images/simple/18.png","0","null","","200","1982.1299999486655","yes","397.4150000140071","","target","",""
"","null","html-keyboard-response","94","180408","0.0-14.0-0.40","SS1604588544536","","null","","","","","","","","","","","","<img src=images/blank.png width =""500"" height = ""500"" style=""border:5px solid black"">","","",""
"","1269.9650002177805","stimulus-presentation","95","181886","0.0-14.0-1.40","SS1604588544536","<img src='images/simple/15.png' width ='500' height = '500' style='border:5px solid black'>","40","all_simple","images/simple/15.png","images/simple/16.png","images/simple/7.png,images/simple/14.png,images/simple/13.png,images/simple/1.png,images/simple/8.png,images/simple/10.png,images/simple/18.png","0","null","","200","1469.9650002177805","yes","358.92500006593764","","target","",""
"","null","html-keyboard-response","96","182781","0.0-14.0-0.41","SS1604588544536","","null","","","","","","","","","","","","<img src=images/blank.png width =""500"" height = ""500"" style=""border:5px solid black"">","","",""
"","278.10999983921647","stimulus-presentation","97","183270","0.0-14.0-1.41","SS1604588544536","<img src='images/simple/16.png' width ='500' height = '500' style='border:5px solid black'>","40","all_simple","images/simple/15.png","images/simple/16.png","images/simple/7.png,images/simple/14.png,images/simple/13.png,images/simple/1.png,images/simple/8.png,images/simple/10.png,images/simple/18.png","0","null","","200","478.10999983921647","","","","background","",""
"","null","html-keyboard-response","98","184222","0.0-14.0-0.42","SS1604588544536","","null","","","","","","","","","","","","<img src=images/blank.png width =""500"" height = ""500"" style=""border:5px solid black"">","","",""
"","543.5450000222772","stimulus-presentation","99","184983","0.0-14.0-1.42","SS1604588544536","<img src='images/simple/10.png' width ='500' height = '500' style='border:5px solid black'>","40","all_simple","images/simple/15.png","images/simple/16.png","images/simple/7.png,images/simple/14.png,images/simple/13.png,images/simple/1.png,images/simple/8.png,images/simple/10.png,images/simple/18.png","0","null","","200","743.5450000222772","","","","deviant","",""
"","null","html-keyboard-response","100","185811","0.0-14.0-0.43","SS1604588544536","","null","","","","","","","","","","","","<img src=images/blank.png width =""500"" height = ""500"" style=""border:5px solid black"">","","",""
"","266.8899998534471","stimulus-presentation","101","186287","0.0-14.0-1.43","SS1604588544536","<img src='images/simple/16.png' width ='500' height = '500' style='border:5px solid black'>","40","all_simple","images/simple/15.png","images/simple/16.png","images/simple/7.png,images/simple/14.png,images/simple/13.png,images/simple/1.png,images/simple/8.png,images/simple/10.png,images/simple/18.png","0","null","","200","466.8899998534471","","","","background","",""
"","null","html-keyboard-response","102","187109","0.0-14.0-0.44","SS1604588544536","","null","","","","","","","","","","","","<img src=images/blank.png width =""500"" height = ""500"" style=""border:5px solid black"">","","",""
"","417.2950000502169","stimulus-presentation","103","187733","0.0-14.0-1.44","SS1604588544536","<img src='images/simple/16.png' width ='500' height = '500' style='border:5px solid black'>","40","all_simple","images/simple/15.png","images/simple/16.png","images/simple/7.png,images/simple/14.png,images/simple/13.png,images/simple/1.png,images/simple/8.png,images/simple/10.png,images/simple/18.png","0","null","","200","617.2950000502169","","","","background","",""
"","null","html-keyboard-response","104","188971","0.0-14.0-0.45","SS1604588544536","","null","","","","","","","","","","","","<img src=images/blank.png width =""500"" height = ""500"" style=""border:5px solid black"">","","",""
"","231.8749998230487","stimulus-presentation","105","189413","0.0-14.0-1.45","SS1604588544536","<img src='images/simple/16.png' width ='500' height = '500' style='border:5px solid black'>","40","all_simple","images/simple/15.png","images/simple/16.png","images/simple/7.png,images/simple/14.png,images/simple/13.png,images/simple/1.png,images/simple/8.png,images/simple/10.png,images/simple/18.png","0","null","","200","431.8749998230487","","","","background","",""
"","null","html-keyboard-response","106","190226","0.0-14.0-0.46","SS1604588544536","","null","","","","","","","","","","","","<img src=images/blank.png width =""500"" height = ""500"" style=""border:5px solid black"">","","",""
"","225.3900000359863","stimulus-presentation","107","190661","0.0-14.0-1.46","SS1604588544536","<img src='images/simple/16.png' width ='500' height = '500' style='border:5px solid black'>","40","all_simple","images/simple/15.png","images/simple/16.png","images/simple/7.png,images/simple/14.png,images/simple/13.png,images/simple/1.png,images/simple/8.png,images/simple/10.png,images/simple/18.png","0","null","","200","425.3900000359863","","","","background","",""
"","null","html-keyboard-response","108","191519","0.0-14.0-0.47","SS1604588544536","","null","","","","","","","","","","","","<img src=images/blank.png width =""500"" height = ""500"" style=""border:5px solid black"">","","",""
"","192.17499997466803","stimulus-presentation","109","191919","0.0-14.0-1.47","SS1604588544536","<img src='images/simple/16.png' width ='500' height = '500' style='border:5px solid black'>","40","all_simple","images/simple/15.png","images/simple/16.png","images/simple/7.png,images/simple/14.png,images/simple/13.png,images/simple/1.png,images/simple/8.png,images/simple/10.png,images/simple/18.png","0","null","","200","392.174999974668","","","","background","",""
"","null","html-keyboard-response","110","192872","0.0-14.0-0.48","SS1604588544536","","null","","","","","","","","","","","","<img src=images/blank.png width =""500"" height = ""500"" style=""border:5px solid black"">","","",""
"","185.59499992989004","stimulus-presentation","111","193277","0.0-14.0-1.48","SS1604588544536","<img src='images/simple/16.png' width ='500' height = '500' style='border:5px solid black'>","40","all_simple","images/simple/15.png","images/simple/16.png","images/simple/7.png,images/simple/14.png,images/simple/13.png,images/simple/1.png,images/simple/8.png,images/simple/10.png,images/simple/18.png","0","null","","200","385.59499992989004","","","","background","",""
"[{""page_index"":0,""viewing_time"":95548}]","95550","task-instructions","112","288833","0.0-15.0","SS1604588544536","","","","","","","","","","","","","","","","",""
"[{""page_index"":0,""viewing_time"":3017.8199999500066},{""page_index"":1,""viewing_time"":2990.6550000887364},{""page_index"":2,""viewing_time"":2226.120000006631}]","8235.360000049695","instructions","113","297077","0.0-16.0","SS1604588544536","","","","","","","","","","","","","","","","",""
"","null","html-keyboard-response","114","297968","0.0-17.0-0.0","SS1604588544536","","null","","","","","","","","","","","","<img src=images/blank.png width =""500"" height = ""500"" style=""border:5px solid black"">","","",""
"","322.66000006347895","stimulus-presentation","115","298502","0.0-17.0-1.0","SS1604588544536","<img src='images/simple/4.png' width ='500' height = '500' style='border:5px solid black'>","40","mixed_simple_deviant","images/complex/5.png","images/complex/11.png","images/simple/5.png,images/simple/3.png,images/simple/9.png,images/simple/6.png,images/simple/11.png,images/simple/4.png,images/simple/12.png","1","null","","200","522.660000063479","","","","deviant","",""
"","null","html-keyboard-response","116","299690","0.0-17.0-0.1","SS1604588544536","","null","","","","","","","","","","","","<img src=images/blank.png width =""500"" height = ""500"" style=""border:5px solid black"">","","",""
"","491.3850000593811","stimulus-presentation","117","300391","0.0-17.0-1.1","SS1604588544536","<img src='images/complex/11.png' width ='500' height = '500' style='border:5px solid black'>","40","mixed_simple_deviant","images/complex/5.png","images/complex/11.png","images/simple/5.png,images/simple/3.png,images/simple/9.png,images/simple/6.png,images/simple/11.png,images/simple/4.png,images/simple/12.png","1","null","","200","691.3850000593811","","","","background","",""
"","null","html-keyboard-response","118","301604","0.0-17.0-0.2","SS1604588544536","","null","","","","","","","","","","","","<img src=images/blank.png width =""500"" height = ""500"" style=""border:5px solid black"">","","",""
"","226.49999987334013","stimulus-presentation","119","302038","0.0-17.0-1.2","SS1604588544536","<img src='images/complex/11.png' width ='500' height = '500' style='border:5px solid black'>","40","mixed_simple_deviant","images/complex/5.png","images/complex/11.png","images/simple/5.png,images/simple/3.png,images/simple/9.png,images/simple/6.png,images/simple/11.png,images/simple/4.png,images/simple/12.png","1","null","","200","426.49999987334013","","","","background","",""
"","null","html-keyboard-response","120","303094","0.0-17.0-0.3","SS1604588544536","","null","","","","","","","","","","","","<img src=images/blank.png width =""500"" height = ""500"" style=""border:5px solid black"">","","",""
"","238.29000000841916","stimulus-presentation","121","303542","0.0-17.0-1.3","SS1604588544536","<img src='images/complex/11.png' width ='500' height = '500' style='border:5px solid black'>","40","mixed_simple_deviant","images/complex/5.png","images/complex/11.png","images/simple/5.png,images/simple/3.png,images/simple/9.png,images/simple/6.png,images/simple/11.png,images/simple/4.png,images/simple/12.png","1","null","","200","438.29000000841916","","","","background","",""
"","null","html-keyboard-response","122","304705","0.0-17.0-0.4","SS1604588544536","","null","","","","","","","","","","","","<img src=images/blank.png width =""500"" height = ""500"" style=""border:5px solid black"">","","",""
"","243.15500003285706","stimulus-presentation","123","305158","0.0-17.0-1.4","SS1604588544536","<img src='images/complex/11.png' width ='500' height = '500' style='border:5px solid black'>","40","mixed_simple_deviant","images/complex/5.png","images/complex/11.png","images/simple/5.png,images/simple/3.png,images/simple/9.png,images/simple/6.png,images/simple/11.png,images/simple/4.png,images/simple/12.png","1","null","","200","443.15500003285706","","","","background","",""
"","null","html-keyboard-response","124","306281","0.0-17.0-0.5","SS1604588544536","","null","","","","","","","","","","","","<img src=images/blank.png width =""500"" height = ""500"" style=""border:5px solid black"">","","",""
"","418.34500012919307","stimulus-presentation","125","306910","0.0-17.0-1.5","SS1604588544536","<img src='images/simple/6.png' width ='500' height = '500' style='border:5px solid black'>","40","mixed_simple_deviant","images/complex/5.png","images/complex/11.png","images/simple/5.png,images/simple/3.png,images/simple/9.png,images/simple/6.png,images/simple/11.png,images/simple/4.png,images/simple/12.png","1","null","","200","618.3450001291931","","","","deviant","",""
"","null","html-keyboard-response","126","308097","0.0-17.0-0.6","SS1604588544536","","null","","","","","","","","","","","","<img src=images/blank.png width =""500"" height = ""500"" style=""border:5px solid black"">","","",""
"","244.54499990679324","stimulus-presentation","127","308549","0.0-17.0-1.6","SS1604588544536","<img src='images/complex/11.png' width ='500' height = '500' style='border:5px solid black'>","40","mixed_simple_deviant","images/complex/5.png","images/complex/11.png","images/simple/5.png,images/simple/3.png,images/simple/9.png,images/simple/6.png,images/simple/11.png,images/simple/4.png,images/simple/12.png","1","null","","200","444.54499990679324","","","","background","",""
"","null","html-keyboard-response","128","309787","0.0-17.0-0.7","SS1604588544536","","null","","","","","","","","","","","","<img src=images/blank.png width =""500"" height = ""500"" style=""border:5px solid black"">","","",""
"","243.44000010751188","stimulus-presentation","129","310238","0.0-17.0-1.7","SS1604588544536","<img src='images/complex/11.png' width ='500' height = '500' style='border:5px solid black'>","40","mixed_simple_deviant","images/complex/5.png","images/complex/11.png","images/simple/5.png,images/simple/3.png,images/simple/9.png,images/simple/6.png,images/simple/11.png,images/simple/4.png,images/simple/12.png","1","null","","200","443.4400001075119","","","","background","",""
"","null","html-keyboard-response","130","311206","0.0-17.0-0.8","SS1604588544536","","null","","","","","","","","","","","","<img src=images/blank.png width =""500"" height = ""500"" style=""border:5px solid black"">","","",""
"","1052.559999981895","stimulus-presentation","131","312469","0.0-17.0-1.8","SS1604588544536","<img src='images/complex/5.png' width ='500' height = '500' style='border:5px solid black'>","40","mixed_simple_deviant","images/complex/5.png","images/complex/11.png","images/simple/5.png,images/simple/3.png,images/simple/9.png,images/simple/6.png,images/simple/11.png,images/simple/4.png,images/simple/12.png","1","null","","200","1252.559999981895","yes","334.084999980405","","target","",""
"","null","html-keyboard-response","132","313685","0.0-17.0-0.9","SS1604588544536","","null","","","","","","","","","","","","<img src=images/blank.png width =""500"" height = ""500"" style=""border:5px solid black"">","","",""
"","221.40000015497208","stimulus-presentation","133","314116","0.0-17.0-1.9","SS1604588544536","<img src='images/complex/11.png' width ='500' height = '500' style='border:5px solid black'>","40","mixed_simple_deviant","images/complex/5.png","images/complex/11.png","images/simple/5.png,images/simple/3.png,images/simple/9.png,images/simple/6.png,images/simple/11.png,images/simple/4.png,images/simple/12.png","1","null","","200","421.4000001549721","","","","background","",""
"","null","html-keyboard-response","134","314991","0.0-17.0-0.10","SS1604588544536","","null","","","","","","","","","","","","<img src=images/blank.png width =""500"" height = ""500"" style=""border:5px solid black"">","","",""
"","255.35500003024936","stimulus-presentation","135","315461","0.0-17.0-1.10","SS1604588544536","<img src='images/complex/11.png' width ='500' height = '500' style='border:5px solid black'>","40","mixed_simple_deviant","images/complex/5.png","images/complex/11.png","images/simple/5.png,images/simple/3.png,images/simple/9.png,images/simple/6.png,images/simple/11.png,images/simple/4.png,images/simple/12.png","1","null","","200","455.35500003024936","","","","background","",""
"","null","html-keyboard-response","136","316287","0.0-17.0-0.11","SS1604588544536","","null","","","","","","","","","","","","<img src=images/blank.png width =""500"" height = ""500"" style=""border:5px solid black"">","","",""
"","253.76500003039837","stimulus-presentation","137","316748","0.0-17.0-1.11","SS1604588544536","<img src='images/complex/11.png' width ='500' height = '500' style='border:5px solid black'>","40","mixed_simple_deviant","images/complex/5.png","images/complex/11.png","images/simple/5.png,images/simple/3.png,images/simple/9.png,images/simple/6.png,images/simple/11.png,images/simple/4.png,images/simple/12.png","1","null","","200","453.76500003039837","","","","background","",""
"","null","html-keyboard-response","138","317669","0.0-17.0-0.12","SS1604588544536","","null","","","","","","","","","","","","<img src=images/blank.png width =""500"" height = ""500"" style=""border:5px solid black"">","","",""
"","172.88500000722706","stimulus-presentation","139","318053","0.0-17.0-1.12","SS1604588544536","<img src='images/complex/11.png' width ='500' height = '500' style='border:5px solid black'>","40","mixed_simple_deviant","images/complex/5.png","images/complex/11.png","images/simple/5.png,images/simple/3.png,images/simple/9.png,images/simple/6.png,images/simple/11.png,images/simple/4.png,images/simple/12.png","1","null","","200","372.88500000722706","","","","background","",""
"","null","html-keyboard-response","140","319283","0.0-17.0-0.13","SS1604588544536","","null","","","","","","","","","","","","<img src=images/blank.png width =""500"" height = ""500"" style=""border:5px solid black"">","","",""
"","247.56500008516014","stimulus-presentation","141","319740","0.0-17.0-1.13","SS1604588544536","<img src='images/complex/11.png' width ='500' height = '500' style='border:5px solid black'>","40","mixed_simple_deviant","images/complex/5.png","images/complex/11.png","images/simple/5.png,images/simple/3.png,images/simple/9.png,images/simple/6.png,images/simple/11.png,images/simple/4.png,images/simple/12.png","1","null","","200","447.56500008516014","","","","background","",""
"","null","html-keyboard-response","142","320732","0.0-17.0-0.14","SS1604588544536","","null","","","","","","","","","","","","<img src=images/blank.png width =""500"" height = ""500"" style=""border:5px solid black"">","","",""
"","274.9550000298768","stimulus-presentation","143","321220","0.0-17.0-1.14","SS1604588544536","<img src='images/complex/11.png' width ='500' height = '500' style='border:5px solid black'>","40","mixed_simple_deviant","images/complex/5.png","images/complex/11.png","images/simple/5.png,images/simple/3.png,images/simple/9.png,images/simple/6.png,images/simple/11.png,images/simple/4.png,images/simple/12.png","1","null","","200","474.9550000298768","","","","background","",""
"","null","html-keyboard-response","144","322375","0.0-17.0-0.15","SS1604588544536","","null","","","","","","","","","","","","<img src=images/blank.png width =""500"" height = ""500"" style=""border:5px solid black"">","","",""
"","282.99500001594424","stimulus-presentation","145","322868","0.0-17.0-1.15","SS1604588544536","<img src='images/complex/11.png' width ='500' height = '500' style='border:5px solid black'>","40","mixed_simple_deviant","images/complex/5.png","images/complex/11.png","images/simple/5.png,images/simple/3.png,images/simple/9.png,images/simple/6.png,images/simple/11.png,images/simple/4.png,images/simple/12.png","1","null","","200","482.99500001594424","","","","background","",""
"","null","html-keyboard-response","146","323848","0.0-17.0-0.16","SS1604588544536","","null","","","","","","","","","","","","<img src=images/blank.png width =""500"" height = ""500"" style=""border:5px solid black"">","","",""
"","283.72499998658895","stimulus-presentation","147","324339","0.0-17.0-1.16","SS1604588544536","<img src='images/complex/11.png' width ='500' height = '500' style='border:5px solid black'>","40","mixed_simple_deviant","images/complex/5.png","images/complex/11.png","images/simple/5.png,images/simple/3.png,images/simple/9.png,images/simple/6.png,images/simple/11.png,images/simple/4.png,images/simple/12.png","1","null","","200","483.72499998658895","","","","background","",""
"","null","html-keyboard-response","148","325351","0.0-17.0-0.17","SS1604588544536","","null","","","","","","","","","","","","<img src=images/blank.png width =""500"" height = ""500"" style=""border:5px solid black"">","","",""
"","2641.9899999164045","stimulus-presentation","149","328203","0.0-17.0-1.17","SS1604588544536","<img src='images/complex/5.png' width ='500' height = '500' style='border:5px solid black'>","40","mixed_simple_deviant","images/complex/5.png","images/complex/11.png","images/simple/5.png,images/simple/3.png,images/simple/9.png,images/simple/6.png,images/simple/11.png,images/simple/4.png,images/simple/12.png","1","null","","200","2841.9899999164045","yes","354.37000007368624","","target","",""
"","null","html-keyboard-response","150","329040","0.0-17.0-0.18","SS1604588544536","","null","","","","","","","","","","","","<img src=images/blank.png width =""500"" height = ""500"" style=""border:5px solid black"">","","",""
"","207.94000010937452","stimulus-presentation","151","329458","0.0-17.0-1.18","SS1604588544536","<img src='images/complex/11.png' width ='500' height = '500' style='border:5px solid black'>","40","mixed_simple_deviant","images/complex/5.png","images/complex/11.png","images/simple/5.png,images/simple/3.png,images/simple/9.png,images/simple/6.png,images/simple/11.png,images/simple/4.png,images/simple/12.png","1","null","","200","407.9400001093745","","","","background","",""
"","null","html-keyboard-response","152","330677","0.0-17.0-0.19","SS1604588544536","","null","","","","","","","","","","","","<img src=images/blank.png width =""500"" height = ""500"" style=""border:5px solid black"">","","",""
"","425.6150000728667","stimulus-presentation","153","331314","0.0-17.0-1.19","SS1604588544536","<img src='images/simple/12.png' width ='500' height = '500' style='border:5px solid black'>","40","mixed_simple_deviant","images/complex/5.png","images/complex/11.png","images/simple/5.png,images/simple/3.png,images/simple/9.png,images/simple/6.png,images/simple/11.png,images/simple/4.png,images/simple/12.png","1","null","","200","625.6150000728667","","","","deviant","",""
"","null","html-keyboard-response","154","332463","0.0-17.0-0.20","SS1604588544536","","null","","","","","","","","","","","","<img src=images/blank.png width =""500"" height = ""500"" style=""border:5px solid black"">","","",""
"","266.4550000336021","stimulus-presentation","155","332939","0.0-17.0-1.20","SS1604588544536","<img src='images/complex/11.png' width ='500' height = '500' style='border:5px solid black'>","40","mixed_simple_deviant","images/complex/5.png","images/complex/11.png","images/simple/5.png,images/simple/3.png,images/simple/9.png,images/simple/6.png,images/simple/11.png,images/simple/4.png,images/simple/12.png","1","null","","200","466.4550000336021","","","","background","",""
"","null","html-keyboard-response","156","334160","0.0-17.0-0.21","SS1604588544536","","null","","","","","","","","","","","","<img src=images/blank.png width =""500"" height = ""500"" style=""border:5px solid black"">","","",""
"","366.99499981477857","stimulus-presentation","157","334738","0.0-17.0-1.21","SS1604588544536","<img src='images/simple/11.png' width ='500' height = '500' style='border:5px solid black'>","40","mixed_simple_deviant","images/complex/5.png","images/complex/11.png","images/simple/5.png,images/simple/3.png,images/simple/9.png,images/simple/6.png,images/simple/11.png,images/simple/4.png,images/simple/12.png","1","null","","200","566.9949998147786","","","","deviant","",""
"","null","html-keyboard-response","158","335637","0.0-17.0-0.22","SS1604588544536","","null","","","","","","","","","","","","<img src=images/blank.png width =""500"" height = ""500"" style=""border:5px solid black"">","","",""
"","296.6749998740852","stimulus-presentation","159","336146","0.0-17.0-1.22","SS1604588544536","<img src='images/complex/11.png' width ='500' height = '500' style='border:5px solid black'>","40","mixed_simple_deviant","images/complex/5.png","images/complex/11.png","images/simple/5.png,images/simple/3.png,images/simple/9.png,images/simple/6.png,images/simple/11.png,images/simple/4.png,images/simple/12.png","1","null","","200","496.6749998740852","","","","background","",""
"","null","html-keyboard-response","160","337198","0.0-17.0-0.23","SS1604588544536","","null","","","","","","","","","","","","<img src=images/blank.png width =""500"" height = ""500"" style=""border:5px solid black"">","","",""
"","271.0100000258535","stimulus-presentation","161","337682","0.0-17.0-1.23","SS1604588544536","<img src='images/complex/11.png' width ='500' height = '500' style='border:5px solid black'>","40","mixed_simple_deviant","images/complex/5.png","images/complex/11.png","images/simple/5.png,images/simple/3.png,images/simple/9.png,images/simple/6.png,images/simple/11.png,images/simple/4.png,images/simple/12.png","1","null","","200","471.0100000258535","","","","background","",""
"","null","html-keyboard-response","162","338922","0.0-17.0-0.24","SS1604588544536","","null","","","","","","","","","","","","<img src=images/blank.png width =""500"" height = ""500"" style=""border:5px solid black"">","","",""
"","198.68999999016523","stimulus-presentation","163","339338","0.0-17.0-1.24","SS1604588544536","<img src='images/complex/11.png' width ='500' height = '500' style='border:5px solid black'>","40","mixed_simple_deviant","images/complex/5.png","images/complex/11.png","images/simple/5.png,images/simple/3.png,images/simple/9.png,images/simple/6.png,images/simple/11.png,images/simple/4.png,images/simple/12.png","1","null","","200","398.68999999016523","","","","background","",""
"","null","html-keyboard-response","164","340247","0.0-17.0-0.25","SS1604588544536","","null","","","","","","","","","","","","<img src=images/blank.png width =""500"" height = ""500"" style=""border:5px solid black"">","","",""
"","432.594999903813","stimulus-presentation","165","340888","0.0-17.0-1.25","SS1604588544536","<img src='images/simple/3.png' width ='500' height = '500' style='border:5px solid black'>","40","mixed_simple_deviant","images/complex/5.png","images/complex/11.png","images/simple/5.png,images/simple/3.png,images/simple/9.png,images/simple/6.png,images/simple/11.png,images/simple/4.png,images/simple/12.png","1","null","","200","632.594999903813","","","","deviant","",""
"","null","html-keyboard-response","166","342064","0.0-17.0-0.26","SS1604588544536","","null","","","","","","","","","","","","<img src=images/blank.png width =""500"" height = ""500"" style=""border:5px solid black"">","","",""
"","1096.5149998664856","stimulus-presentation","167","343369","0.0-17.0-1.26","SS1604588544536","<img src='images/complex/5.png' width ='500' height = '500' style='border:5px solid black'>","40","mixed_simple_deviant","images/complex/5.png","images/complex/11.png","images/simple/5.png,images/simple/3.png,images/simple/9.png,images/simple/6.png,images/simple/11.png,images/simple/4.png,images/simple/12.png","1","null","","200","1296.5149998664856","yes","272.11000001989305","","target","",""
"","null","html-keyboard-response","168","344435","0.0-17.0-0.27","SS1604588544536","","null","","","","","","","","","","","","<img src=images/blank.png width =""500"" height = ""500"" style=""border:5px solid black"">","","",""
"","1190.100000007078","stimulus-presentation","169","345835","0.0-17.0-1.27","SS1604588544536","<img src='images/complex/5.png' width ='500' height = '500' style='border:5px solid black'>","40","mixed_simple_deviant","images/complex/5.png","images/complex/11.png","images/simple/5.png,images/simple/3.png,images/simple/9.png,images/simple/6.png,images/simple/11.png,images/simple/4.png,images/simple/12.png","1","null","","200","1390.100000007078","yes","388.18500004708767","","target","",""
"","null","html-keyboard-response","170","347090","0.0-17.0-0.28","SS1604588544536","","null","","","","","","","","","","","","<img src=images/blank.png width =""500"" height = ""500"" style=""border:5px solid black"">","","",""
"","298.3999999705702","stimulus-presentation","171","347600","0.0-17.0-1.28","SS1604588544536","<img src='images/complex/11.png' width ='500' height = '500' style='border:5px solid black'>","40","mixed_simple_deviant","images/complex/5.png","images/complex/11.png","images/simple/5.png,images/simple/3.png,images/simple/9.png,images/simple/6.png,images/simple/11.png,images/simple/4.png,images/simple/12.png","1","null","","200","498.3999999705702","","","","background","",""
"","null","html-keyboard-response","172","348851","0.0-17.0-0.29","SS1604588544536","","null","","","","","","","","","","","","<img src=images/blank.png width =""500"" height = ""500"" style=""border:5px solid black"">","","",""
"","188.67500009946525","stimulus-presentation","173","349250","0.0-17.0-1.29","SS1604588544536","<img src='images/complex/11.png' width ='500' height = '500' style='border:5px solid black'>","40","mixed_simple_deviant","images/complex/5.png","images/complex/11.png","images/simple/5.png,images/simple/3.png,images/simple/9.png,images/simple/6.png,images/simple/11.png,images/simple/4.png,images/simple/12.png","1","null","","200","388.67500009946525","","","","background","",""
"","null","html-keyboard-response","174","350396","0.0-17.0-0.30","SS1604588544536","","null","","","","","","","","","","","","<img src=images/blank.png width =""500"" height = ""500"" style=""border:5px solid black"">","","",""
"","462.67500007525086","stimulus-presentation","175","351072","0.0-17.0-1.30","SS1604588544536","<img src='images/simple/5.png' width ='500' height = '500' style='border:5px solid black'>","40","mixed_simple_deviant","images/complex/5.png","images/complex/11.png","images/simple/5.png,images/simple/3.png,images/simple/9.png,images/simple/6.png,images/simple/11.png,images/simple/4.png,images/simple/12.png","1","null","","200","662.6750000752509","","","","deviant","",""
"","null","html-keyboard-response","176","352130","0.0-17.0-0.31","SS1604588544536","","null","","","","","","","","","","","","<img src=images/blank.png width =""500"" height = ""500"" style=""border:5px solid black"">","","",""
"","193.2850000448525","stimulus-presentation","177","352535","0.0-17.0-1.31","SS1604588544536","<img src='images/complex/11.png' width ='500' height = '500' style='border:5px solid black'>","40","mixed_simple_deviant","images/complex/5.png","images/complex/11.png","images/simple/5.png,images/simple/3.png,images/simple/9.png,images/simple/6.png,images/simple/11.png,images/simple/4.png,images/simple/12.png","1","null","","200","393.2850000448525","","","","background","",""
"","null","html-keyboard-response","178","353487","0.0-17.0-0.32","SS1604588544536","","null","","","","","","","","","","","","<img src=images/blank.png width =""500"" height = ""500"" style=""border:5px solid black"">","","",""
"","209.21000000089407","stimulus-presentation","179","353904","0.0-17.0-1.32","SS1604588544536","<img src='images/complex/11.png' width ='500' height = '500' style='border:5px solid black'>","40","mixed_simple_deviant","images/complex/5.png","images/complex/11.png","images/simple/5.png,images/simple/3.png,images/simple/9.png,images/simple/6.png,images/simple/11.png,images/simple/4.png,images/simple/12.png","1","null","","200","409.21000000089407","","","","background","",""
"","null","html-keyboard-response","180","354872","0.0-17.0-0.33","SS1604588544536","","null","","","","","","","","","","","","<img src=images/blank.png width =""500"" height = ""500"" style=""border:5px solid black"">","","",""
"","178.42500004917383","stimulus-presentation","181","355263","0.0-17.0-1.33","SS1604588544536","<img src='images/complex/11.png' width ='500' height = '500' style='border:5px solid black'>","40","mixed_simple_deviant","images/complex/5.png","images/complex/11.png","images/simple/5.png,images/simple/3.png,images/simple/9.png,images/simple/6.png,images/simple/11.png,images/simple/4.png,images/simple/12.png","1","null","","200","378.42500004917383","","","","background","",""
"","null","html-keyboard-response","182","356564","0.0-17.0-0.34","SS1604588544536","","null","","","","","","","","","","","","<img src=images/blank.png width =""500"" height = ""500"" style=""border:5px solid black"">","","",""
"","247.40999983623624","stimulus-presentation","183","357024","0.0-17.0-1.34","SS1604588544536","<img src='images/complex/11.png' width ='500' height = '500' style='border:5px solid black'>","40","mixed_simple_deviant","images/complex/5.png","images/complex/11.png","images/simple/5.png,images/simple/3.png,images/simple/9.png,images/simple/6.png,images/simple/11.png,images/simple/4.png,images/simple/12.png","1","null","","200","447.40999983623624","","","","background","",""
"","null","html-keyboard-response","184","358031","0.0-17.0-0.35","SS1604588544536","","null","","","","","","","","","","","","<img src=images/blank.png width =""500"" height = ""500"" style=""border:5px solid black"">","","",""
"","294.02499995194376","stimulus-presentation","185","358535","0.0-17.0-1.35","SS1604588544536","<img src='images/complex/11.png' width ='500' height = '500' style='border:5px solid black'>","40","mixed_simple_deviant","images/complex/5.png","images/complex/11.png","images/simple/5.png,images/simple/3.png,images/simple/9.png,images/simple/6.png,images/simple/11.png,images/simple/4.png,images/simple/12.png","1","null","","200","494.02499995194376","","","","background","",""
"","null","html-keyboard-response","186","359733","0.0-17.0-0.36","SS1604588544536","","null","","","","","","","","","","","","<img src=images/blank.png width =""500"" height = ""500"" style=""border:5px solid black"">","","",""
"","231.679999968037","stimulus-presentation","187","360175","0.0-17.0-1.36","SS1604588544536","<img src='images/complex/11.png' width ='500' height = '500' style='border:5px solid black'>","40","mixed_simple_deviant","images/complex/5.png","images/complex/11.png","images/simple/5.png,images/simple/3.png,images/simple/9.png,images/simple/6.png,images/simple/11.png,images/simple/4.png,images/simple/12.png","1","null","","200","431.679999968037","","","","background","",""
"","null","html-keyboard-response","188","361454","0.0-17.0-0.37","SS1604588544536","","null","","","","","","","","","","","","<img src=images/blank.png width =""500"" height = ""500"" style=""border:5px solid black"">","","",""
"","210.45499993488193","stimulus-presentation","189","361879","0.0-17.0-1.37","SS1604588544536","<img src='images/complex/11.png' width ='500' height = '500' style='border:5px solid black'>","40","mixed_simple_deviant","images/complex/5.png","images/complex/11.png","images/simple/5.png,images/simple/3.png,images/simple/9.png,images/simple/6.png,images/simple/11.png,images/simple/4.png,images/simple/12.png","1","null","","200","410.4549999348819","","","","background","",""
"","null","html-keyboard-response","190","362914","0.0-17.0-0.38","SS1604588544536","","null","","","","","","","","","","","","<img src=images/blank.png width =""500"" height = ""500"" style=""border:5px solid black"">","","",""
"","1120.619999943301","stimulus-presentation","191","364255","0.0-17.0-1.38","SS1604588544536","<img src='images/complex/5.png' width ='500' height = '500' style='border:5px solid black'>","40","mixed_simple_deviant","images/complex/5.png","images/complex/11.png","images/simple/5.png,images/simple/3.png,images/simple/9.png,images/simple/6.png,images/simple/11.png,images/simple/4.png,images/simple/12.png","1","null","","200","1320.619999943301","yes","328.11999996192753","","target","",""
"","null","html-keyboard-response","192","365542","0.0-17.0-0.39","SS1604588544536","","null","","","","","","","","","","","","<img src=images/blank.png width =""500"" height = ""500"" style=""border:5px solid black"">","","",""
"","1174.8500000685453","stimulus-presentation","193","366934","0.0-17.0-1.39","SS1604588544536","<img src='images/complex/5.png' width ='500' height = '500' style='border:5px solid black'>","40","mixed_simple_deviant","images/complex/5.png","images/complex/11.png","images/simple/5.png,images/simple/3.png,images/simple/9.png,images/simple/6.png,images/simple/11.png,images/simple/4.png,images/simple/12.png","1","null","","200","1374.8500000685453","yes","334.60000017657876","","target","",""
"","null","html-keyboard-response","194","367852","0.0-17.0-0.40","SS1604588544536","","null","","","","","","","","","","","","<img src=images/blank.png width =""500"" height = ""500"" style=""border:5px solid black"">","","",""
"","291.5900000371039","stimulus-presentation","195","368366","0.0-17.0-1.40","SS1604588544536","<img src='images/complex/11.png' width ='500' height = '500' style='border:5px solid black'>","40","mixed_simple_deviant","images/complex/5.png","images/complex/11.png","images/simple/5.png,images/simple/3.png,images/simple/9.png,images/simple/6.png,images/simple/11.png,images/simple/4.png,images/simple/12.png","1","null","","200","491.5900000371039","","","","background","",""
"","null","html-keyboard-response","196","369377","0.0-17.0-0.41","SS1604588544536","","null","","","","","","","","","","","","<img src=images/blank.png width =""500"" height = ""500"" style=""border:5px solid black"">","","",""
"","374.0600000601262","stimulus-presentation","197","369967","0.0-17.0-1.41","SS1604588544536","<img src='images/simple/9.png' width ='500' height = '500' style='border:5px solid black'>","40","mixed_simple_deviant","images/complex/5.png","images/complex/11.png","images/simple/5.png,images/simple/3.png,images/simple/9.png,images/simple/6.png,images/simple/11.png,images/simple/4.png,images/simple/12.png","1","null","","200","574.0600000601262","","","","deviant","",""
"","null","html-keyboard-response","198","370800","0.0-17.0-0.42","SS1604588544536","","null","","","","","","","","","","","","<img src=images/blank.png width =""500"" height = ""500"" style=""border:5px solid black"">","","",""
"","274.1999998688698","stimulus-presentation","199","371288","0.0-17.0-1.42","SS1604588544536","<img src='images/complex/11.png' width ='500' height = '500' style='border:5px solid black'>","40","mixed_simple_deviant","images/complex/5.png","images/complex/11.png","images/simple/5.png,images/simple/3.png,images/simple/9.png,images/simple/6.png,images/simple/11.png,images/simple/4.png,images/simple/12.png","1","null","","200","474.1999998688698","","","","background","",""
"","null","html-keyboard-response","200","372573","0.0-17.0-0.43","SS1604588544536","","null","","","","","","","","","","","","<img src=images/blank.png width =""500"" height = ""500"" style=""border:5px solid black"">","","",""
"","203.34000000730157","stimulus-presentation","201","372990","0.0-17.0-1.43","SS1604588544536","<img src='images/complex/11.png' width ='500' height = '500' style='border:5px solid black'>","40","mixed_simple_deviant","images/complex/5.png","images/complex/11.png","images/simple/5.png,images/simple/3.png,images/simple/9.png,images/simple/6.png,images/simple/11.png,images/simple/4.png,images/simple/12.png","1","null","","200","403.34000000730157","","","","background","",""
"","null","html-keyboard-response","202","373861","0.0-17.0-0.44","SS1604588544536","","null","","","","","","","","","","","","<img src=images/blank.png width =""500"" height = ""500"" style=""border:5px solid black"">","","",""
"","284.89999985322356","stimulus-presentation","203","374357","0.0-17.0-1.44","SS1604588544536","<img src='images/complex/11.png' width ='500' height = '500' style='border:5px solid black'>","40","mixed_simple_deviant","images/complex/5.png","images/complex/11.png","images/simple/5.png,images/simple/3.png,images/simple/9.png,images/simple/6.png,images/simple/11.png,images/simple/4.png,images/simple/12.png","1","null","","200","484.89999985322356","","","","background","",""
"","null","html-keyboard-response","204","375452","0.0-17.0-0.45","SS1604588544536","","null","","","","","","","","","","","","<img src=images/blank.png width =""500"" height = ""500"" style=""border:5px solid black"">","","",""
"","279.0300000924617","stimulus-presentation","205","375941","0.0-17.0-1.45","SS1604588544536","<img src='images/complex/11.png' width ='500' height = '500' style='border:5px solid black'>","40","mixed_simple_deviant","images/complex/5.png","images/complex/11.png","images/simple/5.png,images/simple/3.png,images/simple/9.png,images/simple/6.png,images/simple/11.png,images/simple/4.png,images/simple/12.png","1","null","","200","479.0300000924617","","","","background","",""
"","null","html-keyboard-response","206","377012","0.0-17.0-0.46","SS1604588544536","","null","","","","","","","","","","","","<img src=images/blank.png width =""500"" height = ""500"" style=""border:5px solid black"">","","",""
"","160.12999997474253","stimulus-presentation","207","377412","0.0-17.0-1.46","SS1604588544536","<img src='images/complex/11.png' width ='500' height = '500' style='border:5px solid black'>","40","mixed_simple_deviant","images/complex/5.png","images/complex/11.png","images/simple/5.png,images/simple/3.png,images/simple/9.png,images/simple/6.png,images/simple/11.png,images/simple/4.png,images/simple/12.png","1","null","","200","360.12999997474253","","","","background","",""
"","null","html-keyboard-response","208","378577","0.0-17.0-0.47","SS1604588544536","","null","","","","","","","","","","","","<img src=images/blank.png width =""500"" height = ""500"" style=""border:5px solid black"">","","",""
"","201.8699999898672","stimulus-presentation","209","378988","0.0-17.0-1.47","SS1604588544536","<img src='images/complex/11.png' width ='500' height = '500' style='border:5px solid black'>","40","mixed_simple_deviant","images/complex/5.png","images/complex/11.png","images/simple/5.png,images/simple/3.png,images/simple/9.png,images/simple/6.png,images/simple/11.png,images/simple/4.png,images/simple/12.png","1","null","","200","401.8699999898672","","","","background","",""
"","null","html-keyboard-response","210","380062","0.0-17.0-0.48","SS1604588544536","","null","","","","","","","","","","","","<img src=images/blank.png width =""500"" height = ""500"" style=""border:5px solid black"">","","",""
"","993.9499997999519","stimulus-presentation","211","381268","0.0-17.0-1.48","SS1604588544536","<img src='images/complex/5.png' width ='500' height = '500' style='border:5px solid black'>","40","mixed_simple_deviant","images/complex/5.png","images/complex/11.png","images/simple/5.png,images/simple/3.png,images/simple/9.png,images/simple/6.png,images/simple/11.png,images/simple/4.png,images/simple/12.png","1","null","","200","1193.949999799952","yes","249.5399999897927","","target","",""
"[{""page_index"":0,""viewing_time"":82720}]","82721","task-instructions","212","463999","0.0-18.0","SS1604588544536","","","","","","","","","","","","","","","","",""
"[{""page_index"":0,""viewing_time"":2380.275000119582},{""page_index"":1,""viewing_time"":2938.289999961853},{""page_index"":2,""viewing_time"":2033.8049998972565}]","7353.215000126511","instructions","213","471364","0.0-19.0","SS1604588544536","","","","","","","","","","","","","","","","",""
"","null","html-keyboard-response","214","472276","0.0-20.0-0.0","SS1604588544536","","null","","","","","","","","","","","","<img src=images/blank.png width =""500"" height = ""500"" style=""border:5px solid black"">","","",""
"","368.99000010453165","stimulus-presentation","215","472855","0.0-20.0-1.0","SS1604588544536","<img src='images/complex/14.png' width ='500' height = '500' style='border:5px solid black'>","40","mixed_complex_deviant","images/simple/17.png","images/simple/2.png","images/complex/1.png,images/complex/8.png,images/complex/6.png,images/complex/14.png,images/complex/3.png,images/complex/7.png,images/complex/9.png","2","null","","200","568.9900001045316","","","","deviant","",""
"","null","html-keyboard-response","216","473877","0.0-20.0-0.1","SS1604588544536","","null","","","","","","","","","","","","<img src=images/blank.png width =""500"" height = ""500"" style=""border:5px solid black"">","","",""
"","203.50500009953976","stimulus-presentation","217","474296","0.0-20.0-1.1","SS1604588544536","<img src='images/simple/2.png' width ='500' height = '500' style='border:5px solid black'>","40","mixed_complex_deviant","images/simple/17.png","images/simple/2.png","images/complex/1.png,images/complex/8.png,images/complex/6.png,images/complex/14.png,images/complex/3.png,images/complex/7.png,images/complex/9.png","2","null","","200","403.50500009953976","","","","background","",""
"","null","html-keyboard-response","218","475589","0.0-20.0-0.2","SS1604588544536","","null","","","","","","","","","","","","<img src=images/blank.png width =""500"" height = ""500"" style=""border:5px solid black"">","","",""
"","198.97500006482005","stimulus-presentation","219","475998","0.0-20.0-1.2","SS1604588544536","<img src='images/simple/2.png' width ='500' height = '500' style='border:5px solid black'>","40","mixed_complex_deviant","images/simple/17.png","images/simple/2.png","images/complex/1.png,images/complex/8.png,images/complex/6.png,images/complex/14.png,images/complex/3.png,images/complex/7.png,images/complex/9.png","2","null","","200","398.97500006482005","","","","background","",""
"","null","html-keyboard-response","220","476959","0.0-20.0-0.3","SS1604588544536","","null","","","","","","","","","","","","<img src=images/blank.png width =""500"" height = ""500"" style=""border:5px solid black"">","","",""
"","1347.1800000406802","stimulus-presentation","221","478518","0.0-20.0-1.3","SS1604588544536","<img src='images/simple/17.png' width ='500' height = '500' style='border:5px solid black'>","40","mixed_complex_deviant","images/simple/17.png","images/simple/2.png","images/complex/1.png,images/complex/8.png,images/complex/6.png,images/complex/14.png,images/complex/3.png,images/complex/7.png,images/complex/9.png","2","null","","200","1547.1800000406802","yes","395.6550001166761","","target","",""
"","null","html-keyboard-response","222","479450","0.0-20.0-0.4","SS1604588544536","","null","","","","","","","","","","","","<img src=images/blank.png width =""500"" height = ""500"" style=""border:5px solid black"">","","",""
"","983.0649998039007","stimulus-presentation","223","480647","0.0-20.0-1.4","SS1604588544536","<img src='images/simple/17.png' width ='500' height = '500' style='border:5px solid black'>","40","mixed_complex_deviant","images/simple/17.png","images/simple/2.png","images/complex/1.png,images/complex/8.png,images/complex/6.png,images/complex/14.png,images/complex/3.png,images/complex/7.png,images/complex/9.png","2","null","","200","1183.0649998039007","yes","310.0399998947978","","target","",""
"","null","html-keyboard-response","224","481897","0.0-20.0-0.5","SS1604588544536","","null","","","","","","","","","","","","<img src=images/blank.png width =""500"" height = ""500"" style=""border:5px solid black"">","","",""
"","866.0049999598414","stimulus-presentation","225","482973","0.0-20.0-1.5","SS1604588544536","<img src='images/simple/17.png' width ='500' height = '500' style='border:5px solid black'>","40","mixed_complex_deviant","images/simple/17.png","images/simple/2.png","images/complex/1.png,images/complex/8.png,images/complex/6.png,images/complex/14.png,images/complex/3.png,images/complex/7.png,images/complex/9.png","2","null","","200","1066.0049999598414","yes","323.9899999462068","","target","",""
"","null","html-keyboard-response","226","484150","0.0-20.0-0.6","SS1604588544536","","null","","","","","","","","","","","","<img src=images/blank.png width =""500"" height = ""500"" style=""border:5px solid black"">","","",""
"","349.61499995552003","stimulus-presentation","227","484710","0.0-20.0-1.6","SS1604588544536","<img src='images/simple/2.png' width ='500' height = '500' style='border:5px solid black'>","40","mixed_complex_deviant","images/simple/17.png","images/simple/2.png","images/complex/1.png,images/complex/8.png,images/complex/6.png,images/complex/14.png,images/complex/3.png,images/complex/7.png,images/complex/9.png","2","null","","200","549.61499995552","","","","background","",""
"","null","html-keyboard-response","228","486007","0.0-20.0-0.7","SS1604588544536","","null","","","","","","","","","","","","<img src=images/blank.png width =""500"" height = ""500"" style=""border:5px solid black"">","","",""
"","257.6800000388175","stimulus-presentation","229","486478","0.0-20.0-1.7","SS1604588544536","<img src='images/simple/2.png' width ='500' height = '500' style='border:5px solid black'>","40","mixed_complex_deviant","images/simple/17.png","images/simple/2.png","images/complex/1.png,images/complex/8.png,images/complex/6.png,images/complex/14.png,images/complex/3.png,images/complex/7.png,images/complex/9.png","2","null","","200","457.6800000388175","","","","background","",""
"","null","html-keyboard-response","230","487560","0.0-20.0-0.8","SS1604588544536","","null","","","","","","","","","","","","<img src=images/blank.png width =""500"" height = ""500"" style=""border:5px solid black"">","","",""
"","183.47000004723668","stimulus-presentation","231","487957","0.0-20.0-1.8","SS1604588544536","<img src='images/simple/2.png' width ='500' height = '500' style='border:5px solid black'>","40","mixed_complex_deviant","images/simple/17.png","images/simple/2.png","images/complex/1.png,images/complex/8.png,images/complex/6.png,images/complex/14.png,images/complex/3.png,images/complex/7.png,images/complex/9.png","2","null","","200","383.4700000472367","","","","background","",""
"","null","html-keyboard-response","232","489121","0.0-20.0-0.9","SS1604588544536","","null","","","","","","","","","","","","<img src=images/blank.png width =""500"" height = ""500"" style=""border:5px solid black"">","","",""
"","402.31999987736344","stimulus-presentation","233","489733","0.0-20.0-1.9","SS1604588544536","<img src='images/complex/6.png' width ='500' height = '500' style='border:5px solid black'>","40","mixed_complex_deviant","images/simple/17.png","images/simple/2.png","images/complex/1.png,images/complex/8.png,images/complex/6.png,images/complex/14.png,images/complex/3.png,images/complex/7.png,images/complex/9.png","2","null","","200","602.3199998773634","","","","deviant","",""
"","null","html-keyboard-response","234","490550","0.0-20.0-0.10","SS1604588544536","","null","","","","","","","","","","","","<img src=images/blank.png width =""500"" height = ""500"" style=""border:5px solid black"">","","",""
"","284.70499999821186","stimulus-presentation","235","491047","0.0-20.0-1.10","SS1604588544536","<img src='images/simple/2.png' width ='500' height = '500' style='border:5px solid black'>","40","mixed_complex_deviant","images/simple/17.png","images/simple/2.png","images/complex/1.png,images/complex/8.png,images/complex/6.png,images/complex/14.png,images/complex/3.png,images/complex/7.png,images/complex/9.png","2","null","","200","484.70499999821186","","","","background","",""
"","null","html-keyboard-response","236","492229","0.0-20.0-0.11","SS1604588544536","","null","","","","","","","","","","","","<img src=images/blank.png width =""500"" height = ""500"" style=""border:5px solid black"">","","",""
"","220.55500000715256","stimulus-presentation","237","492660","0.0-20.0-1.11","SS1604588544536","<img src='images/simple/2.png' width ='500' height = '500' style='border:5px solid black'>","40","mixed_complex_deviant","images/simple/17.png","images/simple/2.png","images/complex/1.png,images/complex/8.png,images/complex/6.png,images/complex/14.png,images/complex/3.png,images/complex/7.png,images/complex/9.png","2","null","","200","420.55500000715256","","","","background","",""
"","null","html-keyboard-response","238","493549","0.0-20.0-0.12","SS1604588544536","","null","","","","","","","","","","","","<img src=images/blank.png width =""500"" height = ""500"" style=""border:5px solid black"">","","",""
"","187.6349998638034","stimulus-presentation","239","493948","0.0-20.0-1.12","SS1604588544536","<img src='images/simple/2.png' width ='500' height = '500' style='border:5px solid black'>","40","mixed_complex_deviant","images/simple/17.png","images/simple/2.png","images/complex/1.png,images/complex/8.png,images/complex/6.png,images/complex/14.png,images/complex/3.png,images/complex/7.png,images/complex/9.png","2","null","","200","387.6349998638034","","","","background","",""
"","null","html-keyboard-response","240","495149","0.0-20.0-0.13","SS1604588544536","","null","","","","","","","","","","","","<img src=images/blank.png width =""500"" height = ""500"" style=""border:5px solid black"">","","",""
"","171.70500010252","stimulus-presentation","241","495532","0.0-20.0-1.13","SS1604588544536","<img src='images/simple/2.png' width ='500' height = '500' style='border:5px solid black'>","40","mixed_complex_deviant","images/simple/17.png","images/simple/2.png","images/complex/1.png,images/complex/8.png,images/complex/6.png,images/complex/14.png,images/complex/3.png,images/complex/7.png,images/complex/9.png","2","null","","200","371.70500010252","","","","background","",""
"","null","html-keyboard-response","242","496732","0.0-20.0-0.14","SS1604588544536","","null","","","","","","","","","","","","<img src=images/blank.png width =""500"" height = ""500"" style=""border:5px solid black"">","","",""
"","197.74500001221895","stimulus-presentation","243","497139","0.0-20.0-1.14","SS1604588544536","<img src='images/simple/2.png' width ='500' height = '500' style='border:5px solid black'>","40","mixed_complex_deviant","images/simple/17.png","images/simple/2.png","images/complex/1.png,images/complex/8.png,images/complex/6.png,images/complex/14.png,images/complex/3.png,images/complex/7.png,images/complex/9.png","2","null","","200","397.74500001221895","","","","background","",""
"","null","html-keyboard-response","244","498276","0.0-20.0-0.15","SS1604588544536","","null","","","","","","","","","","","","<img src=images/blank.png width =""500"" height = ""500"" style=""border:5px solid black"">","","",""
"","906.3099999912083","stimulus-presentation","245","499395","0.0-20.0-1.15","SS1604588544536","<img src='images/simple/17.png' width ='500' height = '500' style='border:5px solid black'>","40","mixed_complex_deviant","images/simple/17.png","images/simple/2.png","images/complex/1.png,images/complex/8.png,images/complex/6.png,images/complex/14.png,images/complex/3.png,images/complex/7.png,images/complex/9.png","2","null","","200","1106.3099999912083","yes","379.50000003911555","","target","",""
"","null","html-keyboard-response","246","500546","0.0-20.0-0.16","SS1604588544536","","null","","","","","","","","","","","","<img src=images/blank.png width =""500"" height = ""500"" style=""border:5px solid black"">","","",""
"","262.27000006474555","stimulus-presentation","247","501036","0.0-20.0-1.16","SS1604588544536","<img src='images/complex/3.png' width ='500' height = '500' style='border:5px solid black'>","40","mixed_complex_deviant","images/simple/17.png","images/simple/2.png","images/complex/1.png,images/complex/8.png,images/complex/6.png,images/complex/14.png,images/complex/3.png,images/complex/7.png,images/complex/9.png","2","null","","200","462.27000006474555","","","","deviant","",""
"","null","html-keyboard-response","248","502082","0.0-20.0-0.17","SS1604588544536","","null","","","","","","","","","","","","<img src=images/blank.png width =""500"" height = ""500"" style=""border:5px solid black"">","","",""
"","208.47000018693507","stimulus-presentation","249","502531","0.0-20.0-1.17","SS1604588544536","<img src='images/simple/2.png' width ='500' height = '500' style='border:5px solid black'>","40","mixed_complex_deviant","images/simple/17.png","images/simple/2.png","images/complex/1.png,images/complex/8.png,images/complex/6.png,images/complex/14.png,images/complex/3.png,images/complex/7.png,images/complex/9.png","2","null","","200","408.47000018693507","","","","background","",""
"","null","html-keyboard-response","250","503729","0.0-20.0-0.18","SS1604588544536","","null","","","","","","","","","","","","<img src=images/blank.png width =""500"" height = ""500"" style=""border:5px solid black"">","","",""
"","1037.0899999979883","stimulus-presentation","251","504978","0.0-20.0-1.18","SS1604588544536","<img src='images/simple/17.png' width ='500' height = '500' style='border:5px solid black'>","40","mixed_complex_deviant","images/simple/17.png","images/simple/2.png","images/complex/1.png,images/complex/8.png,images/complex/6.png,images/complex/14.png,images/complex/3.png,images/complex/7.png,images/complex/9.png","2","null","","200","1237.0899999979883","yes","333.2899999804795","","target","",""
"","null","html-keyboard-response","252","506155","0.0-20.0-0.19","SS1604588544536","","null","","","","","","","","","","","","<img src=images/blank.png width =""500"" height = ""500"" style=""border:5px solid black"">","","",""
"","218.23500003665686","stimulus-presentation","253","506587","0.0-20.0-1.19","SS1604588544536","<img src='images/simple/2.png' width ='500' height = '500' style='border:5px solid black'>","40","mixed_complex_deviant","images/simple/17.png","images/simple/2.png","images/complex/1.png,images/complex/8.png,images/complex/6.png,images/complex/14.png,images/complex/3.png,images/complex/7.png,images/complex/9.png","2","null","","200","418.23500003665686","","","","background","",""
"","null","html-keyboard-response","254","507821","0.0-20.0-0.20","SS1604588544536","","null","","","","","","","","","","","","<img src=images/blank.png width =""500"" height = ""500"" style=""border:5px solid black"">","","",""
"","176.89999984577298","stimulus-presentation","255","508226","0.0-20.0-1.20","SS1604588544536","<img src='images/simple/2.png' width ='500' height = '500' style='border:5px solid black'>","40","mixed_complex_deviant","images/simple/17.png","images/simple/2.png","images/complex/1.png,images/complex/8.png,images/complex/6.png,images/complex/14.png,images/complex/3.png,images/complex/7.png,images/complex/9.png","2","null","","200","376.899999845773","","","","background","",""
"","null","html-keyboard-response","256","509066","0.0-20.0-0.21","SS1604588544536","","null","","","","","","","","","","","","<img src=images/blank.png width =""500"" height = ""500"" style=""border:5px solid black"">","","",""
"","219.40500009804964","stimulus-presentation","257","509498","0.0-20.0-1.21","SS1604588544536","<img src='images/simple/2.png' width ='500' height = '500' style='border:5px solid black'>","40","mixed_complex_deviant","images/simple/17.png","images/simple/2.png","images/complex/1.png,images/complex/8.png,images/complex/6.png,images/complex/14.png,images/complex/3.png,images/complex/7.png,images/complex/9.png","2","null","","200","419.40500009804964","","","","background","",""
"","null","html-keyboard-response","258","510530","0.0-20.0-0.22","SS1604588544536","","null","","","","","","","","","","","","<img src=images/blank.png width =""500"" height = ""500"" style=""border:5px solid black"">","","",""
"","456.694999942556","stimulus-presentation","259","511202","0.0-20.0-1.22","SS1604588544536","<img src='images/complex/8.png' width ='500' height = '500' style='border:5px solid black'>","40","mixed_complex_deviant","images/simple/17.png","images/simple/2.png","images/complex/1.png,images/complex/8.png,images/complex/6.png,images/complex/14.png,images/complex/3.png,images/complex/7.png,images/complex/9.png","2","null","","200","656.694999942556","","","","deviant","",""
"","null","html-keyboard-response","260","512191","0.0-20.0-0.23","SS1604588544536","","null","","","","","","","","","","","","<img src=images/blank.png width =""500"" height = ""500"" style=""border:5px solid black"">","","",""
"","165.31500010751188","stimulus-presentation","261","512570","0.0-20.0-1.23","SS1604588544536","<img src='images/simple/2.png' width ='500' height = '500' style='border:5px solid black'>","40","mixed_complex_deviant","images/simple/17.png","images/simple/2.png","images/complex/1.png,images/complex/8.png,images/complex/6.png,images/complex/14.png,images/complex/3.png,images/complex/7.png,images/complex/9.png","2","null","","200","365.3150001075119","","","","background","",""
"","null","html-keyboard-response","262","513626","0.0-20.0-0.24","SS1604588544536","","null","","","","","","","","","","","","<img src=images/blank.png width =""500"" height = ""500"" style=""border:5px solid black"">","","",""
"","179.01000007987022","stimulus-presentation","263","514018","0.0-20.0-1.24","SS1604588544536","<img src='images/simple/2.png' width ='500' height = '500' style='border:5px solid black'>","40","mixed_complex_deviant","images/simple/17.png","images/simple/2.png","images/complex/1.png,images/complex/8.png,images/complex/6.png,images/complex/14.png,images/complex/3.png,images/complex/7.png,images/complex/9.png","2","null","","200","379.0100000798702","","","","background","",""
"","null","html-keyboard-response","264","515270","0.0-20.0-0.25","SS1604588544536","","null","","","","","","","","","","","","<img src=images/blank.png width =""500"" height = ""500"" style=""border:5px solid black"">","","",""
"","230.75499990954995","stimulus-presentation","265","515713","0.0-20.0-1.25","SS1604588544536","<img src='images/simple/2.png' width ='500' height = '500' style='border:5px solid black'>","40","mixed_complex_deviant","images/simple/17.png","images/simple/2.png","images/complex/1.png,images/complex/8.png,images/complex/6.png,images/complex/14.png,images/complex/3.png,images/complex/7.png,images/complex/9.png","2","null","","200","430.75499990954995","","","","background","",""
"","null","html-keyboard-response","266","516773","0.0-20.0-0.26","SS1604588544536","","null","","","","","","","","","","","","<img src=images/blank.png width =""500"" height = ""500"" style=""border:5px solid black"">","","",""
"","179.1150001809001","stimulus-presentation","267","517162","0.0-20.0-1.26","SS1604588544536","<img src='images/simple/2.png' width ='500' height = '500' style='border:5px solid black'>","40","mixed_complex_deviant","images/simple/17.png","images/simple/2.png","images/complex/1.png,images/complex/8.png,images/complex/6.png,images/complex/14.png,images/complex/3.png,images/complex/7.png,images/complex/9.png","2","null","","200","379.1150001809001","","","","background","",""
"","null","html-keyboard-response","268","517983","0.0-20.0-0.27","SS1604588544536","","null","","","","","","","","","","","","<img src=images/blank.png width =""500"" height = ""500"" style=""border:5px solid black"">","","",""
"","149.93000007234514","stimulus-presentation","269","518346","0.0-20.0-1.27","SS1604588544536","<img src='images/simple/2.png' width ='500' height = '500' style='border:5px solid black'>","40","mixed_complex_deviant","images/simple/17.png","images/simple/2.png","images/complex/1.png,images/complex/8.png,images/complex/6.png,images/complex/14.png,images/complex/3.png,images/complex/7.png,images/complex/9.png","2","null","","200","349.93000007234514","","","","background","",""
"","null","html-keyboard-response","270","519237","0.0-20.0-0.28","SS1604588544536","","null","","","","","","","","","","","","<img src=images/blank.png width =""500"" height = ""500"" style=""border:5px solid black"">","","",""
"","696.6450000181794","stimulus-presentation","271","520144","0.0-20.0-1.28","SS1604588544536","<img src='images/simple/2.png' width ='500' height = '500' style='border:5px solid black'>","40","mixed_complex_deviant","images/simple/17.png","images/simple/2.png","images/complex/1.png,images/complex/8.png,images/complex/6.png,images/complex/14.png,images/complex/3.png,images/complex/7.png,images/complex/9.png","2","null","","200","896.6450000181794","","","","background","",""
"","null","html-keyboard-response","272","521218","0.0-20.0-0.29","SS1604588544536","","null","","","","","","","","","","","","<img src=images/blank.png width =""500"" height = ""500"" style=""border:5px solid black"">","","",""
"","200.914999935776","stimulus-presentation","273","521632","0.0-20.0-1.29","SS1604588544536","<img src='images/simple/2.png' width ='500' height = '500' style='border:5px solid black'>","40","mixed_complex_deviant","images/simple/17.png","images/simple/2.png","images/complex/1.png,images/complex/8.png,images/complex/6.png,images/complex/14.png,images/complex/3.png,images/complex/7.png,images/complex/9.png","2","null","","200","400.914999935776","","","","background","",""
"","null","html-keyboard-response","274","522621","0.0-20.0-0.30","SS1604588544536","","null","","","","","","","","","","","","<img src=images/blank.png width =""500"" height = ""500"" style=""border:5px solid black"">","","",""
"","175.54500000551343","stimulus-presentation","275","523008","0.0-20.0-1.30","SS1604588544536","<img src='images/simple/2.png' width ='500' height = '500' style='border:5px solid black'>","40","mixed_complex_deviant","images/simple/17.png","images/simple/2.png","images/complex/1.png,images/complex/8.png,images/complex/6.png,images/complex/14.png,images/complex/3.png,images/complex/7.png,images/complex/9.png","2","null","","200","375.54500000551343","","","","background","",""
"","null","html-keyboard-response","276","523942","0.0-20.0-0.31","SS1604588544536","","null","","","","","","","","","","","","<img src=images/blank.png width =""500"" height = ""500"" style=""border:5px solid black"">","","",""
"","146.76499995402992","stimulus-presentation","277","524314","0.0-20.0-1.31","SS1604588544536","<img src='images/simple/2.png' width ='500' height = '500' style='border:5px solid black'>","40","mixed_complex_deviant","images/simple/17.png","images/simple/2.png","images/complex/1.png,images/complex/8.png,images/complex/6.png,images/complex/14.png,images/complex/3.png,images/complex/7.png,images/complex/9.png","2","null","","200","346.7649999540299","","","","background","",""
"","null","html-keyboard-response","278","525389","0.0-20.0-0.32","SS1604588544536","","null","","","","","","","","","","","","<img src=images/blank.png width =""500"" height = ""500"" style=""border:5px solid black"">","","",""
"","151.01499995216727","stimulus-presentation","279","525752","0.0-20.0-1.32","SS1604588544536","<img src='images/simple/2.png' width ='500' height = '500' style='border:5px solid black'>","40","mixed_complex_deviant","images/simple/17.png","images/simple/2.png","images/complex/1.png,images/complex/8.png,images/complex/6.png,images/complex/14.png,images/complex/3.png,images/complex/7.png,images/complex/9.png","2","null","","200","351.0149999521673","","","","background","",""
"","null","html-keyboard-response","280","527033","0.0-20.0-0.33","SS1604588544536","","null","","","","","","","","","","","","<img src=images/blank.png width =""500"" height = ""500"" style=""border:5px solid black"">","","",""
"","109.56499981693923","stimulus-presentation","281","527352","0.0-20.0-1.33","SS1604588544536","<img src='images/simple/2.png' width ='500' height = '500' style='border:5px solid black'>","40","mixed_complex_deviant","images/simple/17.png","images/simple/2.png","images/complex/1.png,images/complex/8.png,images/complex/6.png,images/complex/14.png,images/complex/3.png,images/complex/7.png,images/complex/9.png","2","null","","200","309.56499981693923","","","","background","",""
"","null","html-keyboard-response","282","528379","0.0-20.0-0.34","SS1604588544536","","null","","","","","","","","","","","","<img src=images/blank.png width =""500"" height = ""500"" style=""border:5px solid black"">","","",""
"","431.6050000488758","stimulus-presentation","283","529024","0.0-20.0-1.34","SS1604588544536","<img src='images/complex/7.png' width ='500' height = '500' style='border:5px solid black'>","40","mixed_complex_deviant","images/simple/17.png","images/simple/2.png","images/complex/1.png,images/complex/8.png,images/complex/6.png,images/complex/14.png,images/complex/3.png,images/complex/7.png,images/complex/9.png","2","null","","200","631.6050000488758","","","","deviant","",""
"","null","html-keyboard-response","284","529995","0.0-20.0-0.35","SS1604588544536","","null","","","","","","","","","","","","<img src=images/blank.png width =""500"" height = ""500"" style=""border:5px solid black"">","","",""
