"view_history","rt","trial_type","trial_index","time_elapsed","internal_node_id","subject","trial_stimulus","key_press","task_type","task_target_stimulus","task_background_stimulus","task_deviant_stimuli","task_order_number","block_order_number","trial_order_number","minimum_viewing_duration","trial_looking_time","trial_pressed_space_bar","trial_space_bar_rt","stimulus","trial_stimulus_type","responses","question_order"
"[{""page_index"":0,""viewing_time"":15689.954999950714}]","15690.629999968223","instructions","0","15709","0.0-0.0","SS1604520640613","","","","","","","","","","","","","","","","",""
"[{""page_index"":0,""viewing_time"":5277.839999995194},{""page_index"":1,""viewing_time"":6871.874999953434},{""page_index"":2,""viewing_time"":6056.08500004746},{""page_index"":3,""viewing_time"":7599.365000030957},{""page_index"":4,""viewing_time"":4984.674999956042},{""page_index"":5,""viewing_time"":12279.945000074804},{""page_index"":6,""viewing_time"":5159.914999967441},{""page_index"":7,""viewing_time"":9080.064999987371},{""page_index"":8,""viewing_time"":8255.9299999848}]","65565.895000007","instructions","1","81272","0.0-1.0","SS1604520640613","","","","","","","","","","","","","","","","",""
"[{""page_index"":0,""viewing_time"":9279.055000049993},{""page_index"":1,""viewing_time"":7935.885000042617},{""page_index"":2,""viewing_time"":2448.0749999638647}]","19663.20499998983","instructions","2","100936","0.0-2.0","SS1604520640613","","","","","","","","","","","","","","","","",""
"","6478.5899999551475","practice-block","3","107616","0.0-3.0","SS1604520640613","<img src='images/practice/practice_background.jpeg' width ='500' height = '500' style='border:5px solid black'>","40","null","images/practice/practice_target.jpg","null","null","null","null","","200","6678.5899999551475","","","","","",""
"","null","html-keyboard-response","4","108781","0.0-4.0","SS1604520640613","","null","","","","","","","","","","","","<img src=images/blank.png width =""500"" height = ""500"" style=""border:5px solid black"">","","",""
"","2682.0950000546873","practice-block","5","111665","0.0-5.0","SS1604520640613","<img src='images/practice/practice_background.jpeg' width ='500' height = '500' style='border:5px solid black'>","40","null","images/practice/practice_target.jpg","null","null","null","null","","200","2882.0950000546873","","","","","",""
"","null","html-keyboard-response","6","112902","0.0-6.0","SS1604520640613","","null","","","","","","","","","","","","<img src=images/blank.png width =""500"" height = ""500"" style=""border:5px solid black"">","","",""
"","2940.2300000656396","practice-block","7","116047","0.0-7.0","SS1604520640613","<img src='images/practice/practice_deviant.jpeg' width ='500' height = '500' style='border:5px solid black'>","40","null","images/practice/practice_target.jpg","null","null","null","null","","200","3140.2300000656396","","","","","",""
"","null","html-keyboard-response","8","116861","0.0-8.0","SS1604520640613","","null","","","","","","","","","","","","<img src=images/blank.png width =""500"" height = ""500"" style=""border:5px solid black"">","","",""
"","5574.734999914654","practice-block","9","122639","0.0-9.0-0.0","SS1604520640613","<img src='images/practice/practice_target.jpg' width ='500' height = '500' style='border:5px solid black'>","40","null","images/practice/practice_target.jpg","null","null","null","null","","200","5774.734999914654","yes","646.6249999357387","","","",""
"","null","html-keyboard-response","10","123651","0.0-10.0","SS1604520640613","","null","","","","","","","","","","","","<img src=images/blank.png width =""500"" height = ""500"" style=""border:5px solid black"">","","",""
"","1683.089999947697","practice-block","11","125536","0.0-11.0","SS1604520640613","<img src='images/practice/practice_background.jpeg' width ='500' height = '500' style='border:5px solid black'>","40","null","images/practice/practice_target.jpg","null","null","null","null","","200","1883.089999947697","","","","","",""
"[{""page_index"":0,""viewing_time"":4381}]","4381","task-instructions","12","129918","0.0-12.0","SS1604520640613","","","","","","","","","","","","","","","","",""
"[{""page_index"":0,""viewing_time"":7766.569999977946},{""page_index"":1,""viewing_time"":7192.060000030324},{""page_index"":2,""viewing_time"":2311.809999984689}]","17270.619999966584","instructions","13","147189","0.0-13.0","SS1604520640613","","","","","","","","","","","","","","","","",""
"","null","html-keyboard-response","14","148204","0.0-14.0-0.0","SS1604520640613","","null","","","","","","","","","","","","<img src=images/blank.png width =""500"" height = ""500"" style=""border:5px solid black"">","","",""
"","4212.240000022575","stimulus-presentation","15","152622","0.0-14.0-1.0","SS1604520640613","<img src='images/simple/18.png' width ='500' height = '500' style='border:5px solid black'>","40","mixed_complex_deviant","images/simple/12.png","images/simple/18.png","images/complex/10.png,images/complex/8.png,images/complex/18.png,images/complex/9.png,images/complex/7.png,images/complex/12.png,images/complex/1.png","0","null","","200","4412.240000022575","","","","background","",""
"","null","html-keyboard-response","16","153532","0.0-14.0-0.1","SS1604520640613","","null","","","","","","","","","","","","<img src=images/blank.png width =""500"" height = ""500"" style=""border:5px solid black"">","","",""
"","2467.4749999539927","stimulus-presentation","17","156206","0.0-14.0-1.1","SS1604520640613","<img src='images/simple/18.png' width ='500' height = '500' style='border:5px solid black'>","40","mixed_complex_deviant","images/simple/12.png","images/simple/18.png","images/complex/10.png,images/complex/8.png,images/complex/18.png,images/complex/9.png,images/complex/7.png,images/complex/12.png,images/complex/1.png","0","null","","200","2667.4749999539927","","","","background","",""
"","null","html-keyboard-response","18","157395","0.0-14.0-0.2","SS1604520640613","","null","","","","","","","","","","","","<img src=images/blank.png width =""500"" height = ""500"" style=""border:5px solid black"">","","",""
"","2461.4399999845773","stimulus-presentation","19","160061","0.0-14.0-1.2","SS1604520640613","<img src='images/simple/18.png' width ='500' height = '500' style='border:5px solid black'>","40","mixed_complex_deviant","images/simple/12.png","images/simple/18.png","images/complex/10.png,images/complex/8.png,images/complex/18.png,images/complex/9.png,images/complex/7.png,images/complex/12.png,images/complex/1.png","0","null","","200","2661.4399999845773","","","","background","",""
"","null","html-keyboard-response","20","161050","0.0-14.0-0.3","SS1604520640613","","null","","","","","","","","","","","","<img src=images/blank.png width =""500"" height = ""500"" style=""border:5px solid black"">","","",""
"","2055.5950000416487","stimulus-presentation","21","163311","0.0-14.0-1.3","SS1604520640613","<img src='images/simple/18.png' width ='500' height = '500' style='border:5px solid black'>","40","mixed_complex_deviant","images/simple/12.png","images/simple/18.png","images/complex/10.png,images/complex/8.png,images/complex/18.png,images/complex/9.png,images/complex/7.png,images/complex/12.png,images/complex/1.png","0","null","","200","2255.5950000416487","","","","background","",""
"","null","html-keyboard-response","22","164299","0.0-14.0-0.4","SS1604520640613","","null","","","","","","","","","","","","<img src=images/blank.png width =""500"" height = ""500"" style=""border:5px solid black"">","","",""
"","3089.9999999674037","stimulus-presentation","23","167597","0.0-14.0-1.4","SS1604520640613","<img src='images/simple/18.png' width ='500' height = '500' style='border:5px solid black'>","40","mixed_complex_deviant","images/simple/12.png","images/simple/18.png","images/complex/10.png,images/complex/8.png,images/complex/18.png,images/complex/9.png,images/complex/7.png,images/complex/12.png,images/complex/1.png","0","null","","200","3289.9999999674037","","","","background","",""
"","null","html-keyboard-response","24","168811","0.0-14.0-0.5","SS1604520640613","","null","","","","","","","","","","","","<img src=images/blank.png width =""500"" height = ""500"" style=""border:5px solid black"">","","",""
"","2408.7849999777973","stimulus-presentation","25","171422","0.0-14.0-1.5","SS1604520640613","<img src='images/simple/18.png' width ='500' height = '500' style='border:5px solid black'>","40","mixed_complex_deviant","images/simple/12.png","images/simple/18.png","images/complex/10.png,images/complex/8.png,images/complex/18.png,images/complex/9.png,images/complex/7.png,images/complex/12.png,images/complex/1.png","0","null","","200","2608.7849999777973","","","","background","",""
"","null","html-keyboard-response","26","172695","0.0-14.0-0.6","SS1604520640613","","null","","","","","","","","","","","","<img src=images/blank.png width =""500"" height = ""500"" style=""border:5px solid black"">","","",""
"","5000.704999896698","stimulus-presentation","27","177901","0.0-14.0-1.6","SS1604520640613","<img src='images/complex/10.png' width ='500' height = '500' style='border:5px solid black'>","40","mixed_complex_deviant","images/simple/12.png","images/simple/18.png","images/complex/10.png,images/complex/8.png,images/complex/18.png,images/complex/9.png,images/complex/7.png,images/complex/12.png,images/complex/1.png","0","null","","200","5200.704999896698","","","","deviant","",""
"","null","html-keyboard-response","28","179146","0.0-14.0-0.7","SS1604520640613","","null","","","","","","","","","","","","<img src=images/blank.png width =""500"" height = ""500"" style=""border:5px solid black"">","","",""
"","2472.5900000194088","stimulus-presentation","29","181822","0.0-14.0-1.7","SS1604520640613","<img src='images/simple/18.png' width ='500' height = '500' style='border:5px solid black'>","40","mixed_complex_deviant","images/simple/12.png","images/simple/18.png","images/complex/10.png,images/complex/8.png,images/complex/18.png,images/complex/9.png,images/complex/7.png,images/complex/12.png,images/complex/1.png","0","null","","200","2672.5900000194088","","","","background","",""
"","null","html-keyboard-response","30","182762","0.0-14.0-0.8","SS1604520640613","","null","","","","","","","","","","","","<img src=images/blank.png width =""500"" height = ""500"" style=""border:5px solid black"">","","",""
"","979.3899999931455","stimulus-presentation","31","183948","0.0-14.0-1.8","SS1604520640613","<img src='images/simple/18.png' width ='500' height = '500' style='border:5px solid black'>","40","mixed_complex_deviant","images/simple/12.png","images/simple/18.png","images/complex/10.png,images/complex/8.png,images/complex/18.png,images/complex/9.png,images/complex/7.png,images/complex/12.png,images/complex/1.png","0","null","","200","1179.3899999931455","","","","background","",""
"","null","html-keyboard-response","32","184976","0.0-14.0-0.9","SS1604520640613","","null","","","","","","","","","","","","<img src=images/blank.png width =""500"" height = ""500"" style=""border:5px solid black"">","","",""
"","1283.060000045225","stimulus-presentation","33","186461","0.0-14.0-1.9","SS1604520640613","<img src='images/simple/18.png' width ='500' height = '500' style='border:5px solid black'>","40","mixed_complex_deviant","images/simple/12.png","images/simple/18.png","images/complex/10.png,images/complex/8.png,images/complex/18.png,images/complex/9.png,images/complex/7.png,images/complex/12.png,images/complex/1.png","0","null","","200","1483.060000045225","","","","background","",""
"","null","html-keyboard-response","34","187581","0.0-14.0-0.10","SS1604520640613","","null","","","","","","","","","","","","<img src=images/blank.png width =""500"" height = ""500"" style=""border:5px solid black"">","","",""
"","882.3249998968095","stimulus-presentation","35","188668","0.0-14.0-1.10","SS1604520640613","<img src='images/simple/18.png' width ='500' height = '500' style='border:5px solid black'>","40","mixed_complex_deviant","images/simple/12.png","images/simple/18.png","images/complex/10.png,images/complex/8.png,images/complex/18.png,images/complex/9.png,images/complex/7.png,images/complex/12.png,images/complex/1.png","0","null","","200","1082.3249998968095","","","","background","",""
"","null","html-keyboard-response","36","189594","0.0-14.0-0.11","SS1604520640613","","null","","","","","","","","","","","","<img src=images/blank.png width =""500"" height = ""500"" style=""border:5px solid black"">","","",""
"","4149.154999991879","stimulus-presentation","37","193948","0.0-14.0-1.11","SS1604520640613","<img src='images/simple/12.png' width ='500' height = '500' style='border:5px solid black'>","40","mixed_complex_deviant","images/simple/12.png","images/simple/18.png","images/complex/10.png,images/complex/8.png,images/complex/18.png,images/complex/9.png,images/complex/7.png,images/complex/12.png,images/complex/1.png","0","null","","200","4349.154999991879","yes","2566.729999962263","","target","",""
"","null","html-keyboard-response","38","194981","0.0-14.0-0.12","SS1604520640613","","null","","","","","","","","","","","","<img src=images/blank.png width =""500"" height = ""500"" style=""border:5px solid black"">","","",""
"","697.8400000371039","stimulus-presentation","39","195885","0.0-14.0-1.12","SS1604520640613","<img src='images/simple/18.png' width ='500' height = '500' style='border:5px solid black'>","40","mixed_complex_deviant","images/simple/12.png","images/simple/18.png","images/complex/10.png,images/complex/8.png,images/complex/18.png,images/complex/9.png,images/complex/7.png,images/complex/12.png,images/complex/1.png","0","null","","200","897.8400000371039","","","","background","",""
"","null","html-keyboard-response","40","196697","0.0-14.0-0.13","SS1604520640613","","null","","","","","","","","","","","","<img src=images/blank.png width =""500"" height = ""500"" style=""border:5px solid black"">","","",""
"","1299.3100000312552","stimulus-presentation","41","198203","0.0-14.0-1.13","SS1604520640613","<img src='images/simple/18.png' width ='500' height = '500' style='border:5px solid black'>","40","mixed_complex_deviant","images/simple/12.png","images/simple/18.png","images/complex/10.png,images/complex/8.png,images/complex/18.png,images/complex/9.png,images/complex/7.png,images/complex/12.png,images/complex/1.png","0","null","","200","1499.3100000312552","","","","background","",""
"","null","html-keyboard-response","42","199326","0.0-14.0-0.14","SS1604520640613","","null","","","","","","","","","","","","<img src=images/blank.png width =""500"" height = ""500"" style=""border:5px solid black"">","","",""
"","852.0449999487028","stimulus-presentation","43","200381","0.0-14.0-1.14","SS1604520640613","<img src='images/simple/18.png' width ='500' height = '500' style='border:5px solid black'>","40","mixed_complex_deviant","images/simple/12.png","images/simple/18.png","images/complex/10.png,images/complex/8.png,images/complex/18.png,images/complex/9.png,images/complex/7.png,images/complex/12.png,images/complex/1.png","0","null","","200","1052.0449999487028","","","","background","",""
"","null","html-keyboard-response","44","201667","0.0-14.0-0.15","SS1604520640613","","null","","","","","","","","","","","","<img src=images/blank.png width =""500"" height = ""500"" style=""border:5px solid black"">","","",""
"","6141.275000059977","stimulus-presentation","45","208011","0.0-14.0-1.15","SS1604520640613","<img src='images/complex/7.png' width ='500' height = '500' style='border:5px solid black'>","40","mixed_complex_deviant","images/simple/12.png","images/simple/18.png","images/complex/10.png,images/complex/8.png,images/complex/18.png,images/complex/9.png,images/complex/7.png,images/complex/12.png,images/complex/1.png","0","null","","200","6341.275000059977","","","","deviant","",""
"","null","html-keyboard-response","46","209217","0.0-14.0-0.16","SS1604520640613","","null","","","","","","","","","","","","<img src=images/blank.png width =""500"" height = ""500"" style=""border:5px solid black"">","","",""
"","972.7300000376999","stimulus-presentation","47","210397","0.0-14.0-1.16","SS1604520640613","<img src='images/simple/18.png' width ='500' height = '500' style='border:5px solid black'>","40","mixed_complex_deviant","images/simple/12.png","images/simple/18.png","images/complex/10.png,images/complex/8.png,images/complex/18.png,images/complex/9.png,images/complex/7.png,images/complex/12.png,images/complex/1.png","0","null","","200","1172.7300000377","","","","background","",""
"","null","html-keyboard-response","48","211413","0.0-14.0-0.17","SS1604520640613","","null","","","","","","","","","","","","<img src=images/blank.png width =""500"" height = ""500"" style=""border:5px solid black"">","","",""
"","715.639999951236","stimulus-presentation","49","212331","0.0-14.0-1.17","SS1604520640613","<img src='images/simple/18.png' width ='500' height = '500' style='border:5px solid black'>","40","mixed_complex_deviant","images/simple/12.png","images/simple/18.png","images/complex/10.png,images/complex/8.png,images/complex/18.png,images/complex/9.png,images/complex/7.png,images/complex/12.png,images/complex/1.png","0","null","","200","915.639999951236","","","","background","",""
"","null","html-keyboard-response","50","213510","0.0-14.0-0.18","SS1604520640613","","null","","","","","","","","","","","","<img src=images/blank.png width =""500"" height = ""500"" style=""border:5px solid black"">","","",""
"","1849.1500000236556","stimulus-presentation","51","215562","0.0-14.0-1.18","SS1604520640613","<img src='images/simple/12.png' width ='500' height = '500' style='border:5px solid black'>","40","mixed_complex_deviant","images/simple/12.png","images/simple/18.png","images/complex/10.png,images/complex/8.png,images/complex/18.png,images/complex/9.png,images/complex/7.png,images/complex/12.png,images/complex/1.png","0","null","","200","2049.1500000236556","yes","440.7750000245869","","target","",""
"","null","html-keyboard-response","52","216641","0.0-14.0-0.19","SS1604520640613","","null","","","","","","","","","","","","<img src=images/blank.png width =""500"" height = ""500"" style=""border:5px solid black"">","","",""
"","1292.225000099279","stimulus-presentation","53","218140","0.0-14.0-1.19","SS1604520640613","<img src='images/simple/18.png' width ='500' height = '500' style='border:5px solid black'>","40","mixed_complex_deviant","images/simple/12.png","images/simple/18.png","images/complex/10.png,images/complex/8.png,images/complex/18.png,images/complex/9.png,images/complex/7.png,images/complex/12.png,images/complex/1.png","0","null","","200","1492.225000099279","","","","background","",""
"","null","html-keyboard-response","54","219221","0.0-14.0-0.20","SS1604520640613","","null","","","","","","","","","","","","<img src=images/blank.png width =""500"" height = ""500"" style=""border:5px solid black"">","","",""
"","9911.855000071228","stimulus-presentation","55","229338","0.0-14.0-1.20","SS1604520640613","<img src='images/complex/8.png' width ='500' height = '500' style='border:5px solid black'>","40","mixed_complex_deviant","images/simple/12.png","images/simple/18.png","images/complex/10.png,images/complex/8.png,images/complex/18.png,images/complex/9.png,images/complex/7.png,images/complex/12.png,images/complex/1.png","0","null","","200","10111.855000071228","","","","deviant","",""
"","null","html-keyboard-response","56","230251","0.0-14.0-0.21","SS1604520640613","","null","","","","","","","","","","","","<img src=images/blank.png width =""500"" height = ""500"" style=""border:5px solid black"">","","",""
"","1142.4199999310076","stimulus-presentation","57","231595","0.0-14.0-1.21","SS1604520640613","<img src='images/simple/18.png' width ='500' height = '500' style='border:5px solid black'>","40","mixed_complex_deviant","images/simple/12.png","images/simple/18.png","images/complex/10.png,images/complex/8.png,images/complex/18.png,images/complex/9.png,images/complex/7.png,images/complex/12.png,images/complex/1.png","0","null","","200","1342.4199999310076","","","","background","",""
"","null","html-keyboard-response","58","232573","0.0-14.0-0.22","SS1604520640613","","null","","","","","","","","","","","","<img src=images/blank.png width =""500"" height = ""500"" style=""border:5px solid black"">","","",""
"","738.08000003919","stimulus-presentation","59","233514","0.0-14.0-1.22","SS1604520640613","<img src='images/simple/18.png' width ='500' height = '500' style='border:5px solid black'>","40","mixed_complex_deviant","images/simple/12.png","images/simple/18.png","images/complex/10.png,images/complex/8.png,images/complex/18.png,images/complex/9.png,images/complex/7.png,images/complex/12.png,images/complex/1.png","0","null","","200","938.08000003919","","","","background","",""
"","null","html-keyboard-response","60","234815","0.0-14.0-0.23","SS1604520640613","","null","","","","","","","","","","","","<img src=images/blank.png width =""500"" height = ""500"" style=""border:5px solid black"">","","",""
"","461.06500003952533","stimulus-presentation","61","235483","0.0-14.0-1.23","SS1604520640613","<img src='images/simple/18.png' width ='500' height = '500' style='border:5px solid black'>","40","mixed_complex_deviant","images/simple/12.png","images/simple/18.png","images/complex/10.png,images/complex/8.png,images/complex/18.png,images/complex/9.png,images/complex/7.png,images/complex/12.png,images/complex/1.png","0","null","","200","661.0650000395253","","","","background","",""
"","null","html-keyboard-response","62","236764","0.0-14.0-0.24","SS1604520640613","","null","","","","","","","","","","","","<img src=images/blank.png width =""500"" height = ""500"" style=""border:5px solid black"">","","",""
"","1553.844999987632","stimulus-presentation","63","238521","0.0-14.0-1.24","SS1604520640613","<img src='images/simple/12.png' width ='500' height = '500' style='border:5px solid black'>","40","mixed_complex_deviant","images/simple/12.png","images/simple/18.png","images/complex/10.png,images/complex/8.png,images/complex/18.png,images/complex/9.png,images/complex/7.png,images/complex/12.png,images/complex/1.png","0","null","","200","1753.844999987632","yes","449.8400000156835","","target","",""
"","null","html-keyboard-response","64","239525","0.0-14.0-0.25","SS1604520640613","","null","","","","","","","","","","","","<img src=images/blank.png width =""500"" height = ""500"" style=""border:5px solid black"">","","",""
"","1272.9200000176206","stimulus-presentation","65","241001","0.0-14.0-1.25","SS1604520640613","<img src='images/simple/12.png' width ='500' height = '500' style='border:5px solid black'>","40","mixed_complex_deviant","images/simple/12.png","images/simple/18.png","images/complex/10.png,images/complex/8.png,images/complex/18.png,images/complex/9.png,images/complex/7.png,images/complex/12.png,images/complex/1.png","0","null","","200","1472.9200000176206","yes","569.6999999927357","","target","",""
"","null","html-keyboard-response","66","241946","0.0-14.0-0.26","SS1604520640613","","null","","","","","","","","","","","","<img src=images/blank.png width =""500"" height = ""500"" style=""border:5px solid black"">","","",""
"","723.5400000354275","stimulus-presentation","67","242875","0.0-14.0-1.26","SS1604520640613","<img src='images/simple/18.png' width ='500' height = '500' style='border:5px solid black'>","40","mixed_complex_deviant","images/simple/12.png","images/simple/18.png","images/complex/10.png,images/complex/8.png,images/complex/18.png,images/complex/9.png,images/complex/7.png,images/complex/12.png,images/complex/1.png","0","null","","200","923.5400000354275","","","","background","",""
"","null","html-keyboard-response","68","243900","0.0-14.0-0.27","SS1604520640613","","null","","","","","","","","","","","","<img src=images/blank.png width =""500"" height = ""500"" style=""border:5px solid black"">","","",""
"","444.15499991737306","stimulus-presentation","69","244553","0.0-14.0-1.27","SS1604520640613","<img src='images/simple/18.png' width ='500' height = '500' style='border:5px solid black'>","40","mixed_complex_deviant","images/simple/12.png","images/simple/18.png","images/complex/10.png,images/complex/8.png,images/complex/18.png,images/complex/9.png,images/complex/7.png,images/complex/12.png,images/complex/1.png","0","null","","200","644.1549999173731","","","","background","",""
"","null","html-keyboard-response","70","245602","0.0-14.0-0.28","SS1604520640613","","null","","","","","","","","","","","","<img src=images/blank.png width =""500"" height = ""500"" style=""border:5px solid black"">","","",""
"","6844.320000032894","stimulus-presentation","71","252651","0.0-14.0-1.28","SS1604520640613","<img src='images/complex/9.png' width ='500' height = '500' style='border:5px solid black'>","40","mixed_complex_deviant","images/simple/12.png","images/simple/18.png","images/complex/10.png,images/complex/8.png,images/complex/18.png,images/complex/9.png,images/complex/7.png,images/complex/12.png,images/complex/1.png","0","null","","200","7044.320000032894","","","","deviant","",""
"","null","html-keyboard-response","72","253926","0.0-14.0-0.29","SS1604520640613","","null","","","","","","","","","","","","<img src=images/blank.png width =""500"" height = ""500"" style=""border:5px solid black"">","","",""
"","856.2699999893084","stimulus-presentation","73","254985","0.0-14.0-1.29","SS1604520640613","<img src='images/simple/18.png' width ='500' height = '500' style='border:5px solid black'>","40","mixed_complex_deviant","images/simple/12.png","images/simple/18.png","images/complex/10.png,images/complex/8.png,images/complex/18.png,images/complex/9.png,images/complex/7.png,images/complex/12.png,images/complex/1.png","0","null","","200","1056.2699999893084","","","","background","",""
"","null","html-keyboard-response","74","256102","0.0-14.0-0.30","SS1604520640613","","null","","","","","","","","","","","","<img src=images/blank.png width =""500"" height = ""500"" style=""border:5px solid black"">","","",""
"","1490.845000022091","stimulus-presentation","75","257800","0.0-14.0-1.30","SS1604520640613","<img src='images/simple/12.png' width ='500' height = '500' style='border:5px solid black'>","40","mixed_complex_deviant","images/simple/12.png","images/simple/18.png","images/complex/10.png,images/complex/8.png,images/complex/18.png,images/complex/9.png,images/complex/7.png,images/complex/12.png,images/complex/1.png","0","null","","200","1690.845000022091","yes","562.8299999516457","","target","",""
"","null","html-keyboard-response","76","259045","0.0-14.0-0.31","SS1604520640613","","null","","","","","","","","","","","","<img src=images/blank.png width =""500"" height = ""500"" style=""border:5px solid black"">","","",""
"","389.45000001695007","stimulus-presentation","77","259642","0.0-14.0-1.31","SS1604520640613","<img src='images/simple/18.png' width ='500' height = '500' style='border:5px solid black'>","40","mixed_complex_deviant","images/simple/12.png","images/simple/18.png","images/complex/10.png,images/complex/8.png,images/complex/18.png,images/complex/9.png,images/complex/7.png,images/complex/12.png,images/complex/1.png","0","null","","200","589.4500000169501","","","","background","",""
"","null","html-keyboard-response","78","260712","0.0-14.0-0.32","SS1604520640613","","null","","","","","","","","","","","","<img src=images/blank.png width =""500"" height = ""500"" style=""border:5px solid black"">","","",""
"","12629.360000020824","stimulus-presentation","79","273544","0.0-14.0-1.32","SS1604520640613","<img src='images/complex/1.png' width ='500' height = '500' style='border:5px solid black'>","40","mixed_complex_deviant","images/simple/12.png","images/simple/18.png","images/complex/10.png,images/complex/8.png,images/complex/18.png,images/complex/9.png,images/complex/7.png,images/complex/12.png,images/complex/1.png","0","null","","200","12829.360000020824","","","","deviant","",""
"","null","html-keyboard-response","80","274762","0.0-14.0-0.33","SS1604520640613","","null","","","","","","","","","","","","<img src=images/blank.png width =""500"" height = ""500"" style=""border:5px solid black"">","","",""
"","611.7649999214336","stimulus-presentation","81","275577","0.0-14.0-1.33","SS1604520640613","<img src='images/simple/18.png' width ='500' height = '500' style='border:5px solid black'>","40","mixed_complex_deviant","images/simple/12.png","images/simple/18.png","images/complex/10.png,images/complex/8.png,images/complex/18.png,images/complex/9.png,images/complex/7.png,images/complex/12.png,images/complex/1.png","0","null","","200","811.7649999214336","","","","background","",""
"","null","html-keyboard-response","82","276574","0.0-14.0-0.34","SS1604520640613","","null","","","","","","","","","","","","<img src=images/blank.png width =""500"" height = ""500"" style=""border:5px solid black"">","","",""
"","347.8100000647828","stimulus-presentation","83","277128","0.0-14.0-1.34","SS1604520640613","<img src='images/simple/18.png' width ='500' height = '500' style='border:5px solid black'>","40","mixed_complex_deviant","images/simple/12.png","images/simple/18.png","images/complex/10.png,images/complex/8.png,images/complex/18.png,images/complex/9.png,images/complex/7.png,images/complex/12.png,images/complex/1.png","0","null","","200","547.8100000647828","","","","background","",""
"","null","html-keyboard-response","84","278148","0.0-14.0-0.35","SS1604520640613","","null","","","","","","","","","","","","<img src=images/blank.png width =""500"" height = ""500"" style=""border:5px solid black"">","","",""
"","14950.640000053681","stimulus-presentation","85","293305","0.0-14.0-1.35","SS1604520640613","<img src='images/complex/12.png' width ='500' height = '500' style='border:5px solid black'>","40","mixed_complex_deviant","images/simple/12.png","images/simple/18.png","images/complex/10.png,images/complex/8.png,images/complex/18.png,images/complex/9.png,images/complex/7.png,images/complex/12.png,images/complex/1.png","0","null","","200","15150.640000053681","","","","deviant","",""
"","null","html-keyboard-response","86","294213","0.0-14.0-0.36","SS1604520640613","","null","","","","","","","","","","","","<img src=images/blank.png width =""500"" height = ""500"" style=""border:5px solid black"">","","",""
"","855.4249999579042","stimulus-presentation","87","295271","0.0-14.0-1.36","SS1604520640613","<img src='images/simple/18.png' width ='500' height = '500' style='border:5px solid black'>","40","mixed_complex_deviant","images/simple/12.png","images/simple/18.png","images/complex/10.png,images/complex/8.png,images/complex/18.png,images/complex/9.png,images/complex/7.png,images/complex/12.png,images/complex/1.png","0","null","","200","1055.4249999579042","yes","295.3500000294298","","background","",""
"","null","html-keyboard-response","88","296110","0.0-14.0-0.37","SS1604520640613","","null","","","","","","","","","","","","<img src=images/blank.png width =""500"" height = ""500"" style=""border:5px solid black"">","","",""
"","302.5350000243634","stimulus-presentation","89","296616","0.0-14.0-1.37","SS1604520640613","<img src='images/simple/18.png' width ='500' height = '500' style='border:5px solid black'>","40","mixed_complex_deviant","images/simple/12.png","images/simple/18.png","images/complex/10.png,images/complex/8.png,images/complex/18.png,images/complex/9.png,images/complex/7.png,images/complex/12.png,images/complex/1.png","0","null","","200","502.5350000243634","","","","background","",""
"","null","html-keyboard-response","90","297711","0.0-14.0-0.38","SS1604520640613","","null","","","","","","","","","","","","<img src=images/blank.png width =""500"" height = ""500"" style=""border:5px solid black"">","","",""
"","217.88499993272126","stimulus-presentation","91","298135","0.0-14.0-1.38","SS1604520640613","<img src='images/simple/18.png' width ='500' height = '500' style='border:5px solid black'>","40","mixed_complex_deviant","images/simple/12.png","images/simple/18.png","images/complex/10.png,images/complex/8.png,images/complex/18.png,images/complex/9.png,images/complex/7.png,images/complex/12.png,images/complex/1.png","0","null","","200","417.88499993272126","","","","background","",""
"","null","html-keyboard-response","92","299334","0.0-14.0-0.39","SS1604520640613","","null","","","","","","","","","","","","<img src=images/blank.png width =""500"" height = ""500"" style=""border:5px solid black"">","","",""
"","14679.569999920204","stimulus-presentation","93","314216","0.0-14.0-1.39","SS1604520640613","<img src='images/complex/18.png' width ='500' height = '500' style='border:5px solid black'>","40","mixed_complex_deviant","images/simple/12.png","images/simple/18.png","images/complex/10.png,images/complex/8.png,images/complex/18.png,images/complex/9.png,images/complex/7.png,images/complex/12.png,images/complex/1.png","0","null","","200","14879.569999920204","","","","deviant","",""
"","null","html-keyboard-response","94","315433","0.0-14.0-0.40","SS1604520640613","","null","","","","","","","","","","","","<img src=images/blank.png width =""500"" height = ""500"" style=""border:5px solid black"">","","",""
"","706.4699999755248","stimulus-presentation","95","316342","0.0-14.0-1.40","SS1604520640613","<img src='images/simple/18.png' width ='500' height = '500' style='border:5px solid black'>","40","mixed_complex_deviant","images/simple/12.png","images/simple/18.png","images/complex/10.png,images/complex/8.png,images/complex/18.png,images/complex/9.png,images/complex/7.png,images/complex/12.png,images/complex/1.png","0","null","","200","906.4699999755248","","","","background","",""
"","null","html-keyboard-response","96","317217","0.0-14.0-0.41","SS1604520640613","","null","","","","","","","","","","","","<img src=images/blank.png width =""500"" height = ""500"" style=""border:5px solid black"">","","",""
"","1412.209999980405","stimulus-presentation","97","318838","0.0-14.0-1.41","SS1604520640613","<img src='images/simple/12.png' width ='500' height = '500' style='border:5px solid black'>","40","mixed_complex_deviant","images/simple/12.png","images/simple/18.png","images/complex/10.png,images/complex/8.png,images/complex/18.png,images/complex/9.png,images/complex/7.png,images/complex/12.png,images/complex/1.png","0","null","","200","1612.209999980405","yes","276.2099999235943","","target","",""
"","null","html-keyboard-response","98","319715","0.0-14.0-0.42","SS1604520640613","","null","","","","","","","","","","","","<img src=images/blank.png width =""500"" height = ""500"" style=""border:5px solid black"">","","",""
"","1445.9299999289215","stimulus-presentation","99","321366","0.0-14.0-1.42","SS1604520640613","<img src='images/simple/12.png' width ='500' height = '500' style='border:5px solid black'>","40","mixed_complex_deviant","images/simple/12.png","images/simple/18.png","images/complex/10.png,images/complex/8.png,images/complex/18.png,images/complex/9.png,images/complex/7.png,images/complex/12.png,images/complex/1.png","0","null","","200","1645.9299999289215","yes","517.8449999075383","","target","",""
"","null","html-keyboard-response","100","322337","0.0-14.0-0.43","SS1604520640613","","null","","","","","","","","","","","","<img src=images/blank.png width =""500"" height = ""500"" style=""border:5px solid black"">","","",""
"","283.17000006791204","stimulus-presentation","101","322823","0.0-14.0-1.43","SS1604520640613","<img src='images/simple/18.png' width ='500' height = '500' style='border:5px solid black'>","40","mixed_complex_deviant","images/simple/12.png","images/simple/18.png","images/complex/10.png,images/complex/8.png,images/complex/18.png,images/complex/9.png,images/complex/7.png,images/complex/12.png,images/complex/1.png","0","null","","200","483.17000006791204","","","","background","",""
"","null","html-keyboard-response","102","323817","0.0-14.0-0.44","SS1604520640613","","null","","","","","","","","","","","","<img src=images/blank.png width =""500"" height = ""500"" style=""border:5px solid black"">","","",""
"","174.08999998588115","stimulus-presentation","103","324197","0.0-14.0-1.44","SS1604520640613","<img src='images/simple/18.png' width ='500' height = '500' style='border:5px solid black'>","40","mixed_complex_deviant","images/simple/12.png","images/simple/18.png","images/complex/10.png,images/complex/8.png,images/complex/18.png,images/complex/9.png,images/complex/7.png,images/complex/12.png,images/complex/1.png","0","null","","200","374.08999998588115","","","","background","",""
"","null","html-keyboard-response","104","325003","0.0-14.0-0.45","SS1604520640613","","null","","","","","","","","","","","","<img src=images/blank.png width =""500"" height = ""500"" style=""border:5px solid black"">","","",""
"","174.61500002536923","stimulus-presentation","105","325383","0.0-14.0-1.45","SS1604520640613","<img src='images/simple/18.png' width ='500' height = '500' style='border:5px solid black'>","40","mixed_complex_deviant","images/simple/12.png","images/simple/18.png","images/complex/10.png,images/complex/8.png,images/complex/18.png,images/complex/9.png,images/complex/7.png,images/complex/12.png,images/complex/1.png","0","null","","200","374.6150000253692","","","","background","",""
"","null","html-keyboard-response","106","326656","0.0-14.0-0.46","SS1604520640613","","null","","","","","","","","","","","","<img src=images/blank.png width =""500"" height = ""500"" style=""border:5px solid black"">","","",""
"","151.51499991770834","stimulus-presentation","107","327013","0.0-14.0-1.46","SS1604520640613","<img src='images/simple/18.png' width ='500' height = '500' style='border:5px solid black'>","40","mixed_complex_deviant","images/simple/12.png","images/simple/18.png","images/complex/10.png,images/complex/8.png,images/complex/18.png,images/complex/9.png,images/complex/7.png,images/complex/12.png,images/complex/1.png","0","null","","200","351.51499991770834","","","","background","",""
"","null","html-keyboard-response","108","328304","0.0-14.0-0.47","SS1604520640613","","null","","","","","","","","","","","","<img src=images/blank.png width =""500"" height = ""500"" style=""border:5px solid black"">","","",""
"","183.13000001944602","stimulus-presentation","109","328695","0.0-14.0-1.47","SS1604520640613","<img src='images/simple/18.png' width ='500' height = '500' style='border:5px solid black'>","40","mixed_complex_deviant","images/simple/12.png","images/simple/18.png","images/complex/10.png,images/complex/8.png,images/complex/18.png,images/complex/9.png,images/complex/7.png,images/complex/12.png,images/complex/1.png","0","null","","200","383.130000019446","","","","background","",""
"","null","html-keyboard-response","110","329770","0.0-14.0-0.48","SS1604520640613","","null","","","","","","","","","","","","<img src=images/blank.png width =""500"" height = ""500"" style=""border:5px solid black"">","","",""
"","139.24000004772097","stimulus-presentation","111","330117","0.0-14.0-1.48","SS1604520640613","<img src='images/simple/18.png' width ='500' height = '500' style='border:5px solid black'>","40","mixed_complex_deviant","images/simple/12.png","images/simple/18.png","images/complex/10.png,images/complex/8.png,images/complex/18.png,images/complex/9.png,images/complex/7.png,images/complex/12.png,images/complex/1.png","0","null","","200","339.24000004772097","","","","background","",""
"[{""page_index"":0,""viewing_time"":24300}]","24300","task-instructions","112","354419","0.0-15.0","SS1604520640613","","","","","","","","","","","","","","","","",""
"[{""page_index"":0,""viewing_time"":4965.93499998562},{""page_index"":1,""viewing_time"":6063.979999977164},{""page_index"":2,""viewing_time"":1495.9500000113621}]","12526.070000021718","instructions","113","366947","0.0-16.0","SS1604520640613","","","","","","","","","","","","","","","","",""
"","null","html-keyboard-response","114","367831","0.0-17.0-0.0","SS1604520640613","","null","","","","","","","","","","","","<img src=images/blank.png width =""500"" height = ""500"" style=""border:5px solid black"">","","",""
"","2063.869999954477","stimulus-presentation","115","370101","0.0-17.0-1.0","SS1604520640613","<img src='images/simple/1.png' width ='500' height = '500' style='border:5px solid black'>","40","mixed_simple_deviant","images/complex/16.png","images/complex/2.png","images/simple/6.png,images/simple/17.png,images/simple/3.png,images/simple/4.png,images/simple/1.png,images/simple/15.png,images/simple/8.png","1","null","","200","2263.869999954477","","","","deviant","",""
"","null","html-keyboard-response","116","370977","0.0-17.0-0.1","SS1604520640613","","null","","","","","","","","","","","","<img src=images/blank.png width =""500"" height = ""500"" style=""border:5px solid black"">","","",""
"","3618.904999922961","stimulus-presentation","117","374803","0.0-17.0-1.1","SS1604520640613","<img src='images/complex/2.png' width ='500' height = '500' style='border:5px solid black'>","40","mixed_simple_deviant","images/complex/16.png","images/complex/2.png","images/simple/6.png,images/simple/17.png,images/simple/3.png,images/simple/4.png,images/simple/1.png,images/simple/15.png,images/simple/8.png","1","null","","200","3818.904999922961","","","","background","",""
"","null","html-keyboard-response","118","376065","0.0-17.0-0.2","SS1604520640613","","null","","","","","","","","","","","","<img src=images/blank.png width =""500"" height = ""500"" style=""border:5px solid black"">","","",""
"","1620.4399999696761","stimulus-presentation","119","377893","0.0-17.0-1.2","SS1604520640613","<img src='images/complex/2.png' width ='500' height = '500' style='border:5px solid black'>","40","mixed_simple_deviant","images/complex/16.png","images/complex/2.png","images/simple/6.png,images/simple/17.png,images/simple/3.png,images/simple/4.png,images/simple/1.png,images/simple/15.png,images/simple/8.png","1","null","","200","1820.4399999696761","","","","background","",""
"","null","html-keyboard-response","120","378940","0.0-17.0-0.3","SS1604520640613","","null","","","","","","","","","","","","<img src=images/blank.png width =""500"" height = ""500"" style=""border:5px solid black"">","","",""
"","823.355000000447","stimulus-presentation","121","379971","0.0-17.0-1.3","SS1604520640613","<img src='images/simple/3.png' width ='500' height = '500' style='border:5px solid black'>","40","mixed_simple_deviant","images/complex/16.png","images/complex/2.png","images/simple/6.png,images/simple/17.png,images/simple/3.png,images/simple/4.png,images/simple/1.png,images/simple/15.png,images/simple/8.png","1","null","","200","1023.355000000447","","","","deviant","",""
"","null","html-keyboard-response","122","380871","0.0-17.0-0.4","SS1604520640613","","null","","","","","","","","","","","","<img src=images/blank.png width =""500"" height = ""500"" style=""border:5px solid black"">","","",""
"","654.8000000184402","stimulus-presentation","123","381732","0.0-17.0-1.4","SS1604520640613","<img src='images/complex/2.png' width ='500' height = '500' style='border:5px solid black'>","40","mixed_simple_deviant","images/complex/16.png","images/complex/2.png","images/simple/6.png,images/simple/17.png,images/simple/3.png,images/simple/4.png,images/simple/1.png,images/simple/15.png,images/simple/8.png","1","null","","200","854.8000000184402","","","","background","",""
"","null","html-keyboard-response","124","382976","0.0-17.0-0.5","SS1604520640613","","null","","","","","","","","","","","","<img src=images/blank.png width =""500"" height = ""500"" style=""border:5px solid black"">","","",""
"","1522.6350000593811","stimulus-presentation","125","384706","0.0-17.0-1.5","SS1604520640613","<img src='images/complex/16.png' width ='500' height = '500' style='border:5px solid black'>","40","mixed_simple_deviant","images/complex/16.png","images/complex/2.png","images/simple/6.png,images/simple/17.png,images/simple/3.png,images/simple/4.png,images/simple/1.png,images/simple/15.png,images/simple/8.png","1","null","","200","1722.6350000593811","yes","546.5799999656156","","target","",""
"","null","html-keyboard-response","126","385527","0.0-17.0-0.6","SS1604520640613","","null","","","","","","","","","","","","<img src=images/blank.png width =""500"" height = ""500"" style=""border:5px solid black"">","","",""
"","1296.0550000425428","stimulus-presentation","127","387028","0.0-17.0-1.6","SS1604520640613","<img src='images/complex/2.png' width ='500' height = '500' style='border:5px solid black'>","40","mixed_simple_deviant","images/complex/16.png","images/complex/2.png","images/simple/6.png,images/simple/17.png,images/simple/3.png,images/simple/4.png,images/simple/1.png,images/simple/15.png,images/simple/8.png","1","null","","200","1496.0550000425428","","","","background","",""
"","null","html-keyboard-response","128","388249","0.0-17.0-0.7","SS1604520640613","","null","","","","","","","","","","","","<img src=images/blank.png width =""500"" height = ""500"" style=""border:5px solid black"">","","",""
"","1865.9150000894442","stimulus-presentation","129","390323","0.0-17.0-1.7","SS1604520640613","<img src='images/complex/2.png' width ='500' height = '500' style='border:5px solid black'>","40","mixed_simple_deviant","images/complex/16.png","images/complex/2.png","images/simple/6.png,images/simple/17.png,images/simple/3.png,images/simple/4.png,images/simple/1.png,images/simple/15.png,images/simple/8.png","1","null","","200","2065.915000089444","","","","background","",""
"","null","html-keyboard-response","130","391545","0.0-17.0-0.8","SS1604520640613","","null","","","","","","","","","","","","<img src=images/blank.png width =""500"" height = ""500"" style=""border:5px solid black"">","","",""
"","2026.6100000590086","stimulus-presentation","131","393779","0.0-17.0-1.8","SS1604520640613","<img src='images/complex/2.png' width ='500' height = '500' style='border:5px solid black'>","40","mixed_simple_deviant","images/complex/16.png","images/complex/2.png","images/simple/6.png,images/simple/17.png,images/simple/3.png,images/simple/4.png,images/simple/1.png,images/simple/15.png,images/simple/8.png","1","null","","200","2226.6100000590086","","","","background","",""
"","null","html-keyboard-response","132","394630","0.0-17.0-0.9","SS1604520640613","","null","","","","","","","","","","","","<img src=images/blank.png width =""500"" height = ""500"" style=""border:5px solid black"">","","",""
"","1867.7150000585243","stimulus-presentation","133","396706","0.0-17.0-1.9","SS1604520640613","<img src='images/complex/2.png' width ='500' height = '500' style='border:5px solid black'>","40","mixed_simple_deviant","images/complex/16.png","images/complex/2.png","images/simple/6.png,images/simple/17.png,images/simple/3.png,images/simple/4.png,images/simple/1.png,images/simple/15.png,images/simple/8.png","1","null","","200","2067.7150000585243","","","","background","",""
"","null","html-keyboard-response","134","397893","0.0-17.0-0.10","SS1604520640613","","null","","","","","","","","","","","","<img src=images/blank.png width =""500"" height = ""500"" style=""border:5px solid black"">","","",""
"","829.9300000071526","stimulus-presentation","135","398931","0.0-17.0-1.10","SS1604520640613","<img src='images/complex/2.png' width ='500' height = '500' style='border:5px solid black'>","40","mixed_simple_deviant","images/complex/16.png","images/complex/2.png","images/simple/6.png,images/simple/17.png,images/simple/3.png,images/simple/4.png,images/simple/1.png,images/simple/15.png,images/simple/8.png","1","null","","200","1029.9300000071526","","","","background","",""
"","null","html-keyboard-response","136","400045","0.0-17.0-0.11","SS1604520640613","","null","","","","","","","","","","","","<img src=images/blank.png width =""500"" height = ""500"" style=""border:5px solid black"">","","",""
"","662.1300000697374","stimulus-presentation","137","400913","0.0-17.0-1.11","SS1604520640613","<img src='images/complex/2.png' width ='500' height = '500' style='border:5px solid black'>","40","mixed_simple_deviant","images/complex/16.png","images/complex/2.png","images/simple/6.png,images/simple/17.png,images/simple/3.png,images/simple/4.png,images/simple/1.png,images/simple/15.png,images/simple/8.png","1","null","","200","862.1300000697374","","","","background","",""
"","null","html-keyboard-response","138","402062","0.0-17.0-0.12","SS1604520640613","","null","","","","","","","","","","","","<img src=images/blank.png width =""500"" height = ""500"" style=""border:5px solid black"">","","",""
"","201.48000004701316","stimulus-presentation","139","402467","0.0-17.0-1.12","SS1604520640613","<img src='images/complex/2.png' width ='500' height = '500' style='border:5px solid black'>","40","mixed_simple_deviant","images/complex/16.png","images/complex/2.png","images/simple/6.png,images/simple/17.png,images/simple/3.png,images/simple/4.png,images/simple/1.png,images/simple/15.png,images/simple/8.png","1","null","","200","401.48000004701316","","","","background","",""
"","null","html-keyboard-response","140","403690","0.0-17.0-0.13","SS1604520640613","","null","","","","","","","","","","","","<img src=images/blank.png width =""500"" height = ""500"" style=""border:5px solid black"">","","",""
"","1063.594999955967","stimulus-presentation","141","404961","0.0-17.0-1.13","SS1604520640613","<img src='images/simple/6.png' width ='500' height = '500' style='border:5px solid black'>","40","mixed_simple_deviant","images/complex/16.png","images/complex/2.png","images/simple/6.png,images/simple/17.png,images/simple/3.png,images/simple/4.png,images/simple/1.png,images/simple/15.png,images/simple/8.png","1","null","","200","1263.594999955967","","","","deviant","",""
"","null","html-keyboard-response","142","406084","0.0-17.0-0.14","SS1604520640613","","null","","","","","","","","","","","","<img src=images/blank.png width =""500"" height = ""500"" style=""border:5px solid black"">","","",""
"","371.6749999439344","stimulus-presentation","143","406659","0.0-17.0-1.14","SS1604520640613","<img src='images/complex/2.png' width ='500' height = '500' style='border:5px solid black'>","40","mixed_simple_deviant","images/complex/16.png","images/complex/2.png","images/simple/6.png,images/simple/17.png,images/simple/3.png,images/simple/4.png,images/simple/1.png,images/simple/15.png,images/simple/8.png","1","null","","200","571.6749999439344","","","","background","",""
"","null","html-keyboard-response","144","407786","0.0-17.0-0.15","SS1604520640613","","null","","","","","","","","","","","","<img src=images/blank.png width =""500"" height = ""500"" style=""border:5px solid black"">","","",""
"","599.904999951832","stimulus-presentation","145","408593","0.0-17.0-1.15","SS1604520640613","<img src='images/complex/2.png' width ='500' height = '500' style='border:5px solid black'>","40","mixed_simple_deviant","images/complex/16.png","images/complex/2.png","images/simple/6.png,images/simple/17.png,images/simple/3.png,images/simple/4.png,images/simple/1.png,images/simple/15.png,images/simple/8.png","1","null","","200","799.904999951832","","","","background","",""
"","null","html-keyboard-response","146","409686","0.0-17.0-0.16","SS1604520640613","","null","","","","","","","","","","","","<img src=images/blank.png width =""500"" height = ""500"" style=""border:5px solid black"">","","",""
"","349.53000000678","stimulus-presentation","147","410243","0.0-17.0-1.16","SS1604520640613","<img src='images/complex/2.png' width ='500' height = '500' style='border:5px solid black'>","40","mixed_simple_deviant","images/complex/16.png","images/complex/2.png","images/simple/6.png,images/simple/17.png,images/simple/3.png,images/simple/4.png,images/simple/1.png,images/simple/15.png,images/simple/8.png","1","null","","200","549.53000000678","","","","background","",""
"","null","html-keyboard-response","148","411335","0.0-17.0-0.17","SS1604520640613","","null","","","","","","","","","","","","<img src=images/blank.png width =""500"" height = ""500"" style=""border:5px solid black"">","","",""
"","252.51500005833805","stimulus-presentation","149","411794","0.0-17.0-1.17","SS1604520640613","<img src='images/complex/2.png' width ='500' height = '500' style='border:5px solid black'>","40","mixed_simple_deviant","images/complex/16.png","images/complex/2.png","images/simple/6.png,images/simple/17.png,images/simple/3.png,images/simple/4.png,images/simple/1.png,images/simple/15.png,images/simple/8.png","1","null","","200","452.51500005833805","","","","background","",""
"","null","html-keyboard-response","150","412655","0.0-17.0-0.18","SS1604520640613","","null","","","","","","","","","","","","<img src=images/blank.png width =""500"" height = ""500"" style=""border:5px solid black"">","","",""
"","165.5449999962002","stimulus-presentation","151","413027","0.0-17.0-1.18","SS1604520640613","<img src='images/complex/2.png' width ='500' height = '500' style='border:5px solid black'>","40","mixed_simple_deviant","images/complex/16.png","images/complex/2.png","images/simple/6.png,images/simple/17.png,images/simple/3.png,images/simple/4.png,images/simple/1.png,images/simple/15.png,images/simple/8.png","1","null","","200","365.5449999962002","","","","background","",""
"","null","html-keyboard-response","152","414141","0.0-17.0-0.19","SS1604520640613","","null","","","","","","","","","","","","<img src=images/blank.png width =""500"" height = ""500"" style=""border:5px solid black"">","","",""
"","163.6350000044331","stimulus-presentation","153","414513","0.0-17.0-1.19","SS1604520640613","<img src='images/complex/2.png' width ='500' height = '500' style='border:5px solid black'>","40","mixed_simple_deviant","images/complex/16.png","images/complex/2.png","images/simple/6.png,images/simple/17.png,images/simple/3.png,images/simple/4.png,images/simple/1.png,images/simple/15.png,images/simple/8.png","1","null","","200","363.6350000044331","","","","background","",""
"","null","html-keyboard-response","154","415499","0.0-17.0-0.20","SS1604520640613","","null","","","","","","","","","","","","<img src=images/blank.png width =""500"" height = ""500"" style=""border:5px solid black"">","","",""
"","151.00499999243766","stimulus-presentation","155","415858","0.0-17.0-1.20","SS1604520640613","<img src='images/complex/2.png' width ='500' height = '500' style='border:5px solid black'>","40","mixed_simple_deviant","images/complex/16.png","images/complex/2.png","images/simple/6.png,images/simple/17.png,images/simple/3.png,images/simple/4.png,images/simple/1.png,images/simple/15.png,images/simple/8.png","1","null","","200","351.00499999243766","","","","background","",""
"","null","html-keyboard-response","156","416799","0.0-17.0-0.21","SS1604520640613","","null","","","","","","","","","","","","<img src=images/blank.png width =""500"" height = ""500"" style=""border:5px solid black"">","","",""
"","3909.5499999821186","stimulus-presentation","157","420913","0.0-17.0-1.21","SS1604520640613","<img src='images/simple/8.png' width ='500' height = '500' style='border:5px solid black'>","40","mixed_simple_deviant","images/complex/16.png","images/complex/2.png","images/simple/6.png,images/simple/17.png,images/simple/3.png,images/simple/4.png,images/simple/1.png,images/simple/15.png,images/simple/8.png","1","null","","200","4109.549999982119","","","","deviant","",""
"","null","html-keyboard-response","158","422109","0.0-17.0-0.22","SS1604520640613","","null","","","","","","","","","","","","<img src=images/blank.png width =""500"" height = ""500"" style=""border:5px solid black"">","","",""
"","358.9549999451265","stimulus-presentation","159","422675","0.0-17.0-1.22","SS1604520640613","<img src='images/complex/2.png' width ='500' height = '500' style='border:5px solid black'>","40","mixed_simple_deviant","images/complex/16.png","images/complex/2.png","images/simple/6.png,images/simple/17.png,images/simple/3.png,images/simple/4.png,images/simple/1.png,images/simple/15.png,images/simple/8.png","1","null","","200","558.9549999451265","","","","background","",""
"","null","html-keyboard-response","160","423790","0.0-17.0-0.23","SS1604520640613","","null","","","","","","","","","","","","<img src=images/blank.png width =""500"" height = ""500"" style=""border:5px solid black"">","","",""
"","146.100000012666","stimulus-presentation","161","424145","0.0-17.0-1.23","SS1604520640613","<img src='images/complex/2.png' width ='500' height = '500' style='border:5px solid black'>","40","mixed_simple_deviant","images/complex/16.png","images/complex/2.png","images/simple/6.png,images/simple/17.png,images/simple/3.png,images/simple/4.png,images/simple/1.png,images/simple/15.png,images/simple/8.png","1","null","","200","346.100000012666","","","","background","",""
"","null","html-keyboard-response","162","425310","0.0-17.0-0.24","SS1604520640613","","null","","","","","","","","","","","","<img src=images/blank.png width =""500"" height = ""500"" style=""border:5px solid black"">","","",""
"","119.13499992806464","stimulus-presentation","163","425634","0.0-17.0-1.24","SS1604520640613","<img src='images/complex/2.png' width ='500' height = '500' style='border:5px solid black'>","40","mixed_simple_deviant","images/complex/16.png","images/complex/2.png","images/simple/6.png,images/simple/17.png,images/simple/3.png,images/simple/4.png,images/simple/1.png,images/simple/15.png,images/simple/8.png","1","null","","200","319.13499992806464","","","","background","",""
"","null","html-keyboard-response","164","426796","0.0-17.0-0.25","SS1604520640613","","null","","","","","","","","","","","","<img src=images/blank.png width =""500"" height = ""500"" style=""border:5px solid black"">","","",""
"","2325.920000090264","stimulus-presentation","165","429328","0.0-17.0-1.25","SS1604520640613","<img src='images/simple/4.png' width ='500' height = '500' style='border:5px solid black'>","40","mixed_simple_deviant","images/complex/16.png","images/complex/2.png","images/simple/6.png,images/simple/17.png,images/simple/3.png,images/simple/4.png,images/simple/1.png,images/simple/15.png,images/simple/8.png","1","null","","200","2525.920000090264","","","","deviant","",""
"","null","html-keyboard-response","166","430368","0.0-17.0-0.26","SS1604520640613","","null","","","","","","","","","","","","<img src=images/blank.png width =""500"" height = ""500"" style=""border:5px solid black"">","","",""
"","309.68000006396323","stimulus-presentation","167","430881","0.0-17.0-1.26","SS1604520640613","<img src='images/complex/2.png' width ='500' height = '500' style='border:5px solid black'>","40","mixed_simple_deviant","images/complex/16.png","images/complex/2.png","images/simple/6.png,images/simple/17.png,images/simple/3.png,images/simple/4.png,images/simple/1.png,images/simple/15.png,images/simple/8.png","1","null","","200","509.68000006396323","","","","background","",""
"","null","html-keyboard-response","168","431820","0.0-17.0-0.27","SS1604520640613","","null","","","","","","","","","","","","<img src=images/blank.png width =""500"" height = ""500"" style=""border:5px solid black"">","","",""
"","248.33500001113862","stimulus-presentation","169","432272","0.0-17.0-1.27","SS1604520640613","<img src='images/complex/2.png' width ='500' height = '500' style='border:5px solid black'>","40","mixed_simple_deviant","images/complex/16.png","images/complex/2.png","images/simple/6.png,images/simple/17.png,images/simple/3.png,images/simple/4.png,images/simple/1.png,images/simple/15.png,images/simple/8.png","1","null","","200","448.3350000111386","","","","background","",""
"","null","html-keyboard-response","170","433402","0.0-17.0-0.28","SS1604520640613","","null","","","","","","","","","","","","<img src=images/blank.png width =""500"" height = ""500"" style=""border:5px solid black"">","","",""
"","139.45999997667968","stimulus-presentation","171","433746","0.0-17.0-1.28","SS1604520640613","<img src='images/complex/2.png' width ='500' height = '500' style='border:5px solid black'>","40","mixed_simple_deviant","images/complex/16.png","images/complex/2.png","images/simple/6.png,images/simple/17.png,images/simple/3.png,images/simple/4.png,images/simple/1.png,images/simple/15.png,images/simple/8.png","1","null","","200","339.4599999766797","","","","background","",""
"","null","html-keyboard-response","172","434588","0.0-17.0-0.29","SS1604520640613","","null","","","","","","","","","","","","<img src=images/blank.png width =""500"" height = ""500"" style=""border:5px solid black"">","","",""
"","2520.5950000090525","stimulus-presentation","173","437312","0.0-17.0-1.29","SS1604520640613","<img src='images/complex/16.png' width ='500' height = '500' style='border:5px solid black'>","40","mixed_simple_deviant","images/complex/16.png","images/complex/2.png","images/simple/6.png,images/simple/17.png,images/simple/3.png,images/simple/4.png,images/simple/1.png,images/simple/15.png,images/simple/8.png","1","null","","200","2720.5950000090525","yes","744.5549999829382","","target","",""
"","null","html-keyboard-response","174","438308","0.0-17.0-0.30","SS1604520640613","","null","","","","","","","","","","","","<img src=images/blank.png width =""500"" height = ""500"" style=""border:5px solid black"">","","",""
"","273.22500001173466","stimulus-presentation","175","438785","0.0-17.0-1.30","SS1604520640613","<img src='images/complex/2.png' width ='500' height = '500' style='border:5px solid black'>","40","mixed_simple_deviant","images/complex/16.png","images/complex/2.png","images/simple/6.png,images/simple/17.png,images/simple/3.png,images/simple/4.png,images/simple/1.png,images/simple/15.png,images/simple/8.png","1","null","","200","473.22500001173466","","","","background","",""
"","null","html-keyboard-response","176","440030","0.0-17.0-0.31","SS1604520640613","","null","","","","","","","","","","","","<img src=images/blank.png width =""500"" height = ""500"" style=""border:5px solid black"">","","",""
"","182.5599999865517","stimulus-presentation","177","440416","0.0-17.0-1.31","SS1604520640613","<img src='images/complex/2.png' width ='500' height = '500' style='border:5px solid black'>","40","mixed_simple_deviant","images/complex/16.png","images/complex/2.png","images/simple/6.png,images/simple/17.png,images/simple/3.png,images/simple/4.png,images/simple/1.png,images/simple/15.png,images/simple/8.png","1","null","","200","382.5599999865517","","","","background","",""
"","null","html-keyboard-response","178","441438","0.0-17.0-0.32","SS1604520640613","","null","","","","","","","","","","","","<img src=images/blank.png width =""500"" height = ""500"" style=""border:5px solid black"">","","",""
"","1494.234999991022","stimulus-presentation","179","443136","0.0-17.0-1.32","SS1604520640613","<img src='images/complex/16.png' width ='500' height = '500' style='border:5px solid black'>","40","mixed_simple_deviant","images/complex/16.png","images/complex/2.png","images/simple/6.png,images/simple/17.png,images/simple/3.png,images/simple/4.png,images/simple/1.png,images/simple/15.png,images/simple/8.png","1","null","","200","1694.234999991022","yes","518.1800000136718","","target","",""
"","null","html-keyboard-response","180","444419","0.0-17.0-0.33","SS1604520640613","","null","","","","","","","","","","","","<img src=images/blank.png width =""500"" height = ""500"" style=""border:5px solid black"">","","",""
"","466.1850000265986","stimulus-presentation","181","445090","0.0-17.0-1.33","SS1604520640613","<img src='images/complex/2.png' width ='500' height = '500' style='border:5px solid black'>","40","mixed_simple_deviant","images/complex/16.png","images/complex/2.png","images/simple/6.png,images/simple/17.png,images/simple/3.png,images/simple/4.png,images/simple/1.png,images/simple/15.png,images/simple/8.png","1","null","","200","666.1850000265986","","","","background","",""
"","null","html-keyboard-response","182","446077","0.0-17.0-0.34","SS1604520640613","","null","","","","","","","","","","","","<img src=images/blank.png width =""500"" height = ""500"" style=""border:5px solid black"">","","",""
"","308.04000003263354","stimulus-presentation","183","446591","0.0-17.0-1.34","SS1604520640613","<img src='images/complex/2.png' width ='500' height = '500' style='border:5px solid black'>","40","mixed_simple_deviant","images/complex/16.png","images/complex/2.png","images/simple/6.png,images/simple/17.png,images/simple/3.png,images/simple/4.png,images/simple/1.png,images/simple/15.png,images/simple/8.png","1","null","","200","508.04000003263354","","","","background","",""
"","null","html-keyboard-response","184","447689","0.0-17.0-0.35","SS1604520640613","","null","","","","","","","","","","","","<img src=images/blank.png width =""500"" height = ""500"" style=""border:5px solid black"">","","",""
"","188.36500006727874","stimulus-presentation","185","448081","0.0-17.0-1.35","SS1604520640613","<img src='images/complex/2.png' width ='500' height = '500' style='border:5px solid black'>","40","mixed_simple_deviant","images/complex/16.png","images/complex/2.png","images/simple/6.png,images/simple/17.png,images/simple/3.png,images/simple/4.png,images/simple/1.png,images/simple/15.png,images/simple/8.png","1","null","","200","388.36500006727874","","","","background","",""
"","null","html-keyboard-response","186","449301","0.0-17.0-0.36","SS1604520640613","","null","","","","","","","","","","","","<img src=images/blank.png width =""500"" height = ""500"" style=""border:5px solid black"">","","",""
"","2238.245000015013","stimulus-presentation","187","451743","0.0-17.0-1.36","SS1604520640613","<img src='images/simple/17.png' width ='500' height = '500' style='border:5px solid black'>","40","mixed_simple_deviant","images/complex/16.png","images/complex/2.png","images/simple/6.png,images/simple/17.png,images/simple/3.png,images/simple/4.png,images/simple/1.png,images/simple/15.png,images/simple/8.png","1","null","","200","2438.245000015013","","","","deviant","",""
"","null","html-keyboard-response","188","452823","0.0-17.0-0.37","SS1604520640613","","null","","","","","","","","","","","","<img src=images/blank.png width =""500"" height = ""500"" style=""border:5px solid black"">","","",""
"","1563.9850000152364","stimulus-presentation","189","454591","0.0-17.0-1.37","SS1604520640613","<img src='images/complex/16.png' width ='500' height = '500' style='border:5px solid black'>","40","mixed_simple_deviant","images/complex/16.png","images/complex/2.png","images/simple/6.png,images/simple/17.png,images/simple/3.png,images/simple/4.png,images/simple/1.png,images/simple/15.png,images/simple/8.png","1","null","","200","1763.9850000152364","yes","636.0650000860915","","target","",""
"","null","html-keyboard-response","190","455635","0.0-17.0-0.38","SS1604520640613","","null","","","","","","","","","","","","<img src=images/blank.png width =""500"" height = ""500"" style=""border:5px solid black"">","","",""
"","365.99500000011176","stimulus-presentation","191","456209","0.0-17.0-1.38","SS1604520640613","<img src='images/complex/2.png' width ='500' height = '500' style='border:5px solid black'>","40","mixed_simple_deviant","images/complex/16.png","images/complex/2.png","images/simple/6.png,images/simple/17.png,images/simple/3.png,images/simple/4.png,images/simple/1.png,images/simple/15.png,images/simple/8.png","1","null","","200","565.9950000001118","","","","background","",""
"","null","html-keyboard-response","192","457432","0.0-17.0-0.39","SS1604520640613","","null","","","","","","","","","","","","<img src=images/blank.png width =""500"" height = ""500"" style=""border:5px solid black"">","","",""
"","118.8799999654293","stimulus-presentation","193","457759","0.0-17.0-1.39","SS1604520640613","<img src='images/complex/2.png' width ='500' height = '500' style='border:5px solid black'>","40","mixed_simple_deviant","images/complex/16.png","images/complex/2.png","images/simple/6.png,images/simple/17.png,images/simple/3.png,images/simple/4.png,images/simple/1.png,images/simple/15.png,images/simple/8.png","1","null","","200","318.8799999654293","","","","background","",""
"","null","html-keyboard-response","194","458941","0.0-17.0-0.40","SS1604520640613","","null","","","","","","","","","","","","<img src=images/blank.png width =""500"" height = ""500"" style=""border:5px solid black"">","","",""
"","215.60500003397465","stimulus-presentation","195","459360","0.0-17.0-1.40","SS1604520640613","<img src='images/complex/2.png' width ='500' height = '500' style='border:5px solid black'>","40","mixed_simple_deviant","images/complex/16.png","images/complex/2.png","images/simple/6.png,images/simple/17.png,images/simple/3.png,images/simple/4.png,images/simple/1.png,images/simple/15.png,images/simple/8.png","1","null","","200","415.60500003397465","","","","background","",""
"","null","html-keyboard-response","196","460477","0.0-17.0-0.41","SS1604520640613","","null","","","","","","","","","","","","<img src=images/blank.png width =""500"" height = ""500"" style=""border:5px solid black"">","","",""
"","130.4600000148639","stimulus-presentation","197","460815","0.0-17.0-1.41","SS1604520640613","<img src='images/complex/2.png' width ='500' height = '500' style='border:5px solid black'>","40","mixed_simple_deviant","images/complex/16.png","images/complex/2.png","images/simple/6.png,images/simple/17.png,images/simple/3.png,images/simple/4.png,images/simple/1.png,images/simple/15.png,images/simple/8.png","1","null","","200","330.4600000148639","","","","background","",""
"","null","html-keyboard-response","198","461978","0.0-17.0-0.42","SS1604520640613","","null","","","","","","","","","","","","<img src=images/blank.png width =""500"" height = ""500"" style=""border:5px solid black"">","","",""
"","122.12499999441206","stimulus-presentation","199","462304","0.0-17.0-1.42","SS1604520640613","<img src='images/complex/2.png' width ='500' height = '500' style='border:5px solid black'>","40","mixed_simple_deviant","images/complex/16.png","images/complex/2.png","images/simple/6.png,images/simple/17.png,images/simple/3.png,images/simple/4.png,images/simple/1.png,images/simple/15.png,images/simple/8.png","1","null","","200","322.12499999441206","","","","background","",""
"","null","html-keyboard-response","200","463420","0.0-17.0-0.43","SS1604520640613","","null","","","","","","","","","","","","<img src=images/blank.png width =""500"" height = ""500"" style=""border:5px solid black"">","","",""
"","145.97999991383404","stimulus-presentation","201","463775","0.0-17.0-1.43","SS1604520640613","<img src='images/complex/2.png' width ='500' height = '500' style='border:5px solid black'>","40","mixed_simple_deviant","images/complex/16.png","images/complex/2.png","images/simple/6.png,images/simple/17.png,images/simple/3.png,images/simple/4.png,images/simple/1.png,images/simple/15.png,images/simple/8.png","1","null","","200","345.97999991383404","","","","background","",""
"","null","html-keyboard-response","202","464614","0.0-17.0-0.44","SS1604520640613","","null","","","","","","","","","","","","<img src=images/blank.png width =""500"" height = ""500"" style=""border:5px solid black"">","","",""
"","1497.0249999314547","stimulus-presentation","203","466319","0.0-17.0-1.44","SS1604520640613","<img src='images/complex/16.png' width ='500' height = '500' style='border:5px solid black'>","40","mixed_simple_deviant","images/complex/16.png","images/complex/2.png","images/simple/6.png,images/simple/17.png,images/simple/3.png,images/simple/4.png,images/simple/1.png,images/simple/15.png,images/simple/8.png","1","null","","200","1697.0249999314547","yes","552.519999910146","","target","",""
"","null","html-keyboard-response","204","467390","0.0-17.0-0.45","SS1604520640613","","null","","","","","","","","","","","","<img src=images/blank.png width =""500"" height = ""500"" style=""border:5px solid black"">","","",""
"","1664.7399999201298","stimulus-presentation","205","469264","0.0-17.0-1.45","SS1604520640613","<img src='images/simple/15.png' width ='500' height = '500' style='border:5px solid black'>","40","mixed_simple_deviant","images/complex/16.png","images/complex/2.png","images/simple/6.png,images/simple/17.png,images/simple/3.png,images/simple/4.png,images/simple/1.png,images/simple/15.png,images/simple/8.png","1","null","","200","1864.7399999201298","","","","deviant","",""
"","null","html-keyboard-response","206","470135","0.0-17.0-0.46","SS1604520640613","","null","","","","","","","","","","","","<img src=images/blank.png width =""500"" height = ""500"" style=""border:5px solid black"">","","",""
"","331.31000003777444","stimulus-presentation","207","470670","0.0-17.0-1.46","SS1604520640613","<img src='images/complex/2.png' width ='500' height = '500' style='border:5px solid black'>","40","mixed_simple_deviant","images/complex/16.png","images/complex/2.png","images/simple/6.png,images/simple/17.png,images/simple/3.png,images/simple/4.png,images/simple/1.png,images/simple/15.png,images/simple/8.png","1","null","","200","531.3100000377744","","","","background","",""
"","null","html-keyboard-response","208","471503","0.0-17.0-0.47","SS1604520640613","","null","","","","","","","","","","","","<img src=images/blank.png width =""500"" height = ""500"" style=""border:5px solid black"">","","",""
"","1775.2749999053776","stimulus-presentation","209","473486","0.0-17.0-1.47","SS1604520640613","<img src='images/complex/16.png' width ='500' height = '500' style='border:5px solid black'>","40","mixed_simple_deviant","images/complex/16.png","images/complex/2.png","images/simple/6.png,images/simple/17.png,images/simple/3.png,images/simple/4.png,images/simple/1.png,images/simple/15.png,images/simple/8.png","1","null","","200","1975.2749999053776","yes","559.099999954924","","target","",""
"","null","html-keyboard-response","210","474684","0.0-17.0-0.48","SS1604520640613","","null","","","","","","","","","","","","<img src=images/blank.png width =""500"" height = ""500"" style=""border:5px solid black"">","","",""
"","1762.4999999534339","stimulus-presentation","211","476654","0.0-17.0-1.48","SS1604520640613","<img src='images/complex/16.png' width ='500' height = '500' style='border:5px solid black'>","40","mixed_simple_deviant","images/complex/16.png","images/complex/2.png","images/simple/6.png,images/simple/17.png,images/simple/3.png,images/simple/4.png,images/simple/1.png,images/simple/15.png,images/simple/8.png","1","null","","200","1962.4999999534339","yes","497.95499991159886","","target","",""
"[{""page_index"":0,""viewing_time"":5772}]","5772","task-instructions","212","482429","0.0-18.0","SS1604520640613","","","","","","","","","","","","","","","","",""
"[{""page_index"":0,""viewing_time"":3268.7850000802428},{""page_index"":1,""viewing_time"":6608.00999996718},{""page_index"":2,""viewing_time"":1487.9049999872223}]","11364.900000044145","instructions","213","493797","0.0-19.0","SS1604520640613","","","","","","","","","","","","","","","","",""
"","null","html-keyboard-response","214","494750","0.0-20.0-0.0","SS1604520640613","","null","","","","","","","","","","","","<img src=images/blank.png width =""500"" height = ""500"" style=""border:5px solid black"">","","",""
"","3507.85499997437","stimulus-presentation","215","498463","0.0-20.0-1.0","SS1604520640613","<img src='images/simple/2.png' width ='500' height = '500' style='border:5px solid black'>","40","all_simple","images/simple/14.png","images/simple/2.png","images/simple/13.png,images/simple/11.png,images/simple/16.png,images/simple/9.png,images/simple/5.png,images/simple/7.png,images/simple/10.png","2","null","","200","3707.85499997437","","","","background","",""
"","null","html-keyboard-response","216","499468","0.0-20.0-0.1","SS1604520640613","","null","","","","","","","","","","","","<img src=images/blank.png width =""500"" height = ""500"" style=""border:5px solid black"">","","",""
"","671.7599999392405","stimulus-presentation","217","500349","0.0-20.0-1.1","SS1604520640613","<img src='images/simple/2.png' width ='500' height = '500' style='border:5px solid black'>","40","all_simple","images/simple/14.png","images/simple/2.png","images/simple/13.png,images/simple/11.png,images/simple/16.png,images/simple/9.png,images/simple/5.png,images/simple/7.png,images/simple/10.png","2","null","","200","871.7599999392405","","","","background","",""
"","null","html-keyboard-response","218","501221","0.0-20.0-0.2","SS1604520640613","","null","","","","","","","","","","","","<img src=images/blank.png width =""500"" height = ""500"" style=""border:5px solid black"">","","",""
"","188.2700000423938","stimulus-presentation","219","501614","0.0-20.0-1.2","SS1604520640613","<img src='images/simple/2.png' width ='500' height = '500' style='border:5px solid black'>","40","all_simple","images/simple/14.png","images/simple/2.png","images/simple/13.png,images/simple/11.png,images/simple/16.png,images/simple/9.png,images/simple/5.png,images/simple/7.png,images/simple/10.png","2","null","","200","388.2700000423938","","","","background","",""
"","null","html-keyboard-response","220","502741","0.0-20.0-0.3","SS1604520640613","","null","","","","","","","","","","","","<img src=images/blank.png width =""500"" height = ""500"" style=""border:5px solid black"">","","",""
"","267.2749999910593","stimulus-presentation","221","503213","0.0-20.0-1.3","SS1604520640613","<img src='images/simple/2.png' width ='500' height = '500' style='border:5px solid black'>","40","all_simple","images/simple/14.png","images/simple/2.png","images/simple/13.png,images/simple/11.png,images/simple/16.png,images/simple/9.png,images/simple/5.png,images/simple/7.png,images/simple/10.png","2","null","","200","467.2749999910593","","","","background","",""
"","null","html-keyboard-response","222","504182","0.0-20.0-0.4","SS1604520640613","","null","","","","","","","","","","","","<img src=images/blank.png width =""500"" height = ""500"" style=""border:5px solid black"">","","",""
"","199.90500004496425","stimulus-presentation","223","504591","0.0-20.0-1.4","SS1604520640613","<img src='images/simple/2.png' width ='500' height = '500' style='border:5px solid black'>","40","all_simple","images/simple/14.png","images/simple/2.png","images/simple/13.png,images/simple/11.png,images/simple/16.png,images/simple/9.png,images/simple/5.png,images/simple/7.png,images/simple/10.png","2","null","","200","399.90500004496425","","","","background","",""
"","null","html-keyboard-response","224","505856","0.0-20.0-0.5","SS1604520640613","","null","","","","","","","","","","","","<img src=images/blank.png width =""500"" height = ""500"" style=""border:5px solid black"">","","",""
"","1616.0900000249967","stimulus-presentation","225","507677","0.0-20.0-1.5","SS1604520640613","<img src='images/simple/7.png' width ='500' height = '500' style='border:5px solid black'>","40","all_simple","images/simple/14.png","images/simple/2.png","images/simple/13.png,images/simple/11.png,images/simple/16.png,images/simple/9.png,images/simple/5.png,images/simple/7.png,images/simple/10.png","2","null","","200","1816.0900000249967","","","","deviant","",""
"","null","html-keyboard-response","226","508559","0.0-20.0-0.6","SS1604520640613","","null","","","","","","","","","","","","<img src=images/blank.png width =""500"" height = ""500"" style=""border:5px solid black"">","","",""
"","466.9500000309199","stimulus-presentation","227","509230","0.0-20.0-1.6","SS1604520640613","<img src='images/simple/2.png' width ='500' height = '500' style='border:5px solid black'>","40","all_simple","images/simple/14.png","images/simple/2.png","images/simple/13.png,images/simple/11.png,images/simple/16.png,images/simple/9.png,images/simple/5.png,images/simple/7.png,images/simple/10.png","2","null","","200","666.9500000309199","","","","background","",""
"","null","html-keyboard-response","228","510175","0.0-20.0-0.7","SS1604520640613","","null","","","","","","","","","","","","<img src=images/blank.png width =""500"" height = ""500"" style=""border:5px solid black"">","","",""
"","3887.9750000778586","stimulus-presentation","229","514269","0.0-20.0-1.7","SS1604520640613","<img src='images/simple/16.png' width ='500' height = '500' style='border:5px solid black'>","40","all_simple","images/simple/14.png","images/simple/2.png","images/simple/13.png,images/simple/11.png,images/simple/16.png,images/simple/9.png,images/simple/5.png,images/simple/7.png,images/simple/10.png","2","null","","200","4087.9750000778586","","","","deviant","",""
"","null","html-keyboard-response","230","515561","0.0-20.0-0.8","SS1604520640613","","null","","","","","","","","","","","","<img src=images/blank.png width =""500"" height = ""500"" style=""border:5px solid black"">","","",""
"","1302.7100000763312","stimulus-presentation","231","517068","0.0-20.0-1.8","SS1604520640613","<img src='images/simple/14.png' width ='500' height = '500' style='border:5px solid black'>","40","all_simple","images/simple/14.png","images/simple/2.png","images/simple/13.png,images/simple/11.png,images/simple/16.png,images/simple/9.png,images/simple/5.png,images/simple/7.png,images/simple/10.png","2","null","","200","1502.7100000763312","yes","566.5300000691786","","target","",""
"","null","html-keyboard-response","232","518334","0.0-20.0-0.9","SS1604520640613","","null","","","","","","","","","","","","<img src=images/blank.png width =""500"" height = ""500"" style=""border:5px solid black"">","","",""
"","403.2250000163913","stimulus-presentation","233","518942","0.0-20.0-1.9","SS1604520640613","<img src='images/simple/2.png' width ='500' height = '500' style='border:5px solid black'>","40","all_simple","images/simple/14.png","images/simple/2.png","images/simple/13.png,images/simple/11.png,images/simple/16.png,images/simple/9.png,images/simple/5.png,images/simple/7.png,images/simple/10.png","2","null","","200","603.2250000163913","","","","background","",""
"","null","html-keyboard-response","234","520212","0.0-20.0-0.10","SS1604520640613","","null","","","","","","","","","","","","<img src=images/blank.png width =""500"" height = ""500"" style=""border:5px solid black"">","","",""
"","137.69000000320375","stimulus-presentation","235","520556","0.0-20.0-1.10","SS1604520640613","<img src='images/simple/2.png' width ='500' height = '500' style='border:5px solid black'>","40","all_simple","images/simple/14.png","images/simple/2.png","images/simple/13.png,images/simple/11.png,images/simple/16.png,images/simple/9.png,images/simple/5.png,images/simple/7.png,images/simple/10.png","2","null","","200","337.69000000320375","","","","background","",""
"","null","html-keyboard-response","236","521487","0.0-20.0-0.11","SS1604520640613","","null","","","","","","","","","","","","<img src=images/blank.png width =""500"" height = ""500"" style=""border:5px solid black"">","","",""
"","208.74999999068677","stimulus-presentation","237","521901","0.0-20.0-1.11","SS1604520640613","<img src='images/simple/2.png' width ='500' height = '500' style='border:5px solid black'>","40","all_simple","images/simple/14.png","images/simple/2.png","images/simple/13.png,images/simple/11.png,images/simple/16.png,images/simple/9.png,images/simple/5.png,images/simple/7.png,images/simple/10.png","2","null","","200","408.7499999906868","","","","background","",""
"","null","html-keyboard-response","238","523126","0.0-20.0-0.12","SS1604520640613","","null","","","","","","","","","","","","<img src=images/blank.png width =""500"" height = ""500"" style=""border:5px solid black"">","","",""
"","133.05999990552664","stimulus-presentation","239","523468","0.0-20.0-1.12","SS1604520640613","<img src='images/simple/2.png' width ='500' height = '500' style='border:5px solid black'>","40","all_simple","images/simple/14.png","images/simple/2.png","images/simple/13.png,images/simple/11.png,images/simple/16.png,images/simple/9.png,images/simple/5.png,images/simple/7.png,images/simple/10.png","2","null","","200","333.05999990552664","","","","background","",""
"","null","html-keyboard-response","240","524602","0.0-20.0-0.13","SS1604520640613","","null","","","","","","","","","","","","<img src=images/blank.png width =""500"" height = ""500"" style=""border:5px solid black"">","","",""
"","1570.0250000227243","stimulus-presentation","241","526380","0.0-20.0-1.13","SS1604520640613","<img src='images/simple/14.png' width ='500' height = '500' style='border:5px solid black'>","40","all_simple","images/simple/14.png","images/simple/2.png","images/simple/13.png,images/simple/11.png,images/simple/16.png,images/simple/9.png,images/simple/5.png,images/simple/7.png,images/simple/10.png","2","null","","200","1770.0250000227243","yes","754.4850000413135","","target","",""
"","null","html-keyboard-response","242","527591","0.0-20.0-0.14","SS1604520640613","","null","","","","","","","","","","","","<img src=images/blank.png width =""500"" height = ""500"" style=""border:5px solid black"">","","",""
"","456.525000045076","stimulus-presentation","243","528253","0.0-20.0-1.14","SS1604520640613","<img src='images/simple/2.png' width ='500' height = '500' style='border:5px solid black'>","40","all_simple","images/simple/14.png","images/simple/2.png","images/simple/13.png,images/simple/11.png,images/simple/16.png,images/simple/9.png,images/simple/5.png,images/simple/7.png,images/simple/10.png","2","null","","200","656.525000045076","","","","background","",""
"","null","html-keyboard-response","244","529232","0.0-20.0-0.15","SS1604520640613","","null","","","","","","","","","","","","<img src=images/blank.png width =""500"" height = ""500"" style=""border:5px solid black"">","","",""
"","170.93499994371086","stimulus-presentation","245","529611","0.0-20.0-1.15","SS1604520640613","<img src='images/simple/2.png' width ='500' height = '500' style='border:5px solid black'>","40","all_simple","images/simple/14.png","images/simple/2.png","images/simple/13.png,images/simple/11.png,images/simple/16.png,images/simple/9.png,images/simple/5.png,images/simple/7.png,images/simple/10.png","2","null","","200","370.93499994371086","","","","background","",""
"","null","html-keyboard-response","246","530717","0.0-20.0-0.16","SS1604520640613","","null","","","","","","","","","","","","<img src=images/blank.png width =""500"" height = ""500"" style=""border:5px solid black"">","","",""
"","130.88499999139458","stimulus-presentation","247","531053","0.0-20.0-1.16","SS1604520640613","<img src='images/simple/2.png' width ='500' height = '500' style='border:5px solid black'>","40","all_simple","images/simple/14.png","images/simple/2.png","images/simple/13.png,images/simple/11.png,images/simple/16.png,images/simple/9.png,images/simple/5.png,images/simple/7.png,images/simple/10.png","2","null","","200","330.8849999913946","","","","background","",""
"","null","html-keyboard-response","248","532281","0.0-20.0-0.17","SS1604520640613","","null","","","","","","","","","","","","<img src=images/blank.png width =""500"" height = ""500"" style=""border:5px solid black"">","","",""
"","97.79500006698072","stimulus-presentation","249","532587","0.0-20.0-1.17","SS1604520640613","<img src='images/simple/2.png' width ='500' height = '500' style='border:5px solid black'>","40","all_simple","images/simple/14.png","images/simple/2.png","images/simple/13.png,images/simple/11.png,images/simple/16.png,images/simple/9.png,images/simple/5.png,images/simple/7.png,images/simple/10.png","2","null","","200","297.7950000669807","","","","background","",""
"","null","html-keyboard-response","250","533767","0.0-20.0-0.18","SS1604520640613","","null","","","","","","","","","","","","<img src=images/blank.png width =""500"" height = ""500"" style=""border:5px solid black"">","","",""
"","836.5400000475347","stimulus-presentation","251","534813","0.0-20.0-1.18","SS1604520640613","<img src='images/simple/9.png' width ='500' height = '500' style='border:5px solid black'>","40","all_simple","images/simple/14.png","images/simple/2.png","images/simple/13.png,images/simple/11.png,images/simple/16.png,images/simple/9.png,images/simple/5.png,images/simple/7.png,images/simple/10.png","2","null","","200","1036.5400000475347","","","","deviant","",""
"","null","html-keyboard-response","252","535673","0.0-20.0-0.19","SS1604520640613","","null","","","","","","","","","","","","<img src=images/blank.png width =""500"" height = ""500"" style=""border:5px solid black"">","","",""
"","274.65500007383525","stimulus-presentation","253","536156","0.0-20.0-1.19","SS1604520640613","<img src='images/simple/2.png' width ='500' height = '500' style='border:5px solid black'>","40","all_simple","images/simple/14.png","images/simple/2.png","images/simple/13.png,images/simple/11.png,images/simple/16.png,images/simple/9.png,images/simple/5.png,images/simple/7.png,images/simple/10.png","2","null","","200","474.65500007383525","","","","background","",""
"","null","html-keyboard-response","254","537115","0.0-20.0-0.20","SS1604520640613","","null","","","","","","","","","","","","<img src=images/blank.png width =""500"" height = ""500"" style=""border:5px solid black"">","","",""
"","243.10500000137836","stimulus-presentation","255","537565","0.0-20.0-1.20","SS1604520640613","<img src='images/simple/2.png' width ='500' height = '500' style='border:5px solid black'>","40","all_simple","images/simple/14.png","images/simple/2.png","images/simple/13.png,images/simple/11.png,images/simple/16.png,images/simple/9.png,images/simple/5.png,images/simple/7.png,images/simple/10.png","2","null","","200","443.10500000137836","","","","background","",""
"","null","html-keyboard-response","256","538590","0.0-20.0-0.21","SS1604520640613","","null","","","","","","","","","","","","<img src=images/blank.png width =""500"" height = ""500"" style=""border:5px solid black"">","","",""
"","161.9449999416247","stimulus-presentation","257","538955","0.0-20.0-1.21","SS1604520640613","<img src='images/simple/2.png' width ='500' height = '500' style='border:5px solid black'>","40","all_simple","images/simple/14.png","images/simple/2.png","images/simple/13.png,images/simple/11.png,images/simple/16.png,images/simple/9.png,images/simple/5.png,images/simple/7.png,images/simple/10.png","2","null","","200","361.9449999416247","","","","background","",""
"","null","html-keyboard-response","258","540137","0.0-20.0-0.22","SS1604520640613","","null","","","","","","","","","","","","<img src=images/blank.png width =""500"" height = ""500"" style=""border:5px solid black"">","","",""
"","134.99499997124076","stimulus-presentation","259","540477","0.0-20.0-1.22","SS1604520640613","<img src='images/simple/2.png' width ='500' height = '500' style='border:5px solid black'>","40","all_simple","images/simple/14.png","images/simple/2.png","images/simple/13.png,images/simple/11.png,images/simple/16.png,images/simple/9.png,images/simple/5.png,images/simple/7.png,images/simple/10.png","2","null","","200","334.99499997124076","","","","background","",""
"","null","html-keyboard-response","260","541719","0.0-20.0-0.23","SS1604520640613","","null","","","","","","","","","","","","<img src=images/blank.png width =""500"" height = ""500"" style=""border:5px solid black"">","","",""
"","1636.3349999301136","stimulus-presentation","261","543563","0.0-20.0-1.23","SS1604520640613","<img src='images/simple/14.png' width ='500' height = '500' style='border:5px solid black'>","40","all_simple","images/simple/14.png","images/simple/2.png","images/simple/13.png,images/simple/11.png,images/simple/16.png,images/simple/9.png,images/simple/5.png,images/simple/7.png,images/simple/10.png","2","null","","200","1836.3349999301136","yes","564.3299999646842","","target","",""
"","null","html-keyboard-response","262","544563","0.0-20.0-0.24","SS1604520640613","","null","","","","","","","","","","","","<img src=images/blank.png width =""500"" height = ""500"" style=""border:5px solid black"">","","",""
"","3753.209999995306","stimulus-presentation","263","548525","0.0-20.0-1.24","SS1604520640613","<img src='images/simple/5.png' width ='500' height = '500' style='border:5px solid black'>","40","all_simple","images/simple/14.png","images/simple/2.png","images/simple/13.png,images/simple/11.png,images/simple/16.png,images/simple/9.png,images/simple/5.png,images/simple/7.png,images/simple/10.png","2","null","","200","3953.209999995306","","","","deviant","",""
"","null","html-keyboard-response","264","549625","0.0-20.0-0.25","SS1604520640613","","null","","","","","","","","","","","","<img src=images/blank.png width =""500"" height = ""500"" style=""border:5px solid black"">","","",""
"","449.350000009872","stimulus-presentation","265","550282","0.0-20.0-1.25","SS1604520640613","<img src='images/simple/2.png' width ='500' height = '500' style='border:5px solid black'>","40","all_simple","images/simple/14.png","images/simple/2.png","images/simple/13.png,images/simple/11.png,images/simple/16.png,images/simple/9.png,images/simple/5.png,images/simple/7.png,images/simple/10.png","2","null","","200","649.350000009872","","","","background","",""
"","null","html-keyboard-response","266","551486","0.0-20.0-0.26","SS1604520640613","","null","","","","","","","","","","","","<img src=images/blank.png width =""500"" height = ""500"" style=""border:5px solid black"">","","",""
"","141.33999997284263","stimulus-presentation","267","551836","0.0-20.0-1.26","SS1604520640613","<img src='images/simple/2.png' width ='500' height = '500' style='border:5px solid black'>","40","all_simple","images/simple/14.png","images/simple/2.png","images/simple/13.png,images/simple/11.png,images/simple/16.png,images/simple/9.png,images/simple/5.png,images/simple/7.png,images/simple/10.png","2","null","","200","341.33999997284263","","","","background","",""
"","null","html-keyboard-response","268","553087","0.0-20.0-0.27","SS1604520640613","","null","","","","","","","","","","","","<img src=images/blank.png width =""500"" height = ""500"" style=""border:5px solid black"">","","",""
"","655.5250000674278","stimulus-presentation","269","553946","0.0-20.0-1.27","SS1604520640613","<img src='images/simple/13.png' width ='500' height = '500' style='border:5px solid black'>","40","all_simple","images/simple/14.png","images/simple/2.png","images/simple/13.png,images/simple/11.png,images/simple/16.png,images/simple/9.png,images/simple/5.png,images/simple/7.png,images/simple/10.png","2","null","","200","855.5250000674278","","","","deviant","",""
"","null","html-keyboard-response","270","555206","0.0-20.0-0.28","SS1604520640613","","null","","","","","","","","","","","","<img src=images/blank.png width =""500"" height = ""500"" style=""border:5px solid black"">","","",""
"","1828.7400000263005","stimulus-presentation","271","557242","0.0-20.0-1.28","SS1604520640613","<img src='images/simple/14.png' width ='500' height = '500' style='border:5px solid black'>","40","all_simple","images/simple/14.png","images/simple/2.png","images/simple/13.png,images/simple/11.png,images/simple/16.png,images/simple/9.png,images/simple/5.png,images/simple/7.png,images/simple/10.png","2","null","","200","2028.7400000263005","yes","660.7350000413135","","target","",""
"","null","html-keyboard-response","272","558083","0.0-20.0-0.29","SS1604520640613","","null","","","","","","","","","","","","<img src=images/blank.png width =""500"" height = ""500"" style=""border:5px solid black"">","","",""
"","391.7950000613928","stimulus-presentation","273","558684","0.0-20.0-1.29","SS1604520640613","<img src='images/simple/2.png' width ='500' height = '500' style='border:5px solid black'>","40","all_simple","images/simple/14.png","images/simple/2.png","images/simple/13.png,images/simple/11.png,images/simple/16.png,images/simple/9.png,images/simple/5.png,images/simple/7.png,images/simple/10.png","2","null","","200","591.7950000613928","","","","background","",""
"","null","html-keyboard-response","274","559610","0.0-20.0-0.30","SS1604520640613","","null","","","","","","","","","","","","<img src=images/blank.png width =""500"" height = ""500"" style=""border:5px solid black"">","","",""
"","162.0850000763312","stimulus-presentation","275","559978","0.0-20.0-1.30","SS1604520640613","<img src='images/simple/2.png' width ='500' height = '500' style='border:5px solid black'>","40","all_simple","images/simple/14.png","images/simple/2.png","images/simple/13.png,images/simple/11.png,images/simple/16.png,images/simple/9.png,images/simple/5.png,images/simple/7.png,images/simple/10.png","2","null","","200","362.0850000763312","","","","background","",""
"","null","html-keyboard-response","276","560856","0.0-20.0-0.31","SS1604520640613","","null","","","","","","","","","","","","<img src=images/blank.png width =""500"" height = ""500"" style=""border:5px solid black"">","","",""
"","149.80500005185604","stimulus-presentation","277","561212","0.0-20.0-1.31","SS1604520640613","<img src='images/simple/2.png' width ='500' height = '500' style='border:5px solid black'>","40","all_simple","images/simple/14.png","images/simple/2.png","images/simple/13.png,images/simple/11.png,images/simple/16.png,images/simple/9.png,images/simple/5.png,images/simple/7.png,images/simple/10.png","2","null","","200","349.80500005185604","","","","background","",""
"","null","html-keyboard-response","278","562388","0.0-20.0-0.32","SS1604520640613","","null","","","","","","","","","","","","<img src=images/blank.png width =""500"" height = ""500"" style=""border:5px solid black"">","","",""
"","117.6899999845773","stimulus-presentation","279","562714","0.0-20.0-1.32","SS1604520640613","<img src='images/simple/2.png' width ='500' height = '500' style='border:5px solid black'>","40","all_simple","images/simple/14.png","images/simple/2.png","images/simple/13.png,images/simple/11.png,images/simple/16.png,images/simple/9.png,images/simple/5.png,images/simple/7.png,images/simple/10.png","2","null","","200","317.6899999845773","","","","background","",""
"","null","html-keyboard-response","280","563838","0.0-20.0-0.33","SS1604520640613","","null","","","","","","","","","","","","<img src=images/blank.png width =""500"" height = ""500"" style=""border:5px solid black"">","","",""
"","124.34500001836568","stimulus-presentation","281","564171","0.0-20.0-1.33","SS1604520640613","<img src='images/simple/2.png' width ='500' height = '500' style='border:5px solid black'>","40","all_simple","images/simple/14.png","images/simple/2.png","images/simple/13.png,images/simple/11.png,images/simple/16.png,images/simple/9.png,images/simple/5.png,images/simple/7.png,images/simple/10.png","2","null","","200","324.3450000183657","","","","background","",""
"","null","html-keyboard-response","282","565000","0.0-20.0-0.34","SS1604520640613","","null","","","","","","","","","","","","<img src=images/blank.png width =""500"" height = ""500"" style=""border:5px solid black"">","","",""
"","242.02499992679805","stimulus-presentation","283","565450","0.0-20.0-1.34","SS1604520640613","<img src='images/simple/2.png' width ='500' height = '500' style='border:5px solid black'>","40","all_simple","images/simple/14.png","images/simple/2.png","images/simple/13.png,images/simple/11.png,images/simple/16.png,images/simple/9.png,images/simple/5.png,images/simple/7.png,images/simple/10.png","2","null","","200","442.02499992679805","","","","background","",""
