"view_history","rt","trial_type","trial_index","time_elapsed","internal_node_id","subject","trial_stimulus","key_press","task_type","task_target_stimulus","task_background_stimulus","task_deviant_stimuli","task_order_number","block_order_number","trial_order_number","minimum_viewing_duration","trial_looking_time","trial_pressed_space_bar","trial_space_bar_rt","stimulus","trial_stimulus_type","responses","question_order"
"[{""page_index"":0,""viewing_time"":19031.829999759793}]","19033.079999964684","instructions","0","19162","0.0-0.0","SS1604589276116","","","","","","","","","","","","","","","","",""
"[{""page_index"":0,""viewing_time"":10373.62500000745},{""page_index"":1,""viewing_time"":12981.415000278503},{""page_index"":2,""viewing_time"":1659.239999949932},{""page_index"":3,""viewing_time"":12225.03999993205},{""page_index"":4,""viewing_time"":8194.099999964237},{""page_index"":5,""viewing_time"":2952.959999907762},{""page_index"":6,""viewing_time"":2182.014999911189},{""page_index"":7,""viewing_time"":2858.9699999429286},{""page_index"":8,""viewing_time"":2050.040000118315}]","55477.925000246614","instructions","1","74645","0.0-1.0","SS1604589276116","","","","","","","","","","","","","","","","",""
"[{""page_index"":0,""viewing_time"":3055.5449998937547},{""page_index"":1,""viewing_time"":9872.73500021547},{""page_index"":2,""viewing_time"":6067.684999667108}]","18996.2349999696","instructions","2","93644","0.0-2.0","SS1604589276116","","","","","","","","","","","","","","","","",""
"","19328.04000005126","practice-block","3","113282","0.0-3.0","SS1604589276116","<img src='images/practice/practice_background.jpeg' width ='500' height = '500' style='border:5px solid black'>","40","null","images/practice/practice_target.jpg","null","null","null","null","","200","19528.04000005126","yes","10147.044999990612","","","",""
"","null","html-keyboard-response","4","114332","0.0-4.0","SS1604589276116","","null","","","","","","","","","","","","<img src=images/blank.png width =""500"" height = ""500"" style=""border:5px solid black"">","","",""
"","1270.3650002367795","practice-block","5","115806","0.0-5.0","SS1604589276116","<img src='images/practice/practice_background.jpeg' width ='500' height = '500' style='border:5px solid black'>","40","null","images/practice/practice_target.jpg","null","null","null","null","","200","1470.3650002367795","","","","","",""
"","null","html-keyboard-response","6","116936","0.0-6.0","SS1604589276116","","null","","","","","","","","","","","","<img src=images/blank.png width =""500"" height = ""500"" style=""border:5px solid black"">","","",""
"","1335.7449998147786","practice-block","7","118475","0.0-7.0","SS1604589276116","<img src='images/practice/practice_deviant.jpeg' width ='500' height = '500' style='border:5px solid black'>","40","null","images/practice/practice_target.jpg","null","null","null","null","","200","1535.7449998147786","","","","","",""
"","null","html-keyboard-response","8","119353","0.0-8.0","SS1604589276116","","null","","","","","","","","","","","","<img src=images/blank.png width =""500"" height = ""500"" style=""border:5px solid black"">","","",""
"","1289.5750002935529","practice-block","9","125127","0.0-9.0-0.0","SS1604589276116","<img src='images/practice/practice_target.jpg' width ='500' height = '500' style='border:5px solid black'>","40","null","images/practice/practice_target.jpg","null","null","null","null","","200","1489.5750002935529","","","","","",""
"","21740.719999652356","practice-block","10","147073","0.0-9.1-0.1","SS1604589276116","<img src='images/practice/practice_target.jpg' width ='500' height = '500' style='border:5px solid black'>","40","null","images/practice/practice_target.jpg","null","null","null","null","","200","21940.719999652356","yes","927.8949997387826","","","",""
"","null","html-keyboard-response","11","147944","0.0-10.0","SS1604589276116","","null","","","","","","","","","","","","<img src=images/blank.png width =""500"" height = ""500"" style=""border:5px solid black"">","","",""
"","1229.684999678284","practice-block","12","149378","0.0-11.0","SS1604589276116","<img src='images/practice/practice_background.jpeg' width ='500' height = '500' style='border:5px solid black'>","40","null","images/practice/practice_target.jpg","null","null","null","null","","200","1429.684999678284","","","","","",""
"[{""page_index"":0,""viewing_time"":3271}]","3271","task-instructions","13","152652","0.0-12.0","SS1604589276116","","","","","","","","","","","","","","","","",""
"[{""page_index"":0,""viewing_time"":7209.519999567419},{""page_index"":1,""viewing_time"":10278.365000151098},{""page_index"":2,""viewing_time"":2433.4849999286234}]","19921.969999559224","instructions","14","172575","0.0-13.0","SS1604589276116","","","","","","","","","","","","","","","","",""
"","null","html-keyboard-response","15","173522","0.0-14.0-0.0","SS1604589276116","","null","","","","","","","","","","","","<img src=images/blank.png width =""500"" height = ""500"" style=""border:5px solid black"">","","",""
"","1451.8999997526407","stimulus-presentation","16","175251","0.0-14.0-1.0","SS1604589276116","<img src='images/simple/7.png' width ='500' height = '500' style='border:5px solid black'>","40","mixed_complex_deviant","images/simple/5.png","images/simple/7.png","images/complex/4.png,images/complex/2.png,images/complex/12.png,images/complex/13.png,images/complex/14.png,images/complex/8.png,images/complex/17.png","0","null","","200","1651.8999997526407","","","","background","",""
"","null","html-keyboard-response","17","176336","0.0-14.0-0.1","SS1604589276116","","null","","","","","","","","","","","","<img src=images/blank.png width =""500"" height = ""500"" style=""border:5px solid black"">","","",""
"","560.4199999943376","stimulus-presentation","18","177132","0.0-14.0-1.1","SS1604589276116","<img src='images/simple/7.png' width ='500' height = '500' style='border:5px solid black'>","40","mixed_complex_deviant","images/simple/5.png","images/simple/7.png","images/complex/4.png,images/complex/2.png,images/complex/12.png,images/complex/13.png,images/complex/14.png,images/complex/8.png,images/complex/17.png","0","null","","200","760.4199999943376","","","","background","",""
"","null","html-keyboard-response","19","178388","0.0-14.0-0.2","SS1604589276116","","null","","","","","","","","","","","","<img src=images/blank.png width =""500"" height = ""500"" style=""border:5px solid black"">","","",""
"","950.7249998860061","stimulus-presentation","20","179556","0.0-14.0-1.2","SS1604589276116","<img src='images/complex/8.png' width ='500' height = '500' style='border:5px solid black'>","40","mixed_complex_deviant","images/simple/5.png","images/simple/7.png","images/complex/4.png,images/complex/2.png,images/complex/12.png,images/complex/13.png,images/complex/14.png,images/complex/8.png,images/complex/17.png","0","null","","200","1150.7249998860061","","","","deviant","",""
"","null","html-keyboard-response","21","180653","0.0-14.0-0.3","SS1604589276116","","null","","","","","","","","","","","","<img src=images/blank.png width =""500"" height = ""500"" style=""border:5px solid black"">","","",""
"","11980.0999998115","stimulus-presentation","22","193004","0.0-14.0-1.3","SS1604589276116","<img src='images/simple/7.png' width ='500' height = '500' style='border:5px solid black'>","40","mixed_complex_deviant","images/simple/5.png","images/simple/7.png","images/complex/4.png,images/complex/2.png,images/complex/12.png,images/complex/13.png,images/complex/14.png,images/complex/8.png,images/complex/17.png","0","null","","200","12180.0999998115","yes","812.1449998579919","","background","",""
"","null","html-keyboard-response","23","196248","0.0-14.0-0.4","SS1604589276116","","null","","","","","","","","","","","","<img src=images/blank.png width =""500"" height = ""500"" style=""border:5px solid black"">","","",""
"","5529.455000068992","stimulus-presentation","24","207455","0.0-14.0-1.4","SS1604589276116","<img src='images/simple/5.png' width ='500' height = '500' style='border:5px solid black'>","40","mixed_complex_deviant","images/simple/5.png","images/simple/7.png","images/complex/4.png,images/complex/2.png,images/complex/12.png,images/complex/13.png,images/complex/14.png,images/complex/8.png,images/complex/17.png","0","null","","200","5729.455000068992","yes","4453.4200001508","","target","",""
"","null","html-keyboard-response","25","208259","0.0-14.0-0.5","SS1604589276116","","null","","","","","","","","","","","","<img src=images/blank.png width =""500"" height = ""500"" style=""border:5px solid black"">","","",""
"","1916.135000064969","stimulus-presentation","26","210380","0.0-14.0-1.5","SS1604589276116","<img src='images/complex/2.png' width ='500' height = '500' style='border:5px solid black'>","40","mixed_complex_deviant","images/simple/5.png","images/simple/7.png","images/complex/4.png,images/complex/2.png,images/complex/12.png,images/complex/13.png,images/complex/14.png,images/complex/8.png,images/complex/17.png","0","null","","200","2116.135000064969","","","","deviant","",""
"","null","html-keyboard-response","27","211489","0.0-14.0-0.6","SS1604589276116","","null","","","","","","","","","","","","<img src=images/blank.png width =""500"" height = ""500"" style=""border:5px solid black"">","","",""
"","209.6400000154972","stimulus-presentation","28","211914","0.0-14.0-1.6","SS1604589276116","<img src='images/simple/7.png' width ='500' height = '500' style='border:5px solid black'>","40","mixed_complex_deviant","images/simple/5.png","images/simple/7.png","images/complex/4.png,images/complex/2.png,images/complex/12.png,images/complex/13.png,images/complex/14.png,images/complex/8.png,images/complex/17.png","0","null","","200","409.6400000154972","","","","background","",""
"","null","html-keyboard-response","29","212744","0.0-14.0-0.7","SS1604589276116","","null","","","","","","","","","","","","<img src=images/blank.png width =""500"" height = ""500"" style=""border:5px solid black"">","","",""
"","9511.460000183433","stimulus-presentation","30","222460","0.0-14.0-1.7","SS1604589276116","<img src='images/simple/5.png' width ='500' height = '500' style='border:5px solid black'>","40","mixed_complex_deviant","images/simple/5.png","images/simple/7.png","images/complex/4.png,images/complex/2.png,images/complex/12.png,images/complex/13.png,images/complex/14.png,images/complex/8.png,images/complex/17.png","0","null","","200","9711.460000183433","yes","4047.250000294298","","target","",""
"","null","html-keyboard-response","31","223392","0.0-14.0-0.8","SS1604589276116","","null","","","","","","","","","","","","<img src=images/blank.png width =""500"" height = ""500"" style=""border:5px solid black"">","","",""
"","8543.84500021115","stimulus-presentation","32","232140","0.0-14.0-1.8","SS1604589276116","<img src='images/simple/7.png' width ='500' height = '500' style='border:5px solid black'>","40","mixed_complex_deviant","images/simple/5.png","images/simple/7.png","images/complex/4.png,images/complex/2.png,images/complex/12.png,images/complex/13.png,images/complex/14.png,images/complex/8.png,images/complex/17.png","0","null","","200","8743.84500021115","yes","2439.9899998679757","","background","",""
"","null","html-keyboard-response","33","233334","0.0-14.0-0.9","SS1604589276116","","null","","","","","","","","","","","","<img src=images/blank.png width =""500"" height = ""500"" style=""border:5px solid black"">","","",""
"","4553.700000047684","stimulus-presentation","34","238093","0.0-14.0-1.9","SS1604589276116","<img src='images/simple/7.png' width ='500' height = '500' style='border:5px solid black'>","40","mixed_complex_deviant","images/simple/5.png","images/simple/7.png","images/complex/4.png,images/complex/2.png,images/complex/12.png,images/complex/13.png,images/complex/14.png,images/complex/8.png,images/complex/17.png","0","null","","200","4753.700000047684","yes","1344.3149998784065","","background","",""
"","null","html-keyboard-response","35","239004","0.0-14.0-0.10","SS1604589276116","","null","","","","","","","","","","","","<img src=images/blank.png width =""500"" height = ""500"" style=""border:5px solid black"">","","",""
"","9732.455000281334","stimulus-presentation","36","248941","0.0-14.0-1.10","SS1604589276116","<img src='images/simple/5.png' width ='500' height = '500' style='border:5px solid black'>","40","mixed_complex_deviant","images/simple/5.png","images/simple/7.png","images/complex/4.png,images/complex/2.png,images/complex/12.png,images/complex/13.png,images/complex/14.png,images/complex/8.png,images/complex/17.png","0","null","","200","9932.455000281334","yes","2928.0050001107156","","target","",""
"","null","html-keyboard-response","37","249794","0.0-14.0-0.11","SS1604589276116","","null","","","","","","","","","","","","<img src=images/blank.png width =""500"" height = ""500"" style=""border:5px solid black"">","","",""
"","4696.109999902546","stimulus-presentation","38","254705","0.0-14.0-1.11","SS1604589276116","<img src='images/simple/7.png' width ='500' height = '500' style='border:5px solid black'>","40","mixed_complex_deviant","images/simple/5.png","images/simple/7.png","images/complex/4.png,images/complex/2.png,images/complex/12.png,images/complex/13.png,images/complex/14.png,images/complex/8.png,images/complex/17.png","0","null","","200","4896.109999902546","yes","927.6950000785291","","background","",""
"","null","html-keyboard-response","39","255813","0.0-14.0-0.12","SS1604589276116","","null","","","","","","","","","","","","<img src=images/blank.png width =""500"" height = ""500"" style=""border:5px solid black"">","","",""
"","5115.569999907166","stimulus-presentation","40","261134","0.0-14.0-1.12","SS1604589276116","<img src='images/simple/7.png' width ='500' height = '500' style='border:5px solid black'>","40","mixed_complex_deviant","images/simple/5.png","images/simple/7.png","images/complex/4.png,images/complex/2.png,images/complex/12.png,images/complex/13.png,images/complex/14.png,images/complex/8.png,images/complex/17.png","0","null","","200","5315.569999907166","","","","background","",""
"","null","html-keyboard-response","41","262083","0.0-14.0-0.13","SS1604589276116","","null","","","","","","","","","","","","<img src=images/blank.png width =""500"" height = ""500"" style=""border:5px solid black"">","","",""
"","2148.229999933392","stimulus-presentation","42","264436","0.0-14.0-1.13","SS1604589276116","<img src='images/complex/4.png' width ='500' height = '500' style='border:5px solid black'>","40","mixed_complex_deviant","images/simple/5.png","images/simple/7.png","images/complex/4.png,images/complex/2.png,images/complex/12.png,images/complex/13.png,images/complex/14.png,images/complex/8.png,images/complex/17.png","0","null","","200","2348.229999933392","","","","deviant","",""
"","null","html-keyboard-response","43","265657","0.0-14.0-0.14","SS1604589276116","","null","","","","","","","","","","","","<img src=images/blank.png width =""500"" height = ""500"" style=""border:5px solid black"">","","",""
"","5087.495000101626","stimulus-presentation","44","270949","0.0-14.0-1.14","SS1604589276116","<img src='images/simple/5.png' width ='500' height = '500' style='border:5px solid black'>","40","mixed_complex_deviant","images/simple/5.png","images/simple/7.png","images/complex/4.png,images/complex/2.png,images/complex/12.png,images/complex/13.png,images/complex/14.png,images/complex/8.png,images/complex/17.png","0","null","","200","5287.495000101626","yes","1901.0649998672307","","target","",""
"","null","html-keyboard-response","45","271988","0.0-14.0-0.15","SS1604589276116","","null","","","","","","","","","","","","<img src=images/blank.png width =""500"" height = ""500"" style=""border:5px solid black"">","","",""
"","6480.874999891967","stimulus-presentation","46","278696","0.0-14.0-1.15","SS1604589276116","<img src='images/simple/7.png' width ='500' height = '500' style='border:5px solid black'>","40","mixed_complex_deviant","images/simple/5.png","images/simple/7.png","images/complex/4.png,images/complex/2.png,images/complex/12.png,images/complex/13.png,images/complex/14.png,images/complex/8.png,images/complex/17.png","0","null","","200","6680.874999891967","yes","1075.6949996575713","","background","",""
"","null","html-keyboard-response","47","279794","0.0-14.0-0.16","SS1604589276116","","null","","","","","","","","","","","","<img src=images/blank.png width =""500"" height = ""500"" style=""border:5px solid black"">","","",""
"","3534.6500002779067","stimulus-presentation","48","283542","0.0-14.0-1.16","SS1604589276116","<img src='images/simple/7.png' width ='500' height = '500' style='border:5px solid black'>","40","mixed_complex_deviant","images/simple/5.png","images/simple/7.png","images/complex/4.png,images/complex/2.png,images/complex/12.png,images/complex/13.png,images/complex/14.png,images/complex/8.png,images/complex/17.png","0","null","","200","3734.6500002779067","yes","1148.744999896735","","background","",""
"","null","html-keyboard-response","49","284676","0.0-14.0-0.17","SS1604589276116","","null","","","","","","","","","","","","<img src=images/blank.png width =""500"" height = ""500"" style=""border:5px solid black"">","","",""
"","2784.715000074357","stimulus-presentation","50","287682","0.0-14.0-1.17","SS1604589276116","<img src='images/simple/7.png' width ='500' height = '500' style='border:5px solid black'>","40","mixed_complex_deviant","images/simple/5.png","images/simple/7.png","images/complex/4.png,images/complex/2.png,images/complex/12.png,images/complex/13.png,images/complex/14.png,images/complex/8.png,images/complex/17.png","0","null","","200","2984.715000074357","yes","1227.2800002247095","","background","",""
"","null","html-keyboard-response","51","288859","0.0-14.0-0.18","SS1604589276116","","null","","","","","","","","","","","","<img src=images/blank.png width =""500"" height = ""500"" style=""border:5px solid black"">","","",""
"","829.2349996045232","stimulus-presentation","52","290098","0.0-14.0-1.18","SS1604589276116","<img src='images/simple/7.png' width ='500' height = '500' style='border:5px solid black'>","40","mixed_complex_deviant","images/simple/5.png","images/simple/7.png","images/complex/4.png,images/complex/2.png,images/complex/12.png,images/complex/13.png,images/complex/14.png,images/complex/8.png,images/complex/17.png","0","null","","200","1029.2349996045232","","","","background","",""
"","null","html-keyboard-response","53","291823","0.0-14.0-0.19","SS1604589276116","","null","","","","","","","","","","","","<img src=images/blank.png width =""500"" height = ""500"" style=""border:5px solid black"">","","",""
"","2305.790000129491","stimulus-presentation","54","294391","0.0-14.0-1.19","SS1604589276116","<img src='images/complex/17.png' width ='500' height = '500' style='border:5px solid black'>","40","mixed_complex_deviant","images/simple/5.png","images/simple/7.png","images/complex/4.png,images/complex/2.png,images/complex/12.png,images/complex/13.png,images/complex/14.png,images/complex/8.png,images/complex/17.png","0","null","","200","2505.790000129491","","","","deviant","",""
"","null","html-keyboard-response","55","295632","0.0-14.0-0.20","SS1604589276116","","null","","","","","","","","","","","","<img src=images/blank.png width =""500"" height = ""500"" style=""border:5px solid black"">","","",""
"","2359.71499979496","stimulus-presentation","56","298199","0.0-14.0-1.20","SS1604589276116","<img src='images/simple/5.png' width ='500' height = '500' style='border:5px solid black'>","40","mixed_complex_deviant","images/simple/5.png","images/simple/7.png","images/complex/4.png,images/complex/2.png,images/complex/12.png,images/complex/13.png,images/complex/14.png,images/complex/8.png,images/complex/17.png","0","null","","200","2559.71499979496","yes","803.1449997797608","","target","",""
"","null","html-keyboard-response","57","299389","0.0-14.0-0.21","SS1604589276116","","null","","","","","","","","","","","","<img src=images/blank.png width =""500"" height = ""500"" style=""border:5px solid black"">","","",""
"","865.1650003157556","stimulus-presentation","58","300566","0.0-14.0-1.21","SS1604589276116","<img src='images/simple/7.png' width ='500' height = '500' style='border:5px solid black'>","40","mixed_complex_deviant","images/simple/5.png","images/simple/7.png","images/complex/4.png,images/complex/2.png,images/complex/12.png,images/complex/13.png,images/complex/14.png,images/complex/8.png,images/complex/17.png","0","null","","200","1065.1650003157556","","","","background","",""
"","null","html-keyboard-response","59","301821","0.0-14.0-0.22","SS1604589276116","","null","","","","","","","","","","","","<img src=images/blank.png width =""500"" height = ""500"" style=""border:5px solid black"">","","",""
"","372.46999982744455","stimulus-presentation","60","302559","0.0-14.0-1.22","SS1604589276116","<img src='images/simple/7.png' width ='500' height = '500' style='border:5px solid black'>","40","mixed_complex_deviant","images/simple/5.png","images/simple/7.png","images/complex/4.png,images/complex/2.png,images/complex/12.png,images/complex/13.png,images/complex/14.png,images/complex/8.png,images/complex/17.png","0","null","","200","572.4699998274446","","","","background","",""
"","null","html-keyboard-response","61","303994","0.0-14.0-0.23","SS1604589276116","","null","","","","","","","","","","","","<img src=images/blank.png width =""500"" height = ""500"" style=""border:5px solid black"">","","",""
"","228.41499978676438","stimulus-presentation","62","304973","0.0-14.0-1.23","SS1604589276116","<img src='images/simple/7.png' width ='500' height = '500' style='border:5px solid black'>","40","mixed_complex_deviant","images/simple/5.png","images/simple/7.png","images/complex/4.png,images/complex/2.png,images/complex/12.png,images/complex/13.png,images/complex/14.png,images/complex/8.png,images/complex/17.png","0","null","","200","428.4149997867644","","","","background","",""
"","null","html-keyboard-response","63","306212","0.0-14.0-0.24","SS1604589276116","","null","","","","","","","","","","","","<img src=images/blank.png width =""500"" height = ""500"" style=""border:5px solid black"">","","",""
"","4031.8199996836483","stimulus-presentation","64","310604","0.0-14.0-1.24","SS1604589276116","<img src='images/simple/5.png' width ='500' height = '500' style='border:5px solid black'>","40","mixed_complex_deviant","images/simple/5.png","images/simple/7.png","images/complex/4.png,images/complex/2.png,images/complex/12.png,images/complex/13.png,images/complex/14.png,images/complex/8.png,images/complex/17.png","0","null","","200","4231.819999683648","yes","445.27000002563","","target","",""
"","null","html-keyboard-response","65","311594","0.0-14.0-0.25","SS1604589276116","","null","","","","","","","","","","","","<img src=images/blank.png width =""500"" height = ""500"" style=""border:5px solid black"">","","",""
"","615.0099998340011","stimulus-presentation","66","312477","0.0-14.0-1.25","SS1604589276116","<img src='images/simple/7.png' width ='500' height = '500' style='border:5px solid black'>","40","mixed_complex_deviant","images/simple/5.png","images/simple/7.png","images/complex/4.png,images/complex/2.png,images/complex/12.png,images/complex/13.png,images/complex/14.png,images/complex/8.png,images/complex/17.png","0","null","","200","815.0099998340011","","","","background","",""
"","null","html-keyboard-response","67","313767","0.0-14.0-0.26","SS1604589276116","","null","","","","","","","","","","","","<img src=images/blank.png width =""500"" height = ""500"" style=""border:5px solid black"">","","",""
"","496.7049998231232","stimulus-presentation","68","314499","0.0-14.0-1.26","SS1604589276116","<img src='images/simple/7.png' width ='500' height = '500' style='border:5px solid black'>","40","mixed_complex_deviant","images/simple/5.png","images/simple/7.png","images/complex/4.png,images/complex/2.png,images/complex/12.png,images/complex/13.png,images/complex/14.png,images/complex/8.png,images/complex/17.png","0","null","","200","696.7049998231232","","","","background","",""
"","null","html-keyboard-response","69","315782","0.0-14.0-0.27","SS1604589276116","","null","","","","","","","","","","","","<img src=images/blank.png width =""500"" height = ""500"" style=""border:5px solid black"">","","",""
"","439.78000013157725","stimulus-presentation","70","316459","0.0-14.0-1.27","SS1604589276116","<img src='images/simple/7.png' width ='500' height = '500' style='border:5px solid black'>","40","mixed_complex_deviant","images/simple/5.png","images/simple/7.png","images/complex/4.png,images/complex/2.png,images/complex/12.png,images/complex/13.png,images/complex/14.png,images/complex/8.png,images/complex/17.png","0","null","","200","639.7800001315773","","","","background","",""
"","null","html-keyboard-response","71","317593","0.0-14.0-0.28","SS1604589276116","","null","","","","","","","","","","","","<img src=images/blank.png width =""500"" height = ""500"" style=""border:5px solid black"">","","",""
"","482.11999982595444","stimulus-presentation","72","318318","0.0-14.0-1.28","SS1604589276116","<img src='images/simple/7.png' width ='500' height = '500' style='border:5px solid black'>","40","mixed_complex_deviant","images/simple/5.png","images/simple/7.png","images/complex/4.png,images/complex/2.png,images/complex/12.png,images/complex/13.png,images/complex/14.png,images/complex/8.png,images/complex/17.png","0","null","","200","682.1199998259544","","","","background","",""
"","null","html-keyboard-response","73","319307","0.0-14.0-0.29","SS1604589276116","","null","","","","","","","","","","","","<img src=images/blank.png width =""500"" height = ""500"" style=""border:5px solid black"">","","",""
"","1961.515000090003","stimulus-presentation","74","321492","0.0-14.0-1.29","SS1604589276116","<img src='images/simple/5.png' width ='500' height = '500' style='border:5px solid black'>","40","mixed_complex_deviant","images/simple/5.png","images/simple/7.png","images/complex/4.png,images/complex/2.png,images/complex/12.png,images/complex/13.png,images/complex/14.png,images/complex/8.png,images/complex/17.png","0","null","","200","2161.515000090003","yes","590.8049996942282","","target","",""
"","null","html-keyboard-response","75","322351","0.0-14.0-0.30","SS1604589276116","","null","","","","","","","","","","","","<img src=images/blank.png width =""500"" height = ""500"" style=""border:5px solid black"">","","",""
"","619.524999987334","stimulus-presentation","76","323241","0.0-14.0-1.30","SS1604589276116","<img src='images/simple/7.png' width ='500' height = '500' style='border:5px solid black'>","40","mixed_complex_deviant","images/simple/5.png","images/simple/7.png","images/complex/4.png,images/complex/2.png,images/complex/12.png,images/complex/13.png,images/complex/14.png,images/complex/8.png,images/complex/17.png","0","null","","200","819.524999987334","","","","background","",""
"","null","html-keyboard-response","77","324350","0.0-14.0-0.31","SS1604589276116","","null","","","","","","","","","","","","<img src=images/blank.png width =""500"" height = ""500"" style=""border:5px solid black"">","","",""
"","412.21999982371926","stimulus-presentation","78","324994","0.0-14.0-1.31","SS1604589276116","<img src='images/simple/7.png' width ='500' height = '500' style='border:5px solid black'>","40","mixed_complex_deviant","images/simple/5.png","images/simple/7.png","images/complex/4.png,images/complex/2.png,images/complex/12.png,images/complex/13.png,images/complex/14.png,images/complex/8.png,images/complex/17.png","0","null","","200","612.2199998237193","","","","background","",""
"","null","html-keyboard-response","79","325993","0.0-14.0-0.32","SS1604589276116","","null","","","","","","","","","","","","<img src=images/blank.png width =""500"" height = ""500"" style=""border:5px solid black"">","","",""
"","854.9249996431172","stimulus-presentation","80","327089","0.0-14.0-1.32","SS1604589276116","<img src='images/complex/14.png' width ='500' height = '500' style='border:5px solid black'>","40","mixed_complex_deviant","images/simple/5.png","images/simple/7.png","images/complex/4.png,images/complex/2.png,images/complex/12.png,images/complex/13.png,images/complex/14.png,images/complex/8.png,images/complex/17.png","0","null","","200","1054.9249996431172","","","","deviant","",""
"","null","html-keyboard-response","81","328040","0.0-14.0-0.33","SS1604589276116","","null","","","","","","","","","","","","<img src=images/blank.png width =""500"" height = ""500"" style=""border:5px solid black"">","","",""
"","687.2499999590218","stimulus-presentation","82","328998","0.0-14.0-1.33","SS1604589276116","<img src='images/simple/7.png' width ='500' height = '500' style='border:5px solid black'>","40","mixed_complex_deviant","images/simple/5.png","images/simple/7.png","images/complex/4.png,images/complex/2.png,images/complex/12.png,images/complex/13.png,images/complex/14.png,images/complex/8.png,images/complex/17.png","0","null","","200","887.2499999590218","","","","background","",""
"","null","html-keyboard-response","83","330303","0.0-14.0-0.34","SS1604589276116","","null","","","","","","","","","","","","<img src=images/blank.png width =""500"" height = ""500"" style=""border:5px solid black"">","","",""
"","412.8700001165271","stimulus-presentation","84","330968","0.0-14.0-1.34","SS1604589276116","<img src='images/simple/7.png' width ='500' height = '500' style='border:5px solid black'>","40","mixed_complex_deviant","images/simple/5.png","images/simple/7.png","images/complex/4.png,images/complex/2.png,images/complex/12.png,images/complex/13.png,images/complex/14.png,images/complex/8.png,images/complex/17.png","0","null","","200","612.8700001165271","","","","background","",""
"","null","html-keyboard-response","85","331844","0.0-14.0-0.35","SS1604589276116","","null","","","","","","","","","","","","<img src=images/blank.png width =""500"" height = ""500"" style=""border:5px solid black"">","","",""
"","543.7099998816848","stimulus-presentation","86","332603","0.0-14.0-1.35","SS1604589276116","<img src='images/simple/7.png' width ='500' height = '500' style='border:5px solid black'>","40","mixed_complex_deviant","images/simple/5.png","images/simple/7.png","images/complex/4.png,images/complex/2.png,images/complex/12.png,images/complex/13.png,images/complex/14.png,images/complex/8.png,images/complex/17.png","0","null","","200","743.7099998816848","","","","background","",""
"","null","html-keyboard-response","87","333746","0.0-14.0-0.36","SS1604589276116","","null","","","","","","","","","","","","<img src=images/blank.png width =""500"" height = ""500"" style=""border:5px solid black"">","","",""
"","453.5199999809265","stimulus-presentation","88","334467","0.0-14.0-1.36","SS1604589276116","<img src='images/simple/7.png' width ='500' height = '500' style='border:5px solid black'>","40","mixed_complex_deviant","images/simple/5.png","images/simple/7.png","images/complex/4.png,images/complex/2.png,images/complex/12.png,images/complex/13.png,images/complex/14.png,images/complex/8.png,images/complex/17.png","0","null","","200","653.5199999809265","","","","background","",""
"","null","html-keyboard-response","89","335545","0.0-14.0-0.37","SS1604589276116","","null","","","","","","","","","","","","<img src=images/blank.png width =""500"" height = ""500"" style=""border:5px solid black"">","","",""
"","776.7549999989569","stimulus-presentation","90","336543","0.0-14.0-1.37","SS1604589276116","<img src='images/complex/12.png' width ='500' height = '500' style='border:5px solid black'>","40","mixed_complex_deviant","images/simple/5.png","images/simple/7.png","images/complex/4.png,images/complex/2.png,images/complex/12.png,images/complex/13.png,images/complex/14.png,images/complex/8.png,images/complex/17.png","0","null","","200","976.7549999989569","","","","deviant","",""
"","null","html-keyboard-response","91","337685","0.0-14.0-0.38","SS1604589276116","","null","","","","","","","","","","","","<img src=images/blank.png width =""500"" height = ""500"" style=""border:5px solid black"">","","",""
"","472.54500025883317","stimulus-presentation","92","338405","0.0-14.0-1.38","SS1604589276116","<img src='images/simple/7.png' width ='500' height = '500' style='border:5px solid black'>","40","mixed_complex_deviant","images/simple/5.png","images/simple/7.png","images/complex/4.png,images/complex/2.png,images/complex/12.png,images/complex/13.png,images/complex/14.png,images/complex/8.png,images/complex/17.png","0","null","","200","672.5450002588332","","","","background","",""
"","null","html-keyboard-response","93","339471","0.0-14.0-0.39","SS1604589276116","","null","","","","","","","","","","","","<img src=images/blank.png width =""500"" height = ""500"" style=""border:5px solid black"">","","",""
"","512.2949997894466","stimulus-presentation","94","340206","0.0-14.0-1.39","SS1604589276116","<img src='images/simple/7.png' width ='500' height = '500' style='border:5px solid black'>","40","mixed_complex_deviant","images/simple/5.png","images/simple/7.png","images/complex/4.png,images/complex/2.png,images/complex/12.png,images/complex/13.png,images/complex/14.png,images/complex/8.png,images/complex/17.png","0","null","","200","712.2949997894466","","","","background","",""
"","null","html-keyboard-response","95","341376","0.0-14.0-0.40","SS1604589276116","","null","","","","","","","","","","","","<img src=images/blank.png width =""500"" height = ""500"" style=""border:5px solid black"">","","",""
"","610.1400000043213","stimulus-presentation","96","342230","0.0-14.0-1.40","SS1604589276116","<img src='images/simple/7.png' width ='500' height = '500' style='border:5px solid black'>","40","mixed_complex_deviant","images/simple/5.png","images/simple/7.png","images/complex/4.png,images/complex/2.png,images/complex/12.png,images/complex/13.png,images/complex/14.png,images/complex/8.png,images/complex/17.png","0","null","","200","810.1400000043213","","","","background","",""
"","null","html-keyboard-response","97","343057","0.0-14.0-0.41","SS1604589276116","","null","","","","","","","","","","","","<img src=images/blank.png width =""500"" height = ""500"" style=""border:5px solid black"">","","",""
"","445.380000397563","stimulus-presentation","98","343711","0.0-14.0-1.41","SS1604589276116","<img src='images/simple/7.png' width ='500' height = '500' style='border:5px solid black'>","40","mixed_complex_deviant","images/simple/5.png","images/simple/7.png","images/complex/4.png,images/complex/2.png,images/complex/12.png,images/complex/13.png,images/complex/14.png,images/complex/8.png,images/complex/17.png","0","null","","200","645.380000397563","","","","background","",""
"","null","html-keyboard-response","99","344702","0.0-14.0-0.42","SS1604589276116","","null","","","","","","","","","","","","<img src=images/blank.png width =""500"" height = ""500"" style=""border:5px solid black"">","","",""
"","443.58500000089407","stimulus-presentation","100","345359","0.0-14.0-1.42","SS1604589276116","<img src='images/simple/7.png' width ='500' height = '500' style='border:5px solid black'>","40","mixed_complex_deviant","images/simple/5.png","images/simple/7.png","images/complex/4.png,images/complex/2.png,images/complex/12.png,images/complex/13.png,images/complex/14.png,images/complex/8.png,images/complex/17.png","0","null","","200","643.5850000008941","","","","background","",""
"","null","html-keyboard-response","101","346466","0.0-14.0-0.43","SS1604589276116","","null","","","","","","","","","","","","<img src=images/blank.png width =""500"" height = ""500"" style=""border:5px solid black"">","","",""
"","403.9600002579391","stimulus-presentation","102","347098","0.0-14.0-1.43","SS1604589276116","<img src='images/simple/7.png' width ='500' height = '500' style='border:5px solid black'>","40","mixed_complex_deviant","images/simple/5.png","images/simple/7.png","images/complex/4.png,images/complex/2.png,images/complex/12.png,images/complex/13.png,images/complex/14.png,images/complex/8.png,images/complex/17.png","0","null","","200","603.9600002579391","","","","background","",""
"","null","html-keyboard-response","103","348315","0.0-14.0-0.44","SS1604589276116","","null","","","","","","","","","","","","<img src=images/blank.png width =""500"" height = ""500"" style=""border:5px solid black"">","","",""
"","492.43999971076846","stimulus-presentation","104","349020","0.0-14.0-1.44","SS1604589276116","<img src='images/complex/13.png' width ='500' height = '500' style='border:5px solid black'>","40","mixed_complex_deviant","images/simple/5.png","images/simple/7.png","images/complex/4.png,images/complex/2.png,images/complex/12.png,images/complex/13.png,images/complex/14.png,images/complex/8.png,images/complex/17.png","0","null","","200","692.4399997107685","","","","deviant","",""
"","null","html-keyboard-response","105","350265","0.0-14.0-0.45","SS1604589276116","","null","","","","","","","","","","","","<img src=images/blank.png width =""500"" height = ""500"" style=""border:5px solid black"">","","",""
"","120.30000006780028","stimulus-presentation","106","350598","0.0-14.0-1.45","SS1604589276116","<img src='images/simple/7.png' width ='500' height = '500' style='border:5px solid black'>","40","mixed_complex_deviant","images/simple/5.png","images/simple/7.png","images/complex/4.png,images/complex/2.png,images/complex/12.png,images/complex/13.png,images/complex/14.png,images/complex/8.png,images/complex/17.png","0","null","","200","320.3000000678003","","","","background","",""
"","null","html-keyboard-response","107","351726","0.0-14.0-0.46","SS1604589276116","","null","","","","","","","","","","","","<img src=images/blank.png width =""500"" height = ""500"" style=""border:5px solid black"">","","",""
"","839.4550001248717","stimulus-presentation","108","352863","0.0-14.0-1.46","SS1604589276116","<img src='images/simple/7.png' width ='500' height = '500' style='border:5px solid black'>","40","mixed_complex_deviant","images/simple/5.png","images/simple/7.png","images/complex/4.png,images/complex/2.png,images/complex/12.png,images/complex/13.png,images/complex/14.png,images/complex/8.png,images/complex/17.png","0","null","","200","1039.4550001248717","","","","background","",""
"","null","html-keyboard-response","109","353875","0.0-14.0-0.47","SS1604589276116","","null","","","","","","","","","","","","<img src=images/blank.png width =""500"" height = ""500"" style=""border:5px solid black"">","","",""
"","634.2199998907745","stimulus-presentation","110","354722","0.0-14.0-1.47","SS1604589276116","<img src='images/simple/7.png' width ='500' height = '500' style='border:5px solid black'>","40","mixed_complex_deviant","images/simple/5.png","images/simple/7.png","images/complex/4.png,images/complex/2.png,images/complex/12.png,images/complex/13.png,images/complex/14.png,images/complex/8.png,images/complex/17.png","0","null","","200","834.2199998907745","","","","background","",""
"","null","html-keyboard-response","111","356003","0.0-14.0-0.48","SS1604589276116","","null","","","","","","","","","","","","<img src=images/blank.png width =""500"" height = ""500"" style=""border:5px solid black"">","","",""
"","444.1550001502037","stimulus-presentation","112","356665","0.0-14.0-1.48","SS1604589276116","<img src='images/simple/7.png' width ='500' height = '500' style='border:5px solid black'>","40","mixed_complex_deviant","images/simple/5.png","images/simple/7.png","images/complex/4.png,images/complex/2.png,images/complex/12.png,images/complex/13.png,images/complex/14.png,images/complex/8.png,images/complex/17.png","0","null","","200","644.1550001502037","","","","background","",""
"[{""page_index"":0,""viewing_time"":3823}]","3823","task-instructions","113","360495","0.0-15.0","SS1604589276116","","","","","","","","","","","","","","","","",""
"[{""page_index"":0,""viewing_time"":7610.614999663085},{""page_index"":1,""viewing_time"":5387.430000118911},{""page_index"":2,""viewing_time"":1819.9700000695884}]","14836.259999778122","instructions","114","375339","0.0-16.0","SS1604589276116","","","","","","","","","","","","","","","","",""
"","null","html-keyboard-response","115","376585","0.0-17.0-0.0","SS1604589276116","","null","","","","","","","","","","","","<img src=images/blank.png width =""500"" height = ""500"" style=""border:5px solid black"">","","",""
"","1382.505000103265","stimulus-presentation","116","378196","0.0-17.0-1.0","SS1604589276116","<img src='images/complex/3.png' width ='500' height = '500' style='border:5px solid black'>","40","all_complex","images/complex/1.png","images/complex/10.png","images/complex/6.png,images/complex/11.png,images/complex/5.png,images/complex/3.png,images/complex/7.png,images/complex/9.png,images/complex/15.png","1","null","","200","1582.505000103265","","","","deviant","",""
"","null","html-keyboard-response","117","379791","0.0-17.0-0.1","SS1604589276116","","null","","","","","","","","","","","","<img src=images/blank.png width =""500"" height = ""500"" style=""border:5px solid black"">","","",""
"","1341.5449997410178","stimulus-presentation","118","381353","0.0-17.0-1.1","SS1604589276116","<img src='images/complex/10.png' width ='500' height = '500' style='border:5px solid black'>","40","all_complex","images/complex/1.png","images/complex/10.png","images/complex/6.png,images/complex/11.png,images/complex/5.png,images/complex/3.png,images/complex/7.png,images/complex/9.png,images/complex/15.png","1","null","","200","1541.5449997410178","","","","background","",""
"","null","html-keyboard-response","119","382575","0.0-17.0-0.2","SS1604589276116","","null","","","","","","","","","","","","<img src=images/blank.png width =""500"" height = ""500"" style=""border:5px solid black"">","","",""
"","485.84500001743436","stimulus-presentation","120","383417","0.0-17.0-1.2","SS1604589276116","<img src='images/complex/10.png' width ='500' height = '500' style='border:5px solid black'>","40","all_complex","images/complex/1.png","images/complex/10.png","images/complex/6.png,images/complex/11.png,images/complex/5.png,images/complex/3.png,images/complex/7.png,images/complex/9.png,images/complex/15.png","1","null","","200","685.8450000174344","","","","background","",""
"","null","html-keyboard-response","121","384466","0.0-17.0-0.3","SS1604589276116","","null","","","","","","","","","","","","<img src=images/blank.png width =""500"" height = ""500"" style=""border:5px solid black"">","","",""
"","569.6849999949336","stimulus-presentation","122","385394","0.0-17.0-1.3","SS1604589276116","<img src='images/complex/10.png' width ='500' height = '500' style='border:5px solid black'>","40","all_complex","images/complex/1.png","images/complex/10.png","images/complex/6.png,images/complex/11.png,images/complex/5.png,images/complex/3.png,images/complex/7.png,images/complex/9.png,images/complex/15.png","1","null","","200","769.6849999949336","","","","background","",""
"","null","html-keyboard-response","123","386348","0.0-17.0-0.4","SS1604589276116","","null","","","","","","","","","","","","<img src=images/blank.png width =""500"" height = ""500"" style=""border:5px solid black"">","","",""
"","613.9350002631545","stimulus-presentation","124","387191","0.0-17.0-1.4","SS1604589276116","<img src='images/complex/10.png' width ='500' height = '500' style='border:5px solid black'>","40","all_complex","images/complex/1.png","images/complex/10.png","images/complex/6.png,images/complex/11.png,images/complex/5.png,images/complex/3.png,images/complex/7.png,images/complex/9.png,images/complex/15.png","1","null","","200","813.9350002631545","","","","background","",""
"","null","html-keyboard-response","125","388539","0.0-17.0-0.5","SS1604589276116","","null","","","","","","","","","","","","<img src=images/blank.png width =""500"" height = ""500"" style=""border:5px solid black"">","","",""
"","372.0599999651313","stimulus-presentation","126","389278","0.0-17.0-1.5","SS1604589276116","<img src='images/complex/10.png' width ='500' height = '500' style='border:5px solid black'>","40","all_complex","images/complex/1.png","images/complex/10.png","images/complex/6.png,images/complex/11.png,images/complex/5.png,images/complex/3.png,images/complex/7.png,images/complex/9.png,images/complex/15.png","1","null","","200","572.0599999651313","","","","background","",""
"","null","html-keyboard-response","127","390387","0.0-17.0-0.6","SS1604589276116","","null","","","","","","","","","","","","<img src=images/blank.png width =""500"" height = ""500"" style=""border:5px solid black"">","","",""
"","529.7750001773238","stimulus-presentation","128","391144","0.0-17.0-1.6","SS1604589276116","<img src='images/complex/10.png' width ='500' height = '500' style='border:5px solid black'>","40","all_complex","images/complex/1.png","images/complex/10.png","images/complex/6.png,images/complex/11.png,images/complex/5.png,images/complex/3.png,images/complex/7.png,images/complex/9.png,images/complex/15.png","1","null","","200","729.7750001773238","","","","background","",""
"","null","html-keyboard-response","129","392349","0.0-17.0-0.7","SS1604589276116","","null","","","","","","","","","","","","<img src=images/blank.png width =""500"" height = ""500"" style=""border:5px solid black"">","","",""
"","545.6849997863173","stimulus-presentation","130","393142","0.0-17.0-1.7","SS1604589276116","<img src='images/complex/10.png' width ='500' height = '500' style='border:5px solid black'>","40","all_complex","images/complex/1.png","images/complex/10.png","images/complex/6.png,images/complex/11.png,images/complex/5.png,images/complex/3.png,images/complex/7.png,images/complex/9.png,images/complex/15.png","1","null","","200","745.6849997863173","","","","background","",""
"","null","html-keyboard-response","131","394242","0.0-17.0-0.8","SS1604589276116","","null","","","","","","","","","","","","<img src=images/blank.png width =""500"" height = ""500"" style=""border:5px solid black"">","","",""
"","560.3499999269843","stimulus-presentation","132","395037","0.0-17.0-1.8","SS1604589276116","<img src='images/complex/10.png' width ='500' height = '500' style='border:5px solid black'>","40","all_complex","images/complex/1.png","images/complex/10.png","images/complex/6.png,images/complex/11.png,images/complex/5.png,images/complex/3.png,images/complex/7.png,images/complex/9.png,images/complex/15.png","1","null","","200","760.3499999269843","","","","background","",""
"","null","html-keyboard-response","133","397078","0.0-17.0-0.9","SS1604589276116","","null","","","","","","","","","","","","<img src=images/blank.png width =""500"" height = ""500"" style=""border:5px solid black"">","","",""
"","1008.4449998103082","stimulus-presentation","134","398311","0.0-17.0-1.9","SS1604589276116","<img src='images/complex/5.png' width ='500' height = '500' style='border:5px solid black'>","40","all_complex","images/complex/1.png","images/complex/10.png","images/complex/6.png,images/complex/11.png,images/complex/5.png,images/complex/3.png,images/complex/7.png,images/complex/9.png,images/complex/15.png","1","null","","200","1208.4449998103082","","","","deviant","",""
"","null","html-keyboard-response","135","399192","0.0-17.0-0.10","SS1604589276116","","null","","","","","","","","","","","","<img src=images/blank.png width =""500"" height = ""500"" style=""border:5px solid black"">","","",""
"","761.1850001849234","stimulus-presentation","136","400174","0.0-17.0-1.10","SS1604589276116","<img src='images/complex/10.png' width ='500' height = '500' style='border:5px solid black'>","40","all_complex","images/complex/1.png","images/complex/10.png","images/complex/6.png,images/complex/11.png,images/complex/5.png,images/complex/3.png,images/complex/7.png,images/complex/9.png,images/complex/15.png","1","null","","200","961.1850001849234","","","","background","",""
"","null","html-keyboard-response","137","402717","0.0-17.0-0.11","SS1604589276116","","null","","","","","","","","","","","","<img src=images/blank.png width =""500"" height = ""500"" style=""border:5px solid black"">","","",""
"","5517.6350004039705","stimulus-presentation","138","408543","0.0-17.0-1.11","SS1604589276116","<img src='images/complex/10.png' width ='500' height = '500' style='border:5px solid black'>","40","all_complex","images/complex/1.png","images/complex/10.png","images/complex/6.png,images/complex/11.png,images/complex/5.png,images/complex/3.png,images/complex/7.png,images/complex/9.png,images/complex/15.png","1","null","","200","5717.6350004039705","","","","background","",""
"","null","html-keyboard-response","139","409522","0.0-17.0-0.12","SS1604589276116","","null","","","","","","","","","","","","<img src=images/blank.png width =""500"" height = ""500"" style=""border:5px solid black"">","","",""
"","1334.6000001765788","stimulus-presentation","140","411062","0.0-17.0-1.12","SS1604589276116","<img src='images/complex/10.png' width ='500' height = '500' style='border:5px solid black'>","40","all_complex","images/complex/1.png","images/complex/10.png","images/complex/6.png,images/complex/11.png,images/complex/5.png,images/complex/3.png,images/complex/7.png,images/complex/9.png,images/complex/15.png","1","null","","200","1534.6000001765788","","","","background","",""
"","null","html-keyboard-response","141","412127","0.0-17.0-0.13","SS1604589276116","","null","","","","","","","","","","","","<img src=images/blank.png width =""500"" height = ""500"" style=""border:5px solid black"">","","",""
"","2142.8449996747077","stimulus-presentation","142","414476","0.0-17.0-1.13","SS1604589276116","<img src='images/complex/10.png' width ='500' height = '500' style='border:5px solid black'>","40","all_complex","images/complex/1.png","images/complex/10.png","images/complex/6.png,images/complex/11.png,images/complex/5.png,images/complex/3.png,images/complex/7.png,images/complex/9.png,images/complex/15.png","1","null","","200","2342.8449996747077","","","","background","",""
"","null","html-keyboard-response","143","415796","0.0-17.0-0.14","SS1604589276116","","null","","","","","","","","","","","","<img src=images/blank.png width =""500"" height = ""500"" style=""border:5px solid black"">","","",""
"","1163.1899997591972","stimulus-presentation","144","417177","0.0-17.0-1.14","SS1604589276116","<img src='images/complex/15.png' width ='500' height = '500' style='border:5px solid black'>","40","all_complex","images/complex/1.png","images/complex/10.png","images/complex/6.png,images/complex/11.png,images/complex/5.png,images/complex/3.png,images/complex/7.png,images/complex/9.png,images/complex/15.png","1","null","","200","1363.1899997591972","","","","deviant","",""
"","null","html-keyboard-response","145","418304","0.0-17.0-0.15","SS1604589276116","","null","","","","","","","","","","","","<img src=images/blank.png width =""500"" height = ""500"" style=""border:5px solid black"">","","",""
"","889.4550004042685","stimulus-presentation","146","419400","0.0-17.0-1.15","SS1604589276116","<img src='images/complex/1.png' width ='500' height = '500' style='border:5px solid black'>","40","all_complex","images/complex/1.png","images/complex/10.png","images/complex/6.png,images/complex/11.png,images/complex/5.png,images/complex/3.png,images/complex/7.png,images/complex/9.png,images/complex/15.png","1","null","","200","1089.4550004042685","","","","target","",""
"","null","html-keyboard-response","147","420670","0.0-17.0-0.16","SS1604589276116","","null","","","","","","","","","","","","<img src=images/blank.png width =""500"" height = ""500"" style=""border:5px solid black"">","","",""
"","785.5549999512732","stimulus-presentation","148","421671","0.0-17.0-1.16","SS1604589276116","<img src='images/complex/10.png' width ='500' height = '500' style='border:5px solid black'>","40","all_complex","images/complex/1.png","images/complex/10.png","images/complex/6.png,images/complex/11.png,images/complex/5.png,images/complex/3.png,images/complex/7.png,images/complex/9.png,images/complex/15.png","1","null","","200","985.5549999512732","","","","background","",""
"","null","html-keyboard-response","149","422771","0.0-17.0-0.17","SS1604589276116","","null","","","","","","","","","","","","<img src=images/blank.png width =""500"" height = ""500"" style=""border:5px solid black"">","","",""
"","465.3900000266731","stimulus-presentation","150","423442","0.0-17.0-1.17","SS1604589276116","<img src='images/complex/10.png' width ='500' height = '500' style='border:5px solid black'>","40","all_complex","images/complex/1.png","images/complex/10.png","images/complex/6.png,images/complex/11.png,images/complex/5.png,images/complex/3.png,images/complex/7.png,images/complex/9.png,images/complex/15.png","1","null","","200","665.3900000266731","","","","background","",""
"","null","html-keyboard-response","151","424714","0.0-17.0-0.18","SS1604589276116","","null","","","","","","","","","","","","<img src=images/blank.png width =""500"" height = ""500"" style=""border:5px solid black"">","","",""
"","492.51999985426664","stimulus-presentation","152","425414","0.0-17.0-1.18","SS1604589276116","<img src='images/complex/10.png' width ='500' height = '500' style='border:5px solid black'>","40","all_complex","images/complex/1.png","images/complex/10.png","images/complex/6.png,images/complex/11.png,images/complex/5.png,images/complex/3.png,images/complex/7.png,images/complex/9.png,images/complex/15.png","1","null","","200","692.5199998542666","","","","background","",""
"","null","html-keyboard-response","153","426544","0.0-17.0-0.19","SS1604589276116","","null","","","","","","","","","","","","<img src=images/blank.png width =""500"" height = ""500"" style=""border:5px solid black"">","","",""
"","15.344999730587006","stimulus-presentation","154","426766","0.0-17.0-1.19","SS1604589276116","<img src='images/complex/10.png' width ='500' height = '500' style='border:5px solid black'>","40","all_complex","images/complex/1.png","images/complex/10.png","images/complex/6.png,images/complex/11.png,images/complex/5.png,images/complex/3.png,images/complex/7.png,images/complex/9.png,images/complex/15.png","1","null","","200","215.344999730587","","","","background","",""
"","null","html-keyboard-response","155","427909","0.0-17.0-0.20","SS1604589276116","","null","","","","","","","","","","","","<img src=images/blank.png width =""500"" height = ""500"" style=""border:5px solid black"">","","",""
"","627.0699999295175","stimulus-presentation","156","428748","0.0-17.0-1.20","SS1604589276116","<img src='images/complex/10.png' width ='500' height = '500' style='border:5px solid black'>","40","all_complex","images/complex/1.png","images/complex/10.png","images/complex/6.png,images/complex/11.png,images/complex/5.png,images/complex/3.png,images/complex/7.png,images/complex/9.png,images/complex/15.png","1","null","","200","827.0699999295175","","","","background","",""
"","null","html-keyboard-response","157","429643","0.0-17.0-0.21","SS1604589276116","","null","","","","","","","","","","","","<img src=images/blank.png width =""500"" height = ""500"" style=""border:5px solid black"">","","",""
"","788.1500003859401","stimulus-presentation","158","430643","0.0-17.0-1.21","SS1604589276116","<img src='images/complex/1.png' width ='500' height = '500' style='border:5px solid black'>","40","all_complex","images/complex/1.png","images/complex/10.png","images/complex/6.png,images/complex/11.png,images/complex/5.png,images/complex/3.png,images/complex/7.png,images/complex/9.png,images/complex/15.png","1","null","","200","988.1500003859401","","","","target","",""
"","null","html-keyboard-response","159","431706","0.0-17.0-0.22","SS1604589276116","","null","","","","","","","","","","","","<img src=images/blank.png width =""500"" height = ""500"" style=""border:5px solid black"">","","",""
"","4612.294999882579","stimulus-presentation","160","436526","0.0-17.0-1.22","SS1604589276116","<img src='images/complex/10.png' width ='500' height = '500' style='border:5px solid black'>","40","all_complex","images/complex/1.png","images/complex/10.png","images/complex/6.png,images/complex/11.png,images/complex/5.png,images/complex/3.png,images/complex/7.png,images/complex/9.png,images/complex/15.png","1","null","","200","4812.294999882579","yes","4607.829999644309","","background","",""
"","null","html-keyboard-response","161","438069","0.0-17.0-0.23","SS1604589276116","","null","","","","","","","","","","","","<img src=images/blank.png width =""500"" height = ""500"" style=""border:5px solid black"">","","",""
"","839.7650001570582","stimulus-presentation","162","439159","0.0-17.0-1.23","SS1604589276116","<img src='images/complex/10.png' width ='500' height = '500' style='border:5px solid black'>","40","all_complex","images/complex/1.png","images/complex/10.png","images/complex/6.png,images/complex/11.png,images/complex/5.png,images/complex/3.png,images/complex/7.png,images/complex/9.png,images/complex/15.png","1","null","","200","1039.7650001570582","","","","background","",""
"","null","html-keyboard-response","163","441137","0.0-17.0-0.24","SS1604589276116","","null","","","","","","","","","","","","<img src=images/blank.png width =""500"" height = ""500"" style=""border:5px solid black"">","","",""
"","93.45000004395843","stimulus-presentation","164","443217","0.0-17.0-1.24","SS1604589276116","<img src='images/complex/9.png' width ='500' height = '500' style='border:5px solid black'>","40","all_complex","images/complex/1.png","images/complex/10.png","images/complex/6.png,images/complex/11.png,images/complex/5.png,images/complex/3.png,images/complex/7.png,images/complex/9.png,images/complex/15.png","1","null","","200","293.4500000439584","","","","deviant","",""
"","null","html-keyboard-response","165","444247","0.0-17.0-0.25","SS1604589276116","","null","","","","","","","","","","","","<img src=images/blank.png width =""500"" height = ""500"" style=""border:5px solid black"">","","",""
"","641.3399996235967","stimulus-presentation","166","445102","0.0-17.0-1.25","SS1604589276116","<img src='images/complex/10.png' width ='500' height = '500' style='border:5px solid black'>","40","all_complex","images/complex/1.png","images/complex/10.png","images/complex/6.png,images/complex/11.png,images/complex/5.png,images/complex/3.png,images/complex/7.png,images/complex/9.png,images/complex/15.png","1","null","","200","841.3399996235967","","","","background","",""
"","null","html-keyboard-response","167","446125","0.0-17.0-0.26","SS1604589276116","","null","","","","","","","","","","","","<img src=images/blank.png width =""500"" height = ""500"" style=""border:5px solid black"">","","",""
"","281.785000115633","stimulus-presentation","168","446876","0.0-17.0-1.26","SS1604589276116","<img src='images/complex/10.png' width ='500' height = '500' style='border:5px solid black'>","40","all_complex","images/complex/1.png","images/complex/10.png","images/complex/6.png,images/complex/11.png,images/complex/5.png,images/complex/3.png,images/complex/7.png,images/complex/9.png,images/complex/15.png","1","null","","200","481.785000115633","","","","background","",""
"","null","html-keyboard-response","169","447997","0.0-17.0-0.27","SS1604589276116","","null","","","","","","","","","","","","<img src=images/blank.png width =""500"" height = ""500"" style=""border:5px solid black"">","","",""
"","705.2450003102422","stimulus-presentation","170","449541","0.0-17.0-1.27","SS1604589276116","<img src='images/complex/10.png' width ='500' height = '500' style='border:5px solid black'>","40","all_complex","images/complex/1.png","images/complex/10.png","images/complex/6.png,images/complex/11.png,images/complex/5.png,images/complex/3.png,images/complex/7.png,images/complex/9.png,images/complex/15.png","1","null","","200","905.2450003102422","","","","background","",""
"","null","html-keyboard-response","171","450673","0.0-17.0-0.28","SS1604589276116","","null","","","","","","","","","","","","<img src=images/blank.png width =""500"" height = ""500"" style=""border:5px solid black"">","","",""
"","682.0299997925758","stimulus-presentation","172","451713","0.0-17.0-1.28","SS1604589276116","<img src='images/complex/10.png' width ='500' height = '500' style='border:5px solid black'>","40","all_complex","images/complex/1.png","images/complex/10.png","images/complex/6.png,images/complex/11.png,images/complex/5.png,images/complex/3.png,images/complex/7.png,images/complex/9.png,images/complex/15.png","1","null","","200","882.0299997925758","","","","background","",""
"","null","html-keyboard-response","173","453045","0.0-17.0-0.29","SS1604589276116","","null","","","","","","","","","","","","<img src=images/blank.png width =""500"" height = ""500"" style=""border:5px solid black"">","","",""
"","542.1450003050268","stimulus-presentation","174","453824","0.0-17.0-1.29","SS1604589276116","<img src='images/complex/10.png' width ='500' height = '500' style='border:5px solid black'>","40","all_complex","images/complex/1.png","images/complex/10.png","images/complex/6.png,images/complex/11.png,images/complex/5.png,images/complex/3.png,images/complex/7.png,images/complex/9.png,images/complex/15.png","1","null","","200","742.1450003050268","","","","background","",""
"","null","html-keyboard-response","175","454922","0.0-17.0-0.30","SS1604589276116","","null","","","","","","","","","","","","<img src=images/blank.png width =""500"" height = ""500"" style=""border:5px solid black"">","","",""
"","6075.480000115931","stimulus-presentation","176","465143","0.0-17.0-1.30","SS1604589276116","<img src='images/complex/11.png' width ='500' height = '500' style='border:5px solid black'>","40","all_complex","images/complex/1.png","images/complex/10.png","images/complex/6.png,images/complex/11.png,images/complex/5.png,images/complex/3.png,images/complex/7.png,images/complex/9.png,images/complex/15.png","1","null","","200","6275.480000115931","","","","deviant","",""
"","null","html-keyboard-response","177","466816","0.0-17.0-0.31","SS1604589276116","","null","","","","","","","","","","","","<img src=images/blank.png width =""500"" height = ""500"" style=""border:5px solid black"">","","",""
"","259.3100001104176","stimulus-presentation","178","467747","0.0-17.0-1.31","SS1604589276116","<img src='images/complex/1.png' width ='500' height = '500' style='border:5px solid black'>","40","all_complex","images/complex/1.png","images/complex/10.png","images/complex/6.png,images/complex/11.png,images/complex/5.png,images/complex/3.png,images/complex/7.png,images/complex/9.png,images/complex/15.png","1","null","","200","459.3100001104176","","","","target","",""
"","null","html-keyboard-response","179","469051","0.0-17.0-0.32","SS1604589276116","","null","","","","","","","","","","","","<img src=images/blank.png width =""500"" height = ""500"" style=""border:5px solid black"">","","",""
"","784.1799999587238","stimulus-presentation","180","470043","0.0-17.0-1.32","SS1604589276116","<img src='images/complex/10.png' width ='500' height = '500' style='border:5px solid black'>","40","all_complex","images/complex/1.png","images/complex/10.png","images/complex/6.png,images/complex/11.png,images/complex/5.png,images/complex/3.png,images/complex/7.png,images/complex/9.png,images/complex/15.png","1","null","","200","984.1799999587238","","","","background","",""
"","null","html-keyboard-response","181","472455","0.0-17.0-0.33","SS1604589276116","","null","","","","","","","","","","","","<img src=images/blank.png width =""500"" height = ""500"" style=""border:5px solid black"">","","",""
"","112.30499995872378","stimulus-presentation","182","472961","0.0-17.0-1.33","SS1604589276116","<img src='images/complex/10.png' width ='500' height = '500' style='border:5px solid black'>","40","all_complex","images/complex/1.png","images/complex/10.png","images/complex/6.png,images/complex/11.png,images/complex/5.png,images/complex/3.png,images/complex/7.png,images/complex/9.png,images/complex/15.png","1","null","","200","312.3049999587238","","","","background","",""
"","null","html-keyboard-response","183","474487","0.0-17.0-0.34","SS1604589276116","","null","","","","","","","","","","","","<img src=images/blank.png width =""500"" height = ""500"" style=""border:5px solid black"">","","",""
"","764.8649998009205","stimulus-presentation","184","475467","0.0-17.0-1.34","SS1604589276116","<img src='images/complex/7.png' width ='500' height = '500' style='border:5px solid black'>","40","all_complex","images/complex/1.png","images/complex/10.png","images/complex/6.png,images/complex/11.png,images/complex/5.png,images/complex/3.png,images/complex/7.png,images/complex/9.png,images/complex/15.png","1","null","","200","964.8649998009205","","","","deviant","",""
"","null","html-keyboard-response","185","477438","0.0-17.0-0.35","SS1604589276116","","null","","","","","","","","","","","","<img src=images/blank.png width =""500"" height = ""500"" style=""border:5px solid black"">","","",""
"","350.4249998368323","stimulus-presentation","186","478228","0.0-17.0-1.35","SS1604589276116","<img src='images/complex/10.png' width ='500' height = '500' style='border:5px solid black'>","40","all_complex","images/complex/1.png","images/complex/10.png","images/complex/6.png,images/complex/11.png,images/complex/5.png,images/complex/3.png,images/complex/7.png,images/complex/9.png,images/complex/15.png","1","null","","200","550.4249998368323","","","","background","",""
"","null","html-keyboard-response","187","479540","0.0-17.0-0.36","SS1604589276116","","null","","","","","","","","","","","","<img src=images/blank.png width =""500"" height = ""500"" style=""border:5px solid black"">","","",""
"","2307.6149998232722","stimulus-presentation","188","482064","0.0-17.0-1.36","SS1604589276116","<img src='images/complex/6.png' width ='500' height = '500' style='border:5px solid black'>","40","all_complex","images/complex/1.png","images/complex/10.png","images/complex/6.png,images/complex/11.png,images/complex/5.png,images/complex/3.png,images/complex/7.png,images/complex/9.png,images/complex/15.png","1","null","","200","2507.6149998232722","","","","deviant","",""
"","null","html-keyboard-response","189","483370","0.0-17.0-0.37","SS1604589276116","","null","","","","","","","","","","","","<img src=images/blank.png width =""500"" height = ""500"" style=""border:5px solid black"">","","",""
"","948.8949999213219","stimulus-presentation","190","484646","0.0-17.0-1.37","SS1604589276116","<img src='images/complex/1.png' width ='500' height = '500' style='border:5px solid black'>","40","all_complex","images/complex/1.png","images/complex/10.png","images/complex/6.png,images/complex/11.png,images/complex/5.png,images/complex/3.png,images/complex/7.png,images/complex/9.png,images/complex/15.png","1","null","","200","1148.8949999213219","","","","target","",""
"","null","html-keyboard-response","191","485643","0.0-17.0-0.38","SS1604589276116","","null","","","","","","","","","","","","<img src=images/blank.png width =""500"" height = ""500"" style=""border:5px solid black"">","","",""
"","1882.3400000110269","stimulus-presentation","192","488564","0.0-17.0-1.38","SS1604589276116","<img src='images/complex/1.png' width ='500' height = '500' style='border:5px solid black'>","40","all_complex","images/complex/1.png","images/complex/10.png","images/complex/6.png,images/complex/11.png,images/complex/5.png,images/complex/3.png,images/complex/7.png,images/complex/9.png,images/complex/15.png","1","null","","200","2082.340000011027","yes","301.3550001196563","","target","",""
"","null","html-keyboard-response","193","489857","0.0-17.0-0.39","SS1604589276116","","null","","","","","","","","","","","","<img src=images/blank.png width =""500"" height = ""500"" style=""border:5px solid black"">","","",""
"","1881.2300004065037","stimulus-presentation","194","492085","0.0-17.0-1.39","SS1604589276116","<img src='images/complex/1.png' width ='500' height = '500' style='border:5px solid black'>","40","all_complex","images/complex/1.png","images/complex/10.png","images/complex/6.png,images/complex/11.png,images/complex/5.png,images/complex/3.png,images/complex/7.png,images/complex/9.png,images/complex/15.png","1","null","","200","2081.2300004065037","yes","508.40000016614795","","target","",""
"","null","html-keyboard-response","195","492949","0.0-17.0-0.40","SS1604589276116","","null","","","","","","","","","","","","<img src=images/blank.png width =""500"" height = ""500"" style=""border:5px solid black"">","","",""
"","619.100000243634","stimulus-presentation","196","493810","0.0-17.0-1.40","SS1604589276116","<img src='images/complex/10.png' width ='500' height = '500' style='border:5px solid black'>","40","all_complex","images/complex/1.png","images/complex/10.png","images/complex/6.png,images/complex/11.png,images/complex/5.png,images/complex/3.png,images/complex/7.png,images/complex/9.png,images/complex/15.png","1","null","","200","819.100000243634","","","","background","",""
"","null","html-keyboard-response","197","494785","0.0-17.0-0.41","SS1604589276116","","null","","","","","","","","","","","","<img src=images/blank.png width =""500"" height = ""500"" style=""border:5px solid black"">","","",""
"","5071.695000398904","stimulus-presentation","198","500629","0.0-17.0-1.41","SS1604589276116","<img src='images/complex/1.png' width ='500' height = '500' style='border:5px solid black'>","40","all_complex","images/complex/1.png","images/complex/10.png","images/complex/6.png,images/complex/11.png,images/complex/5.png,images/complex/3.png,images/complex/7.png,images/complex/9.png,images/complex/15.png","1","null","","200","5271.695000398904","yes","1395.7350002601743","","target","",""
"","null","html-keyboard-response","199","501736","0.0-17.0-0.42","SS1604589276116","","null","","","","","","","","","","","","<img src=images/blank.png width =""500"" height = ""500"" style=""border:5px solid black"">","","",""
"","462.07999996840954","stimulus-presentation","200","502985","0.0-17.0-1.42","SS1604589276116","<img src='images/complex/10.png' width ='500' height = '500' style='border:5px solid black'>","40","all_complex","images/complex/1.png","images/complex/10.png","images/complex/6.png,images/complex/11.png,images/complex/5.png,images/complex/3.png,images/complex/7.png,images/complex/9.png,images/complex/15.png","1","null","","200","662.0799999684095","","","","background","",""
"","null","html-keyboard-response","201","504073","0.0-17.0-0.43","SS1604589276116","","null","","","","","","","","","","","","<img src=images/blank.png width =""500"" height = ""500"" style=""border:5px solid black"">","","",""
"","474.6799999848008","stimulus-presentation","202","504767","0.0-17.0-1.43","SS1604589276116","<img src='images/complex/10.png' width ='500' height = '500' style='border:5px solid black'>","40","all_complex","images/complex/1.png","images/complex/10.png","images/complex/6.png,images/complex/11.png,images/complex/5.png,images/complex/3.png,images/complex/7.png,images/complex/9.png,images/complex/15.png","1","null","","200","674.6799999848008","","","","background","",""
"","null","html-keyboard-response","203","506061","0.0-17.0-0.44","SS1604589276116","","null","","","","","","","","","","","","<img src=images/blank.png width =""500"" height = ""500"" style=""border:5px solid black"">","","",""
"","464.55000014975667","stimulus-presentation","204","506781","0.0-17.0-1.44","SS1604589276116","<img src='images/complex/10.png' width ='500' height = '500' style='border:5px solid black'>","40","all_complex","images/complex/1.png","images/complex/10.png","images/complex/6.png,images/complex/11.png,images/complex/5.png,images/complex/3.png,images/complex/7.png,images/complex/9.png,images/complex/15.png","1","null","","200","664.5500001497567","","","","background","",""
"","null","html-keyboard-response","205","507809","0.0-17.0-0.45","SS1604589276116","","null","","","","","","","","","","","","<img src=images/blank.png width =""500"" height = ""500"" style=""border:5px solid black"">","","",""
"","513.065000064671","stimulus-presentation","206","508610","0.0-17.0-1.45","SS1604589276116","<img src='images/complex/10.png' width ='500' height = '500' style='border:5px solid black'>","40","all_complex","images/complex/1.png","images/complex/10.png","images/complex/6.png,images/complex/11.png,images/complex/5.png,images/complex/3.png,images/complex/7.png,images/complex/9.png,images/complex/15.png","1","null","","200","713.065000064671","","","","background","",""
"","null","html-keyboard-response","207","509541","0.0-17.0-0.46","SS1604589276116","","null","","","","","","","","","","","","<img src=images/blank.png width =""500"" height = ""500"" style=""border:5px solid black"">","","",""
"","429.03999984264374","stimulus-presentation","208","510233","0.0-17.0-1.46","SS1604589276116","<img src='images/complex/10.png' width ='500' height = '500' style='border:5px solid black'>","40","all_complex","images/complex/1.png","images/complex/10.png","images/complex/6.png,images/complex/11.png,images/complex/5.png,images/complex/3.png,images/complex/7.png,images/complex/9.png,images/complex/15.png","1","null","","200","629.0399998426437","","","","background","",""
"","null","html-keyboard-response","209","511227","0.0-17.0-0.47","SS1604589276116","","null","","","","","","","","","","","","<img src=images/blank.png width =""500"" height = ""500"" style=""border:5px solid black"">","","",""
"","394.33000003919005","stimulus-presentation","210","511890","0.0-17.0-1.47","SS1604589276116","<img src='images/complex/10.png' width ='500' height = '500' style='border:5px solid black'>","40","all_complex","images/complex/1.png","images/complex/10.png","images/complex/6.png,images/complex/11.png,images/complex/5.png,images/complex/3.png,images/complex/7.png,images/complex/9.png,images/complex/15.png","1","null","","200","594.33000003919","","","","background","",""
"","null","html-keyboard-response","211","512776","0.0-17.0-0.48","SS1604589276116","","null","","","","","","","","","","","","<img src=images/blank.png width =""500"" height = ""500"" style=""border:5px solid black"">","","",""
"","418.91999961808324","stimulus-presentation","212","513437","0.0-17.0-1.48","SS1604589276116","<img src='images/complex/10.png' width ='500' height = '500' style='border:5px solid black'>","40","all_complex","images/complex/1.png","images/complex/10.png","images/complex/6.png,images/complex/11.png,images/complex/5.png,images/complex/3.png,images/complex/7.png,images/complex/9.png,images/complex/15.png","1","null","","200","618.9199996180832","","","","background","",""
"[{""page_index"":0,""viewing_time"":6646}]","6647","task-instructions","213","520095","0.0-18.0","SS1604589276116","","","","","","","","","","","","","","","","",""
"[{""page_index"":0,""viewing_time"":573.7999998964369},{""page_index"":1,""viewing_time"":15780.290000140667},{""page_index"":2,""viewing_time"":1696.0200001485646}]","18050.74500013143","instructions","214","538164","0.0-19.0","SS1604589276116","","","","","","","","","","","","","","","","",""
"","null","html-keyboard-response","215","539343","0.0-20.0-0.0","SS1604589276116","","null","","","","","","","","","","","","<img src=images/blank.png width =""500"" height = ""500"" style=""border:5px solid black"">","","",""
"","579.6000002883375","stimulus-presentation","216","540145","0.0-20.0-1.0","SS1604589276116","<img src='images/complex/16.png' width ='500' height = '500' style='border:5px solid black'>","40","mixed_simple_deviant","images/complex/18.png","images/complex/16.png","images/simple/13.png,images/simple/6.png,images/simple/1.png,images/simple/2.png,images/simple/15.png,images/simple/16.png,images/simple/18.png","2","null","","200","779.6000002883375","","","","background","",""
"","null","html-keyboard-response","217","541356","0.0-20.0-0.1","SS1604589276116","","null","","","","","","","","","","","","<img src=images/blank.png width =""500"" height = ""500"" style=""border:5px solid black"">","","",""
"","494.1549999639392","stimulus-presentation","218","542102","0.0-20.0-1.1","SS1604589276116","<img src='images/complex/16.png' width ='500' height = '500' style='border:5px solid black'>","40","mixed_simple_deviant","images/complex/18.png","images/complex/16.png","images/simple/13.png,images/simple/6.png,images/simple/1.png,images/simple/2.png,images/simple/15.png,images/simple/16.png,images/simple/18.png","2","null","","200","694.1549999639392","","","","background","",""
"","null","html-keyboard-response","219","543401","0.0-20.0-0.2","SS1604589276116","","null","","","","","","","","","","","","<img src=images/blank.png width =""500"" height = ""500"" style=""border:5px solid black"">","","",""
"","481.8649999797344","stimulus-presentation","220","544120","0.0-20.0-1.2","SS1604589276116","<img src='images/complex/16.png' width ='500' height = '500' style='border:5px solid black'>","40","mixed_simple_deviant","images/complex/18.png","images/complex/16.png","images/simple/13.png,images/simple/6.png,images/simple/1.png,images/simple/2.png,images/simple/15.png,images/simple/16.png,images/simple/18.png","2","null","","200","681.8649999797344","","","","background","",""
"","null","html-keyboard-response","221","544997","0.0-20.0-0.3","SS1604589276116","","null","","","","","","","","","","","","<img src=images/blank.png width =""500"" height = ""500"" style=""border:5px solid black"">","","",""
"","516.3850001990795","stimulus-presentation","222","545729","0.0-20.0-1.3","SS1604589276116","<img src='images/complex/16.png' width ='500' height = '500' style='border:5px solid black'>","40","mixed_simple_deviant","images/complex/18.png","images/complex/16.png","images/simple/13.png,images/simple/6.png,images/simple/1.png,images/simple/2.png,images/simple/15.png,images/simple/16.png,images/simple/18.png","2","null","","200","716.3850001990795","","","","background","",""
"","null","html-keyboard-response","223","547069","0.0-20.0-0.4","SS1604589276116","","null","","","","","","","","","","","","<img src=images/blank.png width =""500"" height = ""500"" style=""border:5px solid black"">","","",""
"","1533.3799999207258","stimulus-presentation","224","548857","0.0-20.0-1.4","SS1604589276116","<img src='images/complex/18.png' width ='500' height = '500' style='border:5px solid black'>","40","mixed_simple_deviant","images/complex/18.png","images/complex/16.png","images/simple/13.png,images/simple/6.png,images/simple/1.png,images/simple/2.png,images/simple/15.png,images/simple/16.png,images/simple/18.png","2","null","","200","1733.3799999207258","","","","target","",""
"","null","html-keyboard-response","225","550119","0.0-20.0-0.5","SS1604589276116","","null","","","","","","","","","","","","<img src=images/blank.png width =""500"" height = ""500"" style=""border:5px solid black"">","","",""
"","538.2400001399219","stimulus-presentation","226","550896","0.0-20.0-1.5","SS1604589276116","<img src='images/complex/16.png' width ='500' height = '500' style='border:5px solid black'>","40","mixed_simple_deviant","images/complex/18.png","images/complex/16.png","images/simple/13.png,images/simple/6.png,images/simple/1.png,images/simple/2.png,images/simple/15.png,images/simple/16.png,images/simple/18.png","2","null","","200","738.2400001399219","","","","background","",""
"","null","html-keyboard-response","227","551863","0.0-20.0-0.6","SS1604589276116","","null","","","","","","","","","","","","<img src=images/blank.png width =""500"" height = ""500"" style=""border:5px solid black"">","","",""
"","422.5150002166629","stimulus-presentation","228","552530","0.0-20.0-1.6","SS1604589276116","<img src='images/simple/13.png' width ='500' height = '500' style='border:5px solid black'>","40","mixed_simple_deviant","images/complex/18.png","images/complex/16.png","images/simple/13.png,images/simple/6.png,images/simple/1.png,images/simple/2.png,images/simple/15.png,images/simple/16.png,images/simple/18.png","2","null","","200","622.5150002166629","","","","deviant","",""
"","null","html-keyboard-response","229","553745","0.0-20.0-0.7","SS1604589276116","","null","","","","","","","","","","","","<img src=images/blank.png width =""500"" height = ""500"" style=""border:5px solid black"">","","",""
"","454.9650000408292","stimulus-presentation","230","554435","0.0-20.0-1.7","SS1604589276116","<img src='images/complex/18.png' width ='500' height = '500' style='border:5px solid black'>","40","mixed_simple_deviant","images/complex/18.png","images/complex/16.png","images/simple/13.png,images/simple/6.png,images/simple/1.png,images/simple/2.png,images/simple/15.png,images/simple/16.png,images/simple/18.png","2","null","","200","654.9650000408292","","","","target","",""
"","null","html-keyboard-response","231","555305","0.0-20.0-0.8","SS1604589276116","","null","","","","","","","","","","","","<img src=images/blank.png width =""500"" height = ""500"" style=""border:5px solid black"">","","",""
"","492.0850000344217","stimulus-presentation","232","556014","0.0-20.0-1.8","SS1604589276116","<img src='images/complex/16.png' width ='500' height = '500' style='border:5px solid black'>","40","mixed_simple_deviant","images/complex/18.png","images/complex/16.png","images/simple/13.png,images/simple/6.png,images/simple/1.png,images/simple/2.png,images/simple/15.png,images/simple/16.png,images/simple/18.png","2","null","","200","692.0850000344217","","","","background","",""
"","null","html-keyboard-response","233","558550","0.0-20.0-0.9","SS1604589276116","","null","","","","","","","","","","","","<img src=images/blank.png width =""500"" height = ""500"" style=""border:5px solid black"">","","",""
"","301.1300000362098","stimulus-presentation","234","559444","0.0-20.0-1.9","SS1604589276116","<img src='images/complex/16.png' width ='500' height = '500' style='border:5px solid black'>","40","mixed_simple_deviant","images/complex/18.png","images/complex/16.png","images/simple/13.png,images/simple/6.png,images/simple/1.png,images/simple/2.png,images/simple/15.png,images/simple/16.png,images/simple/18.png","2","null","","200","501.1300000362098","","","","background","",""
"","null","html-keyboard-response","235","560737","0.0-20.0-0.10","SS1604589276116","","null","","","","","","","","","","","","<img src=images/blank.png width =""500"" height = ""500"" style=""border:5px solid black"">","","",""
"","400.45499987900257","stimulus-presentation","236","561484","0.0-20.0-1.10","SS1604589276116","<img src='images/complex/16.png' width ='500' height = '500' style='border:5px solid black'>","40","mixed_simple_deviant","images/complex/18.png","images/complex/16.png","images/simple/13.png,images/simple/6.png,images/simple/1.png,images/simple/2.png,images/simple/15.png,images/simple/16.png,images/simple/18.png","2","null","","200","600.4549998790026","","","","background","",""
"","null","html-keyboard-response","237","562919","0.0-20.0-0.11","SS1604589276116","","null","","","","","","","","","","","","<img src=images/blank.png width =""500"" height = ""500"" style=""border:5px solid black"">","","",""
"","46.19999974966049","stimulus-presentation","238","563587","0.0-20.0-1.11","SS1604589276116","<img src='images/complex/16.png' width ='500' height = '500' style='border:5px solid black'>","40","mixed_simple_deviant","images/complex/18.png","images/complex/16.png","images/simple/13.png,images/simple/6.png,images/simple/1.png,images/simple/2.png,images/simple/15.png,images/simple/16.png,images/simple/18.png","2","null","","200","246.1999997496605","","","","background","",""
"","null","html-keyboard-response","239","564547","0.0-20.0-0.12","SS1604589276116","","null","","","","","","","","","","","","<img src=images/blank.png width =""500"" height = ""500"" style=""border:5px solid black"">","","",""
"","1700.385000091046","stimulus-presentation","240","566463","0.0-20.0-1.12","SS1604589276116","<img src='images/simple/16.png' width ='500' height = '500' style='border:5px solid black'>","40","mixed_simple_deviant","images/complex/18.png","images/complex/16.png","images/simple/13.png,images/simple/6.png,images/simple/1.png,images/simple/2.png,images/simple/15.png,images/simple/16.png,images/simple/18.png","2","null","","200","1900.385000091046","yes","1507.2400001809","","deviant","",""
"","null","html-keyboard-response","241","567423","0.0-20.0-0.13","SS1604589276116","","null","","","","","","","","","","","","<img src=images/blank.png width =""500"" height = ""500"" style=""border:5px solid black"">","","",""
"","403.4500000998378","stimulus-presentation","242","568169","0.0-20.0-1.13","SS1604589276116","<img src='images/complex/16.png' width ='500' height = '500' style='border:5px solid black'>","40","mixed_simple_deviant","images/complex/18.png","images/complex/16.png","images/simple/13.png,images/simple/6.png,images/simple/1.png,images/simple/2.png,images/simple/15.png,images/simple/16.png,images/simple/18.png","2","null","","200","603.4500000998378","","","","background","",""
"","null","html-keyboard-response","243","569328","0.0-20.0-0.14","SS1604589276116","","null","","","","","","","","","","","","<img src=images/blank.png width =""500"" height = ""500"" style=""border:5px solid black"">","","",""
"","380.82500034943223","stimulus-presentation","244","570003","0.0-20.0-1.14","SS1604589276116","<img src='images/complex/16.png' width ='500' height = '500' style='border:5px solid black'>","40","mixed_simple_deviant","images/complex/18.png","images/complex/16.png","images/simple/13.png,images/simple/6.png,images/simple/1.png,images/simple/2.png,images/simple/15.png,images/simple/16.png,images/simple/18.png","2","null","","200","580.8250003494322","","","","background","",""
"","null","html-keyboard-response","245","571480","0.0-20.0-0.15","SS1604589276116","","null","","","","","","","","","","","","<img src=images/blank.png width =""500"" height = ""500"" style=""border:5px solid black"">","","",""
"","605.574999935925","stimulus-presentation","246","572416","0.0-20.0-1.15","SS1604589276116","<img src='images/complex/16.png' width ='500' height = '500' style='border:5px solid black'>","40","mixed_simple_deviant","images/complex/18.png","images/complex/16.png","images/simple/13.png,images/simple/6.png,images/simple/1.png,images/simple/2.png,images/simple/15.png,images/simple/16.png,images/simple/18.png","2","null","","200","805.574999935925","","","","background","",""
"","null","html-keyboard-response","247","573655","0.0-20.0-0.16","SS1604589276116","","null","","","","","","","","","","","","<img src=images/blank.png width =""500"" height = ""500"" style=""border:5px solid black"">","","",""
"","399.99999990686774","stimulus-presentation","248","574385","0.0-20.0-1.16","SS1604589276116","<img src='images/complex/16.png' width ='500' height = '500' style='border:5px solid black'>","40","mixed_simple_deviant","images/complex/18.png","images/complex/16.png","images/simple/13.png,images/simple/6.png,images/simple/1.png,images/simple/2.png,images/simple/15.png,images/simple/16.png,images/simple/18.png","2","null","","200","599.9999999068677","","","","background","",""
"","null","html-keyboard-response","249","575684","0.0-20.0-0.17","SS1604589276116","","null","","","","","","","","","","","","<img src=images/blank.png width =""500"" height = ""500"" style=""border:5px solid black"">","","",""
"","479.07499969005585","stimulus-presentation","250","576406","0.0-20.0-1.17","SS1604589276116","<img src='images/complex/16.png' width ='500' height = '500' style='border:5px solid black'>","40","mixed_simple_deviant","images/complex/18.png","images/complex/16.png","images/simple/13.png,images/simple/6.png,images/simple/1.png,images/simple/2.png,images/simple/15.png,images/simple/16.png,images/simple/18.png","2","null","","200","679.0749996900558","","","","background","",""
"","null","html-keyboard-response","251","577435","0.0-20.0-0.18","SS1604589276116","","null","","","","","","","","","","","","<img src=images/blank.png width =""500"" height = ""500"" style=""border:5px solid black"">","","",""
"","551.305000204593","stimulus-presentation","252","578238","0.0-20.0-1.18","SS1604589276116","<img src='images/simple/18.png' width ='500' height = '500' style='border:5px solid black'>","40","mixed_simple_deviant","images/complex/18.png","images/complex/16.png","images/simple/13.png,images/simple/6.png,images/simple/1.png,images/simple/2.png,images/simple/15.png,images/simple/16.png,images/simple/18.png","2","null","","200","751.305000204593","","","","deviant","",""
"","null","html-keyboard-response","253","579456","0.0-20.0-0.19","SS1604589276116","","null","","","","","","","","","","","","<img src=images/blank.png width =""500"" height = ""500"" style=""border:5px solid black"">","","",""
"","538.4899997152388","stimulus-presentation","254","580218","0.0-20.0-1.19","SS1604589276116","<img src='images/complex/16.png' width ='500' height = '500' style='border:5px solid black'>","40","mixed_simple_deviant","images/complex/18.png","images/complex/16.png","images/simple/13.png,images/simple/6.png,images/simple/1.png,images/simple/2.png,images/simple/15.png,images/simple/16.png,images/simple/18.png","2","null","","200","738.4899997152388","","","","background","",""
"","null","html-keyboard-response","255","581388","0.0-20.0-0.20","SS1604589276116","","null","","","","","","","","","","","","<img src=images/blank.png width =""500"" height = ""500"" style=""border:5px solid black"">","","",""
"","1699.2649999447167","stimulus-presentation","256","583306","0.0-20.0-1.20","SS1604589276116","<img src='images/complex/16.png' width ='500' height = '500' style='border:5px solid black'>","40","mixed_simple_deviant","images/complex/18.png","images/complex/16.png","images/simple/13.png,images/simple/6.png,images/simple/1.png,images/simple/2.png,images/simple/15.png,images/simple/16.png,images/simple/18.png","2","null","","200","1899.2649999447167","","","","background","",""
"","null","html-keyboard-response","257","584429","0.0-20.0-0.21","SS1604589276116","","null","","","","","","","","","","","","<img src=images/blank.png width =""500"" height = ""500"" style=""border:5px solid black"">","","",""
"","541.5250002406538","stimulus-presentation","258","585207","0.0-20.0-1.21","SS1604589276116","<img src='images/complex/16.png' width ='500' height = '500' style='border:5px solid black'>","40","mixed_simple_deviant","images/complex/18.png","images/complex/16.png","images/simple/13.png,images/simple/6.png,images/simple/1.png,images/simple/2.png,images/simple/15.png,images/simple/16.png,images/simple/18.png","2","null","","200","741.5250002406538","","","","background","",""
"","null","html-keyboard-response","259","586504","0.0-20.0-0.22","SS1604589276116","","null","","","","","","","","","","","","<img src=images/blank.png width =""500"" height = ""500"" style=""border:5px solid black"">","","",""
"","1628.4050000831485","stimulus-presentation","260","588355","0.0-20.0-1.22","SS1604589276116","<img src='images/simple/2.png' width ='500' height = '500' style='border:5px solid black'>","40","mixed_simple_deviant","images/complex/18.png","images/complex/16.png","images/simple/13.png,images/simple/6.png,images/simple/1.png,images/simple/2.png,images/simple/15.png,images/simple/16.png,images/simple/18.png","2","null","","200","1828.4050000831485","","","","deviant","",""
"","null","html-keyboard-response","261","589439","0.0-20.0-0.23","SS1604589276116","","null","","","","","","","","","","","","<img src=images/blank.png width =""500"" height = ""500"" style=""border:5px solid black"">","","",""
"","550.6249996833503","stimulus-presentation","262","590223","0.0-20.0-1.23","SS1604589276116","<img src='images/complex/18.png' width ='500' height = '500' style='border:5px solid black'>","40","mixed_simple_deviant","images/complex/18.png","images/complex/16.png","images/simple/13.png,images/simple/6.png,images/simple/1.png,images/simple/2.png,images/simple/15.png,images/simple/16.png,images/simple/18.png","2","null","","200","750.6249996833503","","","","target","",""
"","null","html-keyboard-response","263","591294","0.0-20.0-0.24","SS1604589276116","","null","","","","","","","","","","","","<img src=images/blank.png width =""500"" height = ""500"" style=""border:5px solid black"">","","",""
"","530.2300001494586","stimulus-presentation","264","592093","0.0-20.0-1.24","SS1604589276116","<img src='images/complex/16.png' width ='500' height = '500' style='border:5px solid black'>","40","mixed_simple_deviant","images/complex/18.png","images/complex/16.png","images/simple/13.png,images/simple/6.png,images/simple/1.png,images/simple/2.png,images/simple/15.png,images/simple/16.png,images/simple/18.png","2","null","","200","730.2300001494586","","","","background","",""
"","null","html-keyboard-response","265","593271","0.0-20.0-0.25","SS1604589276116","","null","","","","","","","","","","","","<img src=images/blank.png width =""500"" height = ""500"" style=""border:5px solid black"">","","",""
"","514.8950000293553","stimulus-presentation","266","594023","0.0-20.0-1.25","SS1604589276116","<img src='images/complex/16.png' width ='500' height = '500' style='border:5px solid black'>","40","mixed_simple_deviant","images/complex/18.png","images/complex/16.png","images/simple/13.png,images/simple/6.png,images/simple/1.png,images/simple/2.png,images/simple/15.png,images/simple/16.png,images/simple/18.png","2","null","","200","714.8950000293553","","","","background","",""
"","null","html-keyboard-response","267","595014","0.0-20.0-0.26","SS1604589276116","","null","","","","","","","","","","","","<img src=images/blank.png width =""500"" height = ""500"" style=""border:5px solid black"">","","",""
"","1800.3750001080334","stimulus-presentation","268","597074","0.0-20.0-1.26","SS1604589276116","<img src='images/simple/1.png' width ='500' height = '500' style='border:5px solid black'>","40","mixed_simple_deviant","images/complex/18.png","images/complex/16.png","images/simple/13.png,images/simple/6.png,images/simple/1.png,images/simple/2.png,images/simple/15.png,images/simple/16.png,images/simple/18.png","2","null","","200","2000.3750001080334","","","","deviant","",""
"","null","html-keyboard-response","269","597992","0.0-20.0-0.27","SS1604589276116","","null","","","","","","","","","","","","<img src=images/blank.png width =""500"" height = ""500"" style=""border:5px solid black"">","","",""
"","570.43999992311","stimulus-presentation","270","598791","0.0-20.0-1.27","SS1604589276116","<img src='images/complex/16.png' width ='500' height = '500' style='border:5px solid black'>","40","mixed_simple_deviant","images/complex/18.png","images/complex/16.png","images/simple/13.png,images/simple/6.png,images/simple/1.png,images/simple/2.png,images/simple/15.png,images/simple/16.png,images/simple/18.png","2","null","","200","770.43999992311","","","","background","",""
"","null","html-keyboard-response","271","599879","0.0-20.0-0.28","SS1604589276116","","null","","","","","","","","","","","","<img src=images/blank.png width =""500"" height = ""500"" style=""border:5px solid black"">","","",""
"","625.5899998359382","stimulus-presentation","272","600732","0.0-20.0-1.28","SS1604589276116","<img src='images/complex/16.png' width ='500' height = '500' style='border:5px solid black'>","40","mixed_simple_deviant","images/complex/18.png","images/complex/16.png","images/simple/13.png,images/simple/6.png,images/simple/1.png,images/simple/2.png,images/simple/15.png,images/simple/16.png,images/simple/18.png","2","null","","200","825.5899998359382","","","","background","",""
"","null","html-keyboard-response","273","601626","0.0-20.0-0.29","SS1604589276116","","null","","","","","","","","","","","","<img src=images/blank.png width =""500"" height = ""500"" style=""border:5px solid black"">","","",""
"","1389.5099996589124","stimulus-presentation","274","603251","0.0-20.0-1.29","SS1604589276116","<img src='images/complex/18.png' width ='500' height = '500' style='border:5px solid black'>","40","mixed_simple_deviant","images/complex/18.png","images/complex/16.png","images/simple/13.png,images/simple/6.png,images/simple/1.png,images/simple/2.png,images/simple/15.png,images/simple/16.png,images/simple/18.png","2","null","","200","1589.5099996589124","yes","659.6399997361004","","target","",""
"","null","html-keyboard-response","275","604413","0.0-20.0-0.30","SS1604589276116","","null","","","","","","","","","","","","<img src=images/blank.png width =""500"" height = ""500"" style=""border:5px solid black"">","","",""
"","1311.005000025034","stimulus-presentation","276","605990","0.0-20.0-1.30","SS1604589276116","<img src='images/complex/18.png' width ='500' height = '500' style='border:5px solid black'>","40","mixed_simple_deviant","images/complex/18.png","images/complex/16.png","images/simple/13.png,images/simple/6.png,images/simple/1.png,images/simple/2.png,images/simple/15.png,images/simple/16.png,images/simple/18.png","2","null","","200","1511.005000025034","yes","526.8749999813735","","target","",""
"","null","html-keyboard-response","277","606865","0.0-20.0-0.31","SS1604589276116","","null","","","","","","","","","","","","<img src=images/blank.png width =""500"" height = ""500"" style=""border:5px solid black"">","","",""
"","607.6099998317659","stimulus-presentation","278","607736","0.0-20.0-1.31","SS1604589276116","<img src='images/complex/16.png' width ='500' height = '500' style='border:5px solid black'>","40","mixed_simple_deviant","images/complex/18.png","images/complex/16.png","images/simple/13.png,images/simple/6.png,images/simple/1.png,images/simple/2.png,images/simple/15.png,images/simple/16.png,images/simple/18.png","2","null","","200","807.6099998317659","","","","background","",""
"","null","html-keyboard-response","279","608827","0.0-20.0-0.32","SS1604589276116","","null","","","","","","","","","","","","<img src=images/blank.png width =""500"" height = ""500"" style=""border:5px solid black"">","","",""
"","919.8699998669326","stimulus-presentation","280","609986","0.0-20.0-1.32","SS1604589276116","<img src='images/simple/6.png' width ='500' height = '500' style='border:5px solid black'>","40","mixed_simple_deviant","images/complex/18.png","images/complex/16.png","images/simple/13.png,images/simple/6.png,images/simple/1.png,images/simple/2.png,images/simple/15.png,images/simple/16.png,images/simple/18.png","2","null","","200","1119.8699998669326","","","","deviant","",""
"","null","html-keyboard-response","281","611228","0.0-20.0-0.33","SS1604589276116","","null","","","","","","","","","","","","<img src=images/blank.png width =""500"" height = ""500"" style=""border:5px solid black"">","","",""
"","482.3599997907877","stimulus-presentation","282","611931","0.0-20.0-1.33","SS1604589276116","<img src='images/complex/18.png' width ='500' height = '500' style='border:5px solid black'>","40","mixed_simple_deviant","images/complex/18.png","images/complex/16.png","images/simple/13.png,images/simple/6.png,images/simple/1.png,images/simple/2.png,images/simple/15.png,images/simple/16.png,images/simple/18.png","2","null","","200","682.3599997907877","","","","target","",""
