"view_history","rt","trial_type","trial_index","time_elapsed","internal_node_id","subject","trial_stimulus","key_press","task_type","task_target_stimulus","task_background_stimulus","task_deviant_stimuli","task_order_number","block_order_number","trial_order_number","minimum_viewing_duration","trial_looking_time","trial_pressed_space_bar","trial_space_bar_rt","stimulus","trial_stimulus_type"
"[{""page_index"":0,""viewing_time"":23097.62000013143}]","23097.96499996446","instructions","0","23116","0.0-0.0","SS1604513241143","","","","","","","","","","","","","","",""
"[{""page_index"":0,""viewing_time"":9423.179999925196},{""page_index"":1,""viewing_time"":3488.395000109449},{""page_index"":2,""viewing_time"":62255.9299999848},{""page_index"":3,""viewing_time"":5848.694999935105},{""page_index"":4,""viewing_time"":4584.574999986216},{""page_index"":5,""viewing_time"":4672.53000009805},{""page_index"":6,""viewing_time"":1960.2949998807162},{""page_index"":7,""viewing_time"":5456.715000094846},{""page_index"":8,""viewing_time"":2608.3150000777096}]","100298.88999997638","instructions","1","123417","0.0-1.0","SS1604513241143","","","","","","","","","","","","","","",""
"[{""page_index"":0,""viewing_time"":32554.995000129566},{""page_index"":1,""viewing_time"":4392.604999942705},{""page_index"":2,""viewing_time"":1312.14000005275}]","38259.99499997124","instructions","2","161677","0.0-2.0","SS1604513241143","","","","","","","","","","","","","","",""
"","1567.9949999321252","practice-block","3","163448","0.0-3.0","SS1604513241143","<img src='images/practice/practice_background.jpeg' width ='500' height = '500' style='border:5px solid black'>","40","null","images/practice/practice_target.jpg","null","null","null","null","","200","1767.9949999321252","","","",""
"","null","html-keyboard-response","4","164697","0.0-4.0","SS1604513241143","","null","","","","","","","","","","","","<img src=images/blank.png width =""500"" height = ""500"" style=""border:5px solid black"">",""
"","1140.330000082031","practice-block","5","166039","0.0-5.0","SS1604513241143","<img src='images/practice/practice_background.jpeg' width ='500' height = '500' style='border:5px solid black'>","40","null","images/practice/practice_target.jpg","null","null","null","null","","200","1340.330000082031","","","",""
"","null","html-keyboard-response","6","167132","0.0-6.0","SS1604513241143","","null","","","","","","","","","","","","<img src=images/blank.png width =""500"" height = ""500"" style=""border:5px solid black"">",""
"","433.2799999974668","practice-block","7","167767","0.0-7.0","SS1604513241143","<img src='images/practice/practice_deviant.jpeg' width ='500' height = '500' style='border:5px solid black'>","40","null","images/practice/practice_target.jpg","null","null","null","null","","200","633.2799999974668","","","",""
"","null","html-keyboard-response","8","168875","0.0-8.0","SS1604513241143","","null","","","","","","","","","","","","<img src=images/blank.png width =""500"" height = ""500"" style=""border:5px solid black"">",""
"","4291.054999921471","practice-block","9","173367","0.0-9.0-0.0","SS1604513241143","<img src='images/practice/practice_target.jpg' width ='500' height = '500' style='border:5px solid black'>","40","null","images/practice/practice_target.jpg","null","null","null","null","","200","4491.054999921471","yes","323.20500002242625","",""
"","null","html-keyboard-response","10","174218","0.0-10.0","SS1604513241143","","null","","","","","","","","","","","","<img src=images/blank.png width =""500"" height = ""500"" style=""border:5px solid black"">",""
"","259.92500013671815","practice-block","11","174680","0.0-11.0","SS1604513241143","<img src='images/practice/practice_background.jpeg' width ='500' height = '500' style='border:5px solid black'>","40","null","images/practice/practice_target.jpg","null","null","null","null","","200","459.92500013671815","","","",""
"[{""page_index"":0,""viewing_time"":2134}]","2134","task-instructions","12","176815","0.0-12.0","SS1604513241143","","","","","","","","","","","","","","",""
"[{""page_index"":0,""viewing_time"":3038.8850001618266},{""page_index"":1,""viewing_time"":4560.534999938682},{""page_index"":2,""viewing_time"":1160.1899999659508}]","8759.860000107437","instructions","13","185576","0.0-13.0","SS1604513241143","","","","","","","","","","","","","","",""
"","null","html-keyboard-response","14","186520","0.0-14.0-0.0","SS1604513241143","","null","","","","","","","","","","","","<img src=images/blank.png width =""500"" height = ""500"" style=""border:5px solid black"">",""
"","580.8149999938905","stimulus-presentation","15","187303","0.0-14.0-1.0","SS1604513241143","<img src='images/simple/5.png' width ='500' height = '500' style='border:5px solid black'>","40","all_simple","images/simple/8.png","images/simple/17.png","images/simple/4.png,images/simple/15.png,images/simple/5.png,images/simple/1.png,images/simple/12.png,images/simple/2.png,images/simple/13.png","0","null","","200","780.8149999938905","","","","deviant"
"","null","html-keyboard-response","16","188270","0.0-14.0-0.1","SS1604513241143","","null","","","","","","","","","","","","<img src=images/blank.png width =""500"" height = ""500"" style=""border:5px solid black"">",""
"","575.7699999958277","stimulus-presentation","17","189047","0.0-14.0-1.1","SS1604513241143","<img src='images/simple/17.png' width ='500' height = '500' style='border:5px solid black'>","40","all_simple","images/simple/8.png","images/simple/17.png","images/simple/4.png,images/simple/15.png,images/simple/5.png,images/simple/1.png,images/simple/12.png,images/simple/2.png,images/simple/13.png","0","null","","200","775.7699999958277","","","","background"
"","null","html-keyboard-response","18","189924","0.0-14.0-0.2","SS1604513241143","","null","","","","","","","","","","","","<img src=images/blank.png width =""500"" height = ""500"" style=""border:5px solid black"">",""
"","4608.710000058636","stimulus-presentation","19","194735","0.0-14.0-1.2","SS1604513241143","<img src='images/simple/8.png' width ='500' height = '500' style='border:5px solid black'>","40","all_simple","images/simple/8.png","images/simple/17.png","images/simple/4.png,images/simple/15.png,images/simple/5.png,images/simple/1.png,images/simple/12.png,images/simple/2.png,images/simple/13.png","0","null","","200","4808.710000058636","yes","2160.7200000435114","","target"
"","null","html-keyboard-response","20","195733","0.0-14.0-0.3","SS1604513241143","","null","","","","","","","","","","","","<img src=images/blank.png width =""500"" height = ""500"" style=""border:5px solid black"">",""
"","336.1899999435991","stimulus-presentation","21","196272","0.0-14.0-1.3","SS1604513241143","<img src='images/simple/17.png' width ='500' height = '500' style='border:5px solid black'>","40","all_simple","images/simple/8.png","images/simple/17.png","images/simple/4.png,images/simple/15.png,images/simple/5.png,images/simple/1.png,images/simple/12.png,images/simple/2.png,images/simple/13.png","0","null","","200","536.1899999435991","","","","background"
"","null","html-keyboard-response","22","197141","0.0-14.0-0.4","SS1604513241143","","null","","","","","","","","","","","","<img src=images/blank.png width =""500"" height = ""500"" style=""border:5px solid black"">",""
"","1255.6900000199676","stimulus-presentation","23","198599","0.0-14.0-1.4","SS1604513241143","<img src='images/simple/8.png' width ='500' height = '500' style='border:5px solid black'>","40","all_simple","images/simple/8.png","images/simple/17.png","images/simple/4.png,images/simple/15.png,images/simple/5.png,images/simple/1.png,images/simple/12.png,images/simple/2.png,images/simple/13.png","0","null","","200","1455.6900000199676","yes","367.6850001793355","","target"
"","null","html-keyboard-response","24","199437","0.0-14.0-0.5","SS1604513241143","","null","","","","","","","","","","","","<img src=images/blank.png width =""500"" height = ""500"" style=""border:5px solid black"">",""
"","256.2600001692772","stimulus-presentation","25","199895","0.0-14.0-1.5","SS1604513241143","<img src='images/simple/17.png' width ='500' height = '500' style='border:5px solid black'>","40","all_simple","images/simple/8.png","images/simple/17.png","images/simple/4.png,images/simple/15.png,images/simple/5.png,images/simple/1.png,images/simple/12.png,images/simple/2.png,images/simple/13.png","0","null","","200","456.2600001692772","","","","background"
"","null","html-keyboard-response","26","200863","0.0-14.0-0.6","SS1604513241143","","null","","","","","","","","","","","","<img src=images/blank.png width =""500"" height = ""500"" style=""border:5px solid black"">",""
"","141.74499991349876","stimulus-presentation","27","201207","0.0-14.0-1.6","SS1604513241143","<img src='images/simple/17.png' width ='500' height = '500' style='border:5px solid black'>","40","all_simple","images/simple/8.png","images/simple/17.png","images/simple/4.png,images/simple/15.png,images/simple/5.png,images/simple/1.png,images/simple/12.png,images/simple/2.png,images/simple/13.png","0","null","","200","341.74499991349876","","","","background"
"","null","html-keyboard-response","28","202454","0.0-14.0-0.7","SS1604513241143","","null","","","","","","","","","","","","<img src=images/blank.png width =""500"" height = ""500"" style=""border:5px solid black"">",""
"","190.85499993525445","stimulus-presentation","29","202847","0.0-14.0-1.7","SS1604513241143","<img src='images/simple/17.png' width ='500' height = '500' style='border:5px solid black'>","40","all_simple","images/simple/8.png","images/simple/17.png","images/simple/4.png,images/simple/15.png,images/simple/5.png,images/simple/1.png,images/simple/12.png,images/simple/2.png,images/simple/13.png","0","null","","200","390.85499993525445","","","","background"
"","null","html-keyboard-response","30","203758","0.0-14.0-0.8","SS1604513241143","","null","","","","","","","","","","","","<img src=images/blank.png width =""500"" height = ""500"" style=""border:5px solid black"">",""
"","167.75000002235174","stimulus-presentation","31","204127","0.0-14.0-1.8","SS1604513241143","<img src='images/simple/17.png' width ='500' height = '500' style='border:5px solid black'>","40","all_simple","images/simple/8.png","images/simple/17.png","images/simple/4.png,images/simple/15.png,images/simple/5.png,images/simple/1.png,images/simple/12.png,images/simple/2.png,images/simple/13.png","0","null","","200","367.75000002235174","","","","background"
"","null","html-keyboard-response","32","204979","0.0-14.0-0.9","SS1604513241143","","null","","","","","","","","","","","","<img src=images/blank.png width =""500"" height = ""500"" style=""border:5px solid black"">",""
"","313.2700000423938","stimulus-presentation","33","205495","0.0-14.0-1.9","SS1604513241143","<img src='images/simple/15.png' width ='500' height = '500' style='border:5px solid black'>","40","all_simple","images/simple/8.png","images/simple/17.png","images/simple/4.png,images/simple/15.png,images/simple/5.png,images/simple/1.png,images/simple/12.png,images/simple/2.png,images/simple/13.png","0","null","","200","513.2700000423938","","","","deviant"
"","null","html-keyboard-response","34","206741","0.0-14.0-0.10","SS1604513241143","","null","","","","","","","","","","","","<img src=images/blank.png width =""500"" height = ""500"" style=""border:5px solid black"">",""
"","416.93999990820885","stimulus-presentation","35","207360","0.0-14.0-1.10","SS1604513241143","<img src='images/simple/17.png' width ='500' height = '500' style='border:5px solid black'>","40","all_simple","images/simple/8.png","images/simple/17.png","images/simple/4.png,images/simple/15.png,images/simple/5.png,images/simple/1.png,images/simple/12.png,images/simple/2.png,images/simple/13.png","0","null","","200","616.9399999082088","","","","background"
"","null","html-keyboard-response","36","208287","0.0-14.0-0.11","SS1604513241143","","null","","","","","","","","","","","","<img src=images/blank.png width =""500"" height = ""500"" style=""border:5px solid black"">",""
"","269.06499988399446","stimulus-presentation","37","208759","0.0-14.0-1.11","SS1604513241143","<img src='images/simple/17.png' width ='500' height = '500' style='border:5px solid black'>","40","all_simple","images/simple/8.png","images/simple/17.png","images/simple/4.png,images/simple/15.png,images/simple/5.png,images/simple/1.png,images/simple/12.png,images/simple/2.png,images/simple/13.png","0","null","","200","469.06499988399446","","","","background"
"","null","html-keyboard-response","38","209977","0.0-14.0-0.12","SS1604513241143","","null","","","","","","","","","","","","<img src=images/blank.png width =""500"" height = ""500"" style=""border:5px solid black"">",""
"","852.1850001998246","stimulus-presentation","39","211031","0.0-14.0-1.12","SS1604513241143","<img src='images/simple/8.png' width ='500' height = '500' style='border:5px solid black'>","40","all_simple","images/simple/8.png","images/simple/17.png","images/simple/4.png,images/simple/15.png,images/simple/5.png,images/simple/1.png,images/simple/12.png,images/simple/2.png,images/simple/13.png","0","null","","200","1052.1850001998246","yes","180.265000090003","","target"
"","null","html-keyboard-response","40","211940","0.0-14.0-0.13","SS1604513241143","","null","","","","","","","","","","","","<img src=images/blank.png width =""500"" height = ""500"" style=""border:5px solid black"">",""
"","336.5200001280755","stimulus-presentation","41","212479","0.0-14.0-1.13","SS1604513241143","<img src='images/simple/1.png' width ='500' height = '500' style='border:5px solid black'>","40","all_simple","images/simple/8.png","images/simple/17.png","images/simple/4.png,images/simple/15.png,images/simple/5.png,images/simple/1.png,images/simple/12.png,images/simple/2.png,images/simple/13.png","0","null","","200","536.5200001280755","","","","deviant"
"","null","html-keyboard-response","42","213648","0.0-14.0-0.14","SS1604513241143","","null","","","","","","","","","","","","<img src=images/blank.png width =""500"" height = ""500"" style=""border:5px solid black"">",""
"","221.14000003784895","stimulus-presentation","43","214071","0.0-14.0-1.14","SS1604513241143","<img src='images/simple/17.png' width ='500' height = '500' style='border:5px solid black'>","40","all_simple","images/simple/8.png","images/simple/17.png","images/simple/4.png,images/simple/15.png,images/simple/5.png,images/simple/1.png,images/simple/12.png,images/simple/2.png,images/simple/13.png","0","null","","200","421.14000003784895","","","","background"
"","null","html-keyboard-response","44","214919","0.0-14.0-0.15","SS1604513241143","","null","","","","","","","","","","","","<img src=images/blank.png width =""500"" height = ""500"" style=""border:5px solid black"">",""
"","165.55999987758696","stimulus-presentation","45","215287","0.0-14.0-1.15","SS1604513241143","<img src='images/simple/17.png' width ='500' height = '500' style='border:5px solid black'>","40","all_simple","images/simple/8.png","images/simple/17.png","images/simple/4.png,images/simple/15.png,images/simple/5.png,images/simple/1.png,images/simple/12.png,images/simple/2.png,images/simple/13.png","0","null","","200","365.55999987758696","","","","background"
"","null","html-keyboard-response","46","216201","0.0-14.0-0.16","SS1604513241143","","null","","","","","","","","","","","","<img src=images/blank.png width =""500"" height = ""500"" style=""border:5px solid black"">",""
"","179.47499989531934","stimulus-presentation","47","216583","0.0-14.0-1.16","SS1604513241143","<img src='images/simple/17.png' width ='500' height = '500' style='border:5px solid black'>","40","all_simple","images/simple/8.png","images/simple/17.png","images/simple/4.png,images/simple/15.png,images/simple/5.png,images/simple/1.png,images/simple/12.png,images/simple/2.png,images/simple/13.png","0","null","","200","379.47499989531934","","","","background"
"","null","html-keyboard-response","48","217461","0.0-14.0-0.17","SS1604513241143","","null","","","","","","","","","","","","<img src=images/blank.png width =""500"" height = ""500"" style=""border:5px solid black"">",""
"","185.0550000090152","stimulus-presentation","49","217848","0.0-14.0-1.17","SS1604513241143","<img src='images/simple/17.png' width ='500' height = '500' style='border:5px solid black'>","40","all_simple","images/simple/8.png","images/simple/17.png","images/simple/4.png,images/simple/15.png,images/simple/5.png,images/simple/1.png,images/simple/12.png,images/simple/2.png,images/simple/13.png","0","null","","200","385.0550000090152","","","","background"
"","null","html-keyboard-response","50","218724","0.0-14.0-0.18","SS1604513241143","","null","","","","","","","","","","","","<img src=images/blank.png width =""500"" height = ""500"" style=""border:5px solid black"">",""
"","144.33000003919005","stimulus-presentation","51","219071","0.0-14.0-1.18","SS1604513241143","<img src='images/simple/17.png' width ='500' height = '500' style='border:5px solid black'>","40","all_simple","images/simple/8.png","images/simple/17.png","images/simple/4.png,images/simple/15.png,images/simple/5.png,images/simple/1.png,images/simple/12.png,images/simple/2.png,images/simple/13.png","0","null","","200","344.33000003919005","","","","background"
"","null","html-keyboard-response","52","220128","0.0-14.0-0.19","SS1604513241143","","null","","","","","","","","","","","","<img src=images/blank.png width =""500"" height = ""500"" style=""border:5px solid black"">",""
"","180.2050000987947","stimulus-presentation","53","220511","0.0-14.0-1.19","SS1604513241143","<img src='images/simple/17.png' width ='500' height = '500' style='border:5px solid black'>","40","all_simple","images/simple/8.png","images/simple/17.png","images/simple/4.png,images/simple/15.png,images/simple/5.png,images/simple/1.png,images/simple/12.png,images/simple/2.png,images/simple/13.png","0","null","","200","380.2050000987947","","","","background"
"","null","html-keyboard-response","54","221797","0.0-14.0-0.20","SS1604513241143","","null","","","","","","","","","","","","<img src=images/blank.png width =""500"" height = ""500"" style=""border:5px solid black"">",""
"","319.60500008426607","stimulus-presentation","55","222319","0.0-14.0-1.20","SS1604513241143","<img src='images/simple/12.png' width ='500' height = '500' style='border:5px solid black'>","40","all_simple","images/simple/8.png","images/simple/17.png","images/simple/4.png,images/simple/15.png,images/simple/5.png,images/simple/1.png,images/simple/12.png,images/simple/2.png,images/simple/13.png","0","null","","200","519.6050000842661","","","","deviant"
"","null","html-keyboard-response","56","223289","0.0-14.0-0.21","SS1604513241143","","null","","","","","","","","","","","","<img src=images/blank.png width =""500"" height = ""500"" style=""border:5px solid black"">",""
"","258.8599999435246","stimulus-presentation","57","223751","0.0-14.0-1.21","SS1604513241143","<img src='images/simple/17.png' width ='500' height = '500' style='border:5px solid black'>","40","all_simple","images/simple/8.png","images/simple/17.png","images/simple/4.png,images/simple/15.png,images/simple/5.png,images/simple/1.png,images/simple/12.png,images/simple/2.png,images/simple/13.png","0","null","","200","458.8599999435246","","","","background"
"","null","html-keyboard-response","58","224972","0.0-14.0-0.22","SS1604513241143","","null","","","","","","","","","","","","<img src=images/blank.png width =""500"" height = ""500"" style=""border:5px solid black"">",""
"","183.89500002376735","stimulus-presentation","59","225359","0.0-14.0-1.22","SS1604513241143","<img src='images/simple/17.png' width ='500' height = '500' style='border:5px solid black'>","40","all_simple","images/simple/8.png","images/simple/17.png","images/simple/4.png,images/simple/15.png,images/simple/5.png,images/simple/1.png,images/simple/12.png,images/simple/2.png,images/simple/13.png","0","null","","200","383.89500002376735","","","","background"
"","null","html-keyboard-response","60","226274","0.0-14.0-0.23","SS1604513241143","","null","","","","","","","","","","","","<img src=images/blank.png width =""500"" height = ""500"" style=""border:5px solid black"">",""
"","210.16500005498528","stimulus-presentation","61","226687","0.0-14.0-1.23","SS1604513241143","<img src='images/simple/17.png' width ='500' height = '500' style='border:5px solid black'>","40","all_simple","images/simple/8.png","images/simple/17.png","images/simple/4.png,images/simple/15.png,images/simple/5.png,images/simple/1.png,images/simple/12.png,images/simple/2.png,images/simple/13.png","0","null","","200","410.1650000549853","","","","background"
"","null","html-keyboard-response","62","227616","0.0-14.0-0.24","SS1604513241143","","null","","","","","","","","","","","","<img src=images/blank.png width =""500"" height = ""500"" style=""border:5px solid black"">",""
"","173.41000004671514","stimulus-presentation","63","227992","0.0-14.0-1.24","SS1604513241143","<img src='images/simple/17.png' width ='500' height = '500' style='border:5px solid black'>","40","all_simple","images/simple/8.png","images/simple/17.png","images/simple/4.png,images/simple/15.png,images/simple/5.png,images/simple/1.png,images/simple/12.png,images/simple/2.png,images/simple/13.png","0","null","","200","373.41000004671514","","","","background"
"","null","html-keyboard-response","64","228831","0.0-14.0-0.25","SS1604513241143","","null","","","","","","","","","","","","<img src=images/blank.png width =""500"" height = ""500"" style=""border:5px solid black"">",""
"","141.4799999911338","stimulus-presentation","65","229175","0.0-14.0-1.25","SS1604513241143","<img src='images/simple/17.png' width ='500' height = '500' style='border:5px solid black'>","40","all_simple","images/simple/8.png","images/simple/17.png","images/simple/4.png,images/simple/15.png,images/simple/5.png,images/simple/1.png,images/simple/12.png,images/simple/2.png,images/simple/13.png","0","null","","200","341.4799999911338","","","","background"
"","null","html-keyboard-response","66","230369","0.0-14.0-0.26","SS1604513241143","","null","","","","","","","","","","","","<img src=images/blank.png width =""500"" height = ""500"" style=""border:5px solid black"">",""
"","1051.340000005439","stimulus-presentation","67","231623","0.0-14.0-1.26","SS1604513241143","<img src='images/simple/8.png' width ='500' height = '500' style='border:5px solid black'>","40","all_simple","images/simple/8.png","images/simple/17.png","images/simple/4.png,images/simple/15.png,images/simple/5.png,images/simple/1.png,images/simple/12.png,images/simple/2.png,images/simple/13.png","0","null","","200","1251.340000005439","yes","363.35500003769994","","target"
"","null","html-keyboard-response","68","232775","0.0-14.0-0.27","SS1604513241143","","null","","","","","","","","","","","","<img src=images/blank.png width =""500"" height = ""500"" style=""border:5px solid black"">",""
"","252.34000012278557","stimulus-presentation","69","233231","0.0-14.0-1.27","SS1604513241143","<img src='images/simple/17.png' width ='500' height = '500' style='border:5px solid black'>","40","all_simple","images/simple/8.png","images/simple/17.png","images/simple/4.png,images/simple/15.png,images/simple/5.png,images/simple/1.png,images/simple/12.png,images/simple/2.png,images/simple/13.png","0","null","","200","452.34000012278557","","","","background"
"","null","html-keyboard-response","70","234341","0.0-14.0-0.28","SS1604513241143","","null","","","","","","","","","","","","<img src=images/blank.png width =""500"" height = ""500"" style=""border:5px solid black"">",""
"","199.71000007353723","stimulus-presentation","71","234743","0.0-14.0-1.28","SS1604513241143","<img src='images/simple/17.png' width ='500' height = '500' style='border:5px solid black'>","40","all_simple","images/simple/8.png","images/simple/17.png","images/simple/4.png,images/simple/15.png,images/simple/5.png,images/simple/1.png,images/simple/12.png,images/simple/2.png,images/simple/13.png","0","null","","200","399.71000007353723","","","","background"
"","null","html-keyboard-response","72","235620","0.0-14.0-0.29","SS1604513241143","","null","","","","","","","","","","","","<img src=images/blank.png width =""500"" height = ""500"" style=""border:5px solid black"">",""
"","856.2399998772889","stimulus-presentation","73","236679","0.0-14.0-1.29","SS1604513241143","<img src='images/simple/8.png' width ='500' height = '500' style='border:5px solid black'>","40","all_simple","images/simple/8.png","images/simple/17.png","images/simple/4.png,images/simple/15.png,images/simple/5.png,images/simple/1.png,images/simple/12.png,images/simple/2.png,images/simple/13.png","0","null","","200","1056.239999877289","yes","240.28499983251095","","target"
"","null","html-keyboard-response","74","237916","0.0-14.0-0.30","SS1604513241143","","null","","","","","","","","","","","","<img src=images/blank.png width =""500"" height = ""500"" style=""border:5px solid black"">",""
"","289.86000013537705","stimulus-presentation","75","238408","0.0-14.0-1.30","SS1604513241143","<img src='images/simple/2.png' width ='500' height = '500' style='border:5px solid black'>","40","all_simple","images/simple/8.png","images/simple/17.png","images/simple/4.png,images/simple/15.png,images/simple/5.png,images/simple/1.png,images/simple/12.png,images/simple/2.png,images/simple/13.png","0","null","","200","489.86000013537705","","","","deviant"
"","null","html-keyboard-response","76","239308","0.0-14.0-0.31","SS1604513241143","","null","","","","","","","","","","","","<img src=images/blank.png width =""500"" height = ""500"" style=""border:5px solid black"">",""
"","175.6100000347942","stimulus-presentation","77","239687","0.0-14.0-1.31","SS1604513241143","<img src='images/simple/17.png' width ='500' height = '500' style='border:5px solid black'>","40","all_simple","images/simple/8.png","images/simple/17.png","images/simple/4.png,images/simple/15.png,images/simple/5.png,images/simple/1.png,images/simple/12.png,images/simple/2.png,images/simple/13.png","0","null","","200","375.6100000347942","","","","background"
"","null","html-keyboard-response","78","240643","0.0-14.0-0.32","SS1604513241143","","null","","","","","","","","","","","","<img src=images/blank.png width =""500"" height = ""500"" style=""border:5px solid black"">",""
"","160.99500004202127","stimulus-presentation","79","241007","0.0-14.0-1.32","SS1604513241143","<img src='images/simple/17.png' width ='500' height = '500' style='border:5px solid black'>","40","all_simple","images/simple/8.png","images/simple/17.png","images/simple/4.png,images/simple/15.png,images/simple/5.png,images/simple/1.png,images/simple/12.png,images/simple/2.png,images/simple/13.png","0","null","","200","360.9950000420213","","","","background"
"","null","html-keyboard-response","80","242135","0.0-14.0-0.33","SS1604513241143","","null","","","","","","","","","","","","<img src=images/blank.png width =""500"" height = ""500"" style=""border:5px solid black"">",""
"","132.80000002123415","stimulus-presentation","81","242471","0.0-14.0-1.33","SS1604513241143","<img src='images/simple/17.png' width ='500' height = '500' style='border:5px solid black'>","40","all_simple","images/simple/8.png","images/simple/17.png","images/simple/4.png,images/simple/15.png,images/simple/5.png,images/simple/1.png,images/simple/12.png,images/simple/2.png,images/simple/13.png","0","null","","200","332.80000002123415","","","","background"
"","null","html-keyboard-response","82","243439","0.0-14.0-0.34","SS1604513241143","","null","","","","","","","","","","","","<img src=images/blank.png width =""500"" height = ""500"" style=""border:5px solid black"">",""
"","157.90500002913177","stimulus-presentation","83","243799","0.0-14.0-1.34","SS1604513241143","<img src='images/simple/17.png' width ='500' height = '500' style='border:5px solid black'>","40","all_simple","images/simple/8.png","images/simple/17.png","images/simple/4.png,images/simple/15.png,images/simple/5.png,images/simple/1.png,images/simple/12.png,images/simple/2.png,images/simple/13.png","0","null","","200","357.90500002913177","","","","background"
"","null","html-keyboard-response","84","244742","0.0-14.0-0.35","SS1604513241143","","null","","","","","","","","","","","","<img src=images/blank.png width =""500"" height = ""500"" style=""border:5px solid black"">",""
"","110.86000013165176","stimulus-presentation","85","245055","0.0-14.0-1.35","SS1604513241143","<img src='images/simple/17.png' width ='500' height = '500' style='border:5px solid black'>","40","all_simple","images/simple/8.png","images/simple/17.png","images/simple/4.png,images/simple/15.png,images/simple/5.png,images/simple/1.png,images/simple/12.png,images/simple/2.png,images/simple/13.png","0","null","","200","310.86000013165176","","","","background"
"","null","html-keyboard-response","86","245951","0.0-14.0-0.36","SS1604513241143","","null","","","","","","","","","","","","<img src=images/blank.png width =""500"" height = ""500"" style=""border:5px solid black"">",""
"","157.1549999061972","stimulus-presentation","87","246311","0.0-14.0-1.36","SS1604513241143","<img src='images/simple/17.png' width ='500' height = '500' style='border:5px solid black'>","40","all_simple","images/simple/8.png","images/simple/17.png","images/simple/4.png,images/simple/15.png,images/simple/5.png,images/simple/1.png,images/simple/12.png,images/simple/2.png,images/simple/13.png","0","null","","200","357.1549999061972","","","","background"
"","null","html-keyboard-response","88","247230","0.0-14.0-0.37","SS1604513241143","","null","","","","","","","","","","","","<img src=images/blank.png width =""500"" height = ""500"" style=""border:5px solid black"">",""
"","174.4350001681596","stimulus-presentation","89","247607","0.0-14.0-1.37","SS1604513241143","<img src='images/simple/17.png' width ='500' height = '500' style='border:5px solid black'>","40","all_simple","images/simple/8.png","images/simple/17.png","images/simple/4.png,images/simple/15.png,images/simple/5.png,images/simple/1.png,images/simple/12.png,images/simple/2.png,images/simple/13.png","0","null","","200","374.4350001681596","","","","background"
"","null","html-keyboard-response","90","248568","0.0-14.0-0.38","SS1604513241143","","null","","","","","","","","","","","","<img src=images/blank.png width =""500"" height = ""500"" style=""border:5px solid black"">",""
"","820.9150000475347","stimulus-presentation","91","249591","0.0-14.0-1.38","SS1604513241143","<img src='images/simple/8.png' width ='500' height = '500' style='border:5px solid black'>","40","all_simple","images/simple/8.png","images/simple/17.png","images/simple/4.png,images/simple/15.png,images/simple/5.png,images/simple/1.png,images/simple/12.png,images/simple/2.png,images/simple/13.png","0","null","","200","1020.9150000475347","yes","229.7600000165403","","target"
"","null","html-keyboard-response","92","250676","0.0-14.0-0.39","SS1604513241143","","null","","","","","","","","","","","","<img src=images/blank.png width =""500"" height = ""500"" style=""border:5px solid black"">",""
"","865.1150001678616","stimulus-presentation","93","251744","0.0-14.0-1.39","SS1604513241143","<img src='images/simple/8.png' width ='500' height = '500' style='border:5px solid black'>","40","all_simple","images/simple/8.png","images/simple/17.png","images/simple/4.png,images/simple/15.png,images/simple/5.png,images/simple/1.png,images/simple/12.png,images/simple/2.png,images/simple/13.png","0","null","","200","1065.1150001678616","yes","288.9549999963492","","target"
"","null","html-keyboard-response","94","252759","0.0-14.0-0.40","SS1604513241143","","null","","","","","","","","","","","","<img src=images/blank.png width =""500"" height = ""500"" style=""border:5px solid black"">",""
"","389.34999983757734","stimulus-presentation","95","253351","0.0-14.0-1.40","SS1604513241143","<img src='images/simple/4.png' width ='500' height = '500' style='border:5px solid black'>","40","all_simple","images/simple/8.png","images/simple/17.png","images/simple/4.png,images/simple/15.png,images/simple/5.png,images/simple/1.png,images/simple/12.png,images/simple/2.png,images/simple/13.png","0","null","","200","589.3499998375773","","","","deviant"
"","null","html-keyboard-response","96","254269","0.0-14.0-0.41","SS1604513241143","","null","","","","","","","","","","","","<img src=images/blank.png width =""500"" height = ""500"" style=""border:5px solid black"">",""
"","182.44499992579222","stimulus-presentation","97","254655","0.0-14.0-1.41","SS1604513241143","<img src='images/simple/17.png' width ='500' height = '500' style='border:5px solid black'>","40","all_simple","images/simple/8.png","images/simple/17.png","images/simple/4.png,images/simple/15.png,images/simple/5.png,images/simple/1.png,images/simple/12.png,images/simple/2.png,images/simple/13.png","0","null","","200","382.4449999257922","","","","background"
"","null","html-keyboard-response","98","255466","0.0-14.0-0.42","SS1604513241143","","null","","","","","","","","","","","","<img src=images/blank.png width =""500"" height = ""500"" style=""border:5px solid black"">",""
"","169.13000005297363","stimulus-presentation","99","255839","0.0-14.0-1.42","SS1604513241143","<img src='images/simple/17.png' width ='500' height = '500' style='border:5px solid black'>","40","all_simple","images/simple/8.png","images/simple/17.png","images/simple/4.png,images/simple/15.png,images/simple/5.png,images/simple/1.png,images/simple/12.png,images/simple/2.png,images/simple/13.png","0","null","","200","369.1300000529736","","","","background"
"","null","html-keyboard-response","100","256766","0.0-14.0-0.43","SS1604513241143","","null","","","","","","","","","","","","<img src=images/blank.png width =""500"" height = ""500"" style=""border:5px solid black"">",""
"","157.26999985054135","stimulus-presentation","101","257127","0.0-14.0-1.43","SS1604513241143","<img src='images/simple/17.png' width ='500' height = '500' style='border:5px solid black'>","40","all_simple","images/simple/8.png","images/simple/17.png","images/simple/4.png,images/simple/15.png,images/simple/5.png,images/simple/1.png,images/simple/12.png,images/simple/2.png,images/simple/13.png","0","null","","200","357.26999985054135","","","","background"
"","null","html-keyboard-response","102","258174","0.0-14.0-0.44","SS1604513241143","","null","","","","","","","","","","","","<img src=images/blank.png width =""500"" height = ""500"" style=""border:5px solid black"">",""
"","237.96000005677342","stimulus-presentation","103","258615","0.0-14.0-1.44","SS1604513241143","<img src='images/simple/17.png' width ='500' height = '500' style='border:5px solid black'>","40","all_simple","images/simple/8.png","images/simple/17.png","images/simple/4.png,images/simple/15.png,images/simple/5.png,images/simple/1.png,images/simple/12.png,images/simple/2.png,images/simple/13.png","0","null","","200","437.9600000567734","","","","background"
"","null","html-keyboard-response","104","259450","0.0-14.0-0.45","SS1604513241143","","null","","","","","","","","","","","","<img src=images/blank.png width =""500"" height = ""500"" style=""border:5px solid black"">",""
"","267.3649999778718","stimulus-presentation","105","259920","0.0-14.0-1.45","SS1604513241143","<img src='images/simple/17.png' width ='500' height = '500' style='border:5px solid black'>","40","all_simple","images/simple/8.png","images/simple/17.png","images/simple/4.png,images/simple/15.png,images/simple/5.png,images/simple/1.png,images/simple/12.png,images/simple/2.png,images/simple/13.png","0","null","","200","467.3649999778718","","","","background"
"","null","html-keyboard-response","106","261084","0.0-14.0-0.46","SS1604513241143","","null","","","","","","","","","","","","<img src=images/blank.png width =""500"" height = ""500"" style=""border:5px solid black"">",""
"","368.69500018656254","stimulus-presentation","107","261655","0.0-14.0-1.46","SS1604513241143","<img src='images/simple/13.png' width ='500' height = '500' style='border:5px solid black'>","40","all_simple","images/simple/8.png","images/simple/17.png","images/simple/4.png,images/simple/15.png,images/simple/5.png,images/simple/1.png,images/simple/12.png,images/simple/2.png,images/simple/13.png","0","null","","200","568.6950001865625","","","","deviant"
"","null","html-keyboard-response","108","262845","0.0-14.0-0.47","SS1604513241143","","null","","","","","","","","","","","","<img src=images/blank.png width =""500"" height = ""500"" style=""border:5px solid black"">",""
"","198.5700000077486","stimulus-presentation","109","263247","0.0-14.0-1.47","SS1604513241143","<img src='images/simple/17.png' width ='500' height = '500' style='border:5px solid black'>","40","all_simple","images/simple/8.png","images/simple/17.png","images/simple/4.png,images/simple/15.png,images/simple/5.png,images/simple/1.png,images/simple/12.png,images/simple/2.png,images/simple/13.png","0","null","","200","398.5700000077486","","","","background"
"","null","html-keyboard-response","110","264304","0.0-14.0-0.48","SS1604513241143","","null","","","","","","","","","","","","<img src=images/blank.png width =""500"" height = ""500"" style=""border:5px solid black"">",""
"","164.48500007390976","stimulus-presentation","111","264671","0.0-14.0-1.48","SS1604513241143","<img src='images/simple/17.png' width ='500' height = '500' style='border:5px solid black'>","40","all_simple","images/simple/8.png","images/simple/17.png","images/simple/4.png,images/simple/15.png,images/simple/5.png,images/simple/1.png,images/simple/12.png,images/simple/2.png,images/simple/13.png","0","null","","200","364.48500007390976","","","","background"
"[{""page_index"":0,""viewing_time"":30332}]","30332","task-instructions","112","295006","0.0-15.0","SS1604513241143","","","","","","","","","","","","","","",""
"[{""page_index"":0,""viewing_time"":1854.069999884814},{""page_index"":1,""viewing_time"":4424.430000130087},{""page_index"":2,""viewing_time"":1048.075000056997}]","7326.834999956191","instructions","113","302335","0.0-16.0","SS1604513241143","","","","","","","","","","","","","","",""
"","null","html-keyboard-response","114","303262","0.0-17.0-0.0","SS1604513241143","","null","","","","","","","","","","","","<img src=images/blank.png width =""500"" height = ""500"" style=""border:5px solid black"">",""
"","647.0399999525398","stimulus-presentation","115","304111","0.0-17.0-1.0","SS1604513241143","<img src='images/complex/9.png' width ='500' height = '500' style='border:5px solid black'>","40","mixed_complex_deviant","images/simple/14.png","images/simple/16.png","images/complex/9.png,images/complex/11.png,images/complex/8.png,images/complex/14.png,images/complex/4.png,images/complex/13.png,images/complex/12.png","1","null","","200","847.0399999525398","","","","deviant"
"","null","html-keyboard-response","116","305077","0.0-17.0-0.1","SS1604513241143","","null","","","","","","","","","","","","<img src=images/blank.png width =""500"" height = ""500"" style=""border:5px solid black"">",""
"","239.59500016644597","stimulus-presentation","117","305519","0.0-17.0-1.1","SS1604513241143","<img src='images/simple/16.png' width ='500' height = '500' style='border:5px solid black'>","40","mixed_complex_deviant","images/simple/14.png","images/simple/16.png","images/complex/9.png,images/complex/11.png,images/complex/8.png,images/complex/14.png,images/complex/4.png,images/complex/13.png,images/complex/12.png","1","null","","200","439.59500016644597","","","","background"
"","null","html-keyboard-response","118","306621","0.0-17.0-0.2","SS1604513241143","","null","","","","","","","","","","","","<img src=images/blank.png width =""500"" height = ""500"" style=""border:5px solid black"">",""
"","191.13000016659498","stimulus-presentation","119","307015","0.0-17.0-1.2","SS1604513241143","<img src='images/simple/16.png' width ='500' height = '500' style='border:5px solid black'>","40","mixed_complex_deviant","images/simple/14.png","images/simple/16.png","images/complex/9.png,images/complex/11.png,images/complex/8.png,images/complex/14.png,images/complex/4.png,images/complex/13.png,images/complex/12.png","1","null","","200","391.130000166595","","","","background"
"","null","html-keyboard-response","120","308008","0.0-17.0-0.3","SS1604513241143","","null","","","","","","","","","","","","<img src=images/blank.png width =""500"" height = ""500"" style=""border:5px solid black"">",""
"","204.6050000935793","stimulus-presentation","121","308416","0.0-17.0-1.3","SS1604513241143","<img src='images/simple/16.png' width ='500' height = '500' style='border:5px solid black'>","40","mixed_complex_deviant","images/simple/14.png","images/simple/16.png","images/complex/9.png,images/complex/11.png,images/complex/8.png,images/complex/14.png,images/complex/4.png,images/complex/13.png,images/complex/12.png","1","null","","200","404.6050000935793","","","","background"
"","null","html-keyboard-response","122","309714","0.0-17.0-0.4","SS1604513241143","","null","","","","","","","","","","","","<img src=images/blank.png width =""500"" height = ""500"" style=""border:5px solid black"">",""
"","217.91999996639788","stimulus-presentation","123","310135","0.0-17.0-1.4","SS1604513241143","<img src='images/complex/4.png' width ='500' height = '500' style='border:5px solid black'>","40","mixed_complex_deviant","images/simple/14.png","images/simple/16.png","images/complex/9.png,images/complex/11.png,images/complex/8.png,images/complex/14.png,images/complex/4.png,images/complex/13.png,images/complex/12.png","1","null","","200","417.9199999663979","","","","deviant"
"","null","html-keyboard-response","124","311226","0.0-17.0-0.5","SS1604513241143","","null","","","","","","","","","","","","<img src=images/blank.png width =""500"" height = ""500"" style=""border:5px solid black"">",""
"","209.00000003166497","stimulus-presentation","125","311639","0.0-17.0-1.5","SS1604513241143","<img src='images/simple/16.png' width ='500' height = '500' style='border:5px solid black'>","40","mixed_complex_deviant","images/simple/14.png","images/simple/16.png","images/complex/9.png,images/complex/11.png,images/complex/8.png,images/complex/14.png,images/complex/4.png,images/complex/13.png,images/complex/12.png","1","null","","200","409.00000003166497","","","","background"
"","null","html-keyboard-response","126","312925","0.0-17.0-0.6","SS1604513241143","","null","","","","","","","","","","","","<img src=images/blank.png width =""500"" height = ""500"" style=""border:5px solid black"">",""
"","199.3099998217076","stimulus-presentation","127","313327","0.0-17.0-1.6","SS1604513241143","<img src='images/simple/16.png' width ='500' height = '500' style='border:5px solid black'>","40","mixed_complex_deviant","images/simple/14.png","images/simple/16.png","images/complex/9.png,images/complex/11.png,images/complex/8.png,images/complex/14.png,images/complex/4.png,images/complex/13.png,images/complex/12.png","1","null","","200","399.3099998217076","","","","background"
"","null","html-keyboard-response","128","314168","0.0-17.0-0.7","SS1604513241143","","null","","","","","","","","","","","","<img src=images/blank.png width =""500"" height = ""500"" style=""border:5px solid black"">",""
"","323.5049999784678","stimulus-presentation","129","314695","0.0-17.0-1.7","SS1604513241143","<img src='images/simple/16.png' width ='500' height = '500' style='border:5px solid black'>","40","mixed_complex_deviant","images/simple/14.png","images/simple/16.png","images/complex/9.png,images/complex/11.png,images/complex/8.png,images/complex/14.png,images/complex/4.png,images/complex/13.png,images/complex/12.png","1","null","","200","523.5049999784678","","","","background"
"","null","html-keyboard-response","130","315638","0.0-17.0-0.8","SS1604513241143","","null","","","","","","","","","","","","<img src=images/blank.png width =""500"" height = ""500"" style=""border:5px solid black"">",""
"","294.35500013642013","stimulus-presentation","131","316135","0.0-17.0-1.8","SS1604513241143","<img src='images/simple/16.png' width ='500' height = '500' style='border:5px solid black'>","40","mixed_complex_deviant","images/simple/14.png","images/simple/16.png","images/complex/9.png,images/complex/11.png,images/complex/8.png,images/complex/14.png,images/complex/4.png,images/complex/13.png,images/complex/12.png","1","null","","200","494.35500013642013","","","","background"
"","null","html-keyboard-response","132","317423","0.0-17.0-0.9","SS1604513241143","","null","","","","","","","","","","","","<img src=images/blank.png width =""500"" height = ""500"" style=""border:5px solid black"">",""
"","181.73499987460673","stimulus-presentation","133","317807","0.0-17.0-1.9","SS1604513241143","<img src='images/simple/16.png' width ='500' height = '500' style='border:5px solid black'>","40","mixed_complex_deviant","images/simple/14.png","images/simple/16.png","images/complex/9.png,images/complex/11.png,images/complex/8.png,images/complex/14.png,images/complex/4.png,images/complex/13.png,images/complex/12.png","1","null","","200","381.73499987460673","","","","background"
"","null","html-keyboard-response","134","318871","0.0-17.0-0.10","SS1604513241143","","null","","","","","","","","","","","","<img src=images/blank.png width =""500"" height = ""500"" style=""border:5px solid black"">",""
"","197.51000008545816","stimulus-presentation","135","319272","0.0-17.0-1.10","SS1604513241143","<img src='images/simple/16.png' width ='500' height = '500' style='border:5px solid black'>","40","mixed_complex_deviant","images/simple/14.png","images/simple/16.png","images/complex/9.png,images/complex/11.png,images/complex/8.png,images/complex/14.png,images/complex/4.png,images/complex/13.png,images/complex/12.png","1","null","","200","397.51000008545816","","","","background"
"","null","html-keyboard-response","136","320105","0.0-17.0-0.11","SS1604513241143","","null","","","","","","","","","","","","<img src=images/blank.png width =""500"" height = ""500"" style=""border:5px solid black"">",""
"","1058.974999934435","stimulus-presentation","137","321367","0.0-17.0-1.11","SS1604513241143","<img src='images/simple/14.png' width ='500' height = '500' style='border:5px solid black'>","40","mixed_complex_deviant","images/simple/14.png","images/simple/16.png","images/complex/9.png,images/complex/11.png,images/complex/8.png,images/complex/14.png,images/complex/4.png,images/complex/13.png,images/complex/12.png","1","null","","200","1258.974999934435","yes","443.1699998676777","","target"
"","null","html-keyboard-response","138","322208","0.0-17.0-0.12","SS1604513241143","","null","","","","","","","","","","","","<img src=images/blank.png width =""500"" height = ""500"" style=""border:5px solid black"">",""
"","755.0600001122802","stimulus-presentation","139","323167","0.0-17.0-1.12","SS1604513241143","<img src='images/simple/14.png' width ='500' height = '500' style='border:5px solid black'>","40","mixed_complex_deviant","images/simple/14.png","images/simple/16.png","images/complex/9.png,images/complex/11.png,images/complex/8.png,images/complex/14.png,images/complex/4.png,images/complex/13.png,images/complex/12.png","1","null","","200","955.0600001122802","yes","227.11000009439886","","target"
"","null","html-keyboard-response","140","324458","0.0-17.0-0.13","SS1604513241143","","null","","","","","","","","","","","","<img src=images/blank.png width =""500"" height = ""500"" style=""border:5px solid black"">",""
"","249.97000000439584","stimulus-presentation","141","324911","0.0-17.0-1.13","SS1604513241143","<img src='images/complex/11.png' width ='500' height = '500' style='border:5px solid black'>","40","mixed_complex_deviant","images/simple/14.png","images/simple/16.png","images/complex/9.png,images/complex/11.png,images/complex/8.png,images/complex/14.png,images/complex/4.png,images/complex/13.png,images/complex/12.png","1","null","","200","449.97000000439584","","","","deviant"
"","null","html-keyboard-response","142","325822","0.0-17.0-0.14","SS1604513241143","","null","","","","","","","","","","","","<img src=images/blank.png width =""500"" height = ""500"" style=""border:5px solid black"">",""
"","229.64500007219613","stimulus-presentation","143","326255","0.0-17.0-1.14","SS1604513241143","<img src='images/simple/16.png' width ='500' height = '500' style='border:5px solid black'>","40","mixed_complex_deviant","images/simple/14.png","images/simple/16.png","images/complex/9.png,images/complex/11.png,images/complex/8.png,images/complex/14.png,images/complex/4.png,images/complex/13.png,images/complex/12.png","1","null","","200","429.6450000721961","","","","background"
"","null","html-keyboard-response","144","327136","0.0-17.0-0.15","SS1604513241143","","null","","","","","","","","","","","","<img src=images/blank.png width =""500"" height = ""500"" style=""border:5px solid black"">",""
"","203.84499989449978","stimulus-presentation","145","327543","0.0-17.0-1.15","SS1604513241143","<img src='images/simple/16.png' width ='500' height = '500' style='border:5px solid black'>","40","mixed_complex_deviant","images/simple/14.png","images/simple/16.png","images/complex/9.png,images/complex/11.png,images/complex/8.png,images/complex/14.png,images/complex/4.png,images/complex/13.png,images/complex/12.png","1","null","","200","403.8449998944998","","","","background"
"","null","html-keyboard-response","146","328446","0.0-17.0-0.16","SS1604513241143","","null","","","","","","","","","","","","<img src=images/blank.png width =""500"" height = ""500"" style=""border:5px solid black"">",""
"","148.47500016912818","stimulus-presentation","147","328799","0.0-17.0-1.16","SS1604513241143","<img src='images/simple/16.png' width ='500' height = '500' style='border:5px solid black'>","40","mixed_complex_deviant","images/simple/14.png","images/simple/16.png","images/complex/9.png,images/complex/11.png,images/complex/8.png,images/complex/14.png,images/complex/4.png,images/complex/13.png,images/complex/12.png","1","null","","200","348.4750001691282","","","","background"
"","null","html-keyboard-response","148","329899","0.0-17.0-0.17","SS1604513241143","","null","","","","","","","","","","","","<img src=images/blank.png width =""500"" height = ""500"" style=""border:5px solid black"">",""
"","425.56499992497265","stimulus-presentation","149","330528","0.0-17.0-1.17","SS1604513241143","<img src='images/complex/14.png' width ='500' height = '500' style='border:5px solid black'>","40","mixed_complex_deviant","images/simple/14.png","images/simple/16.png","images/complex/9.png,images/complex/11.png,images/complex/8.png,images/complex/14.png,images/complex/4.png,images/complex/13.png,images/complex/12.png","1","null","","200","625.5649999249727","","","","deviant"
"","null","html-keyboard-response","150","331649","0.0-17.0-0.18","SS1604513241143","","null","","","","","","","","","","","","<img src=images/blank.png width =""500"" height = ""500"" style=""border:5px solid black"">",""
"","249.31999994441867","stimulus-presentation","151","332103","0.0-17.0-1.18","SS1604513241143","<img src='images/simple/16.png' width ='500' height = '500' style='border:5px solid black'>","40","mixed_complex_deviant","images/simple/14.png","images/simple/16.png","images/complex/9.png,images/complex/11.png,images/complex/8.png,images/complex/14.png,images/complex/4.png,images/complex/13.png,images/complex/12.png","1","null","","200","449.31999994441867","","","","background"
"","null","html-keyboard-response","152","333165","0.0-17.0-0.19","SS1604513241143","","null","","","","","","","","","","","","<img src=images/blank.png width =""500"" height = ""500"" style=""border:5px solid black"">",""
"","3982.6299999840558","stimulus-presentation","153","337351","0.0-17.0-1.19","SS1604513241143","<img src='images/simple/16.png' width ='500' height = '500' style='border:5px solid black'>","40","mixed_complex_deviant","images/simple/14.png","images/simple/16.png","images/complex/9.png,images/complex/11.png,images/complex/8.png,images/complex/14.png,images/complex/4.png,images/complex/13.png,images/complex/12.png","1","null","","200","4182.629999984056","","","","background"
"","null","html-keyboard-response","154","338622","0.0-17.0-0.20","SS1604513241143","","null","","","","","","","","","","","","<img src=images/blank.png width =""500"" height = ""500"" style=""border:5px solid black"">",""
"","2764.7349999751896","stimulus-presentation","155","341591","0.0-17.0-1.20","SS1604513241143","<img src='images/simple/16.png' width ='500' height = '500' style='border:5px solid black'>","40","mixed_complex_deviant","images/simple/14.png","images/simple/16.png","images/complex/9.png,images/complex/11.png,images/complex/8.png,images/complex/14.png,images/complex/4.png,images/complex/13.png,images/complex/12.png","1","null","","200","2964.7349999751896","","","","background"
"","null","html-keyboard-response","156","342504","0.0-17.0-0.21","SS1604513241143","","null","","","","","","","","","","","","<img src=images/blank.png width =""500"" height = ""500"" style=""border:5px solid black"">",""
"","307.77499987743795","stimulus-presentation","157","343015","0.0-17.0-1.21","SS1604513241143","<img src='images/complex/8.png' width ='500' height = '500' style='border:5px solid black'>","40","mixed_complex_deviant","images/simple/14.png","images/simple/16.png","images/complex/9.png,images/complex/11.png,images/complex/8.png,images/complex/14.png,images/complex/4.png,images/complex/13.png,images/complex/12.png","1","null","","200","507.77499987743795","","","","deviant"
"","null","html-keyboard-response","158","343936","0.0-17.0-0.22","SS1604513241143","","null","","","","","","","","","","","","<img src=images/blank.png width =""500"" height = ""500"" style=""border:5px solid black"">",""
"","171.305000083521","stimulus-presentation","159","344311","0.0-17.0-1.22","SS1604513241143","<img src='images/simple/16.png' width ='500' height = '500' style='border:5px solid black'>","40","mixed_complex_deviant","images/simple/14.png","images/simple/16.png","images/complex/9.png,images/complex/11.png,images/complex/8.png,images/complex/14.png,images/complex/4.png,images/complex/13.png,images/complex/12.png","1","null","","200","371.305000083521","","","","background"
"","null","html-keyboard-response","160","345499","0.0-17.0-0.23","SS1604513241143","","null","","","","","","","","","","","","<img src=images/blank.png width =""500"" height = ""500"" style=""border:5px solid black"">",""
"","176.51999997906387","stimulus-presentation","161","345879","0.0-17.0-1.23","SS1604513241143","<img src='images/simple/16.png' width ='500' height = '500' style='border:5px solid black'>","40","mixed_complex_deviant","images/simple/14.png","images/simple/16.png","images/complex/9.png,images/complex/11.png,images/complex/8.png,images/complex/14.png,images/complex/4.png,images/complex/13.png,images/complex/12.png","1","null","","200","376.51999997906387","","","","background"
"","null","html-keyboard-response","162","346711","0.0-17.0-0.24","SS1604513241143","","null","","","","","","","","","","","","<img src=images/blank.png width =""500"" height = ""500"" style=""border:5px solid black"">",""
"","3173.3349999412894","stimulus-presentation","163","350087","0.0-17.0-1.24","SS1604513241143","<img src='images/simple/14.png' width ='500' height = '500' style='border:5px solid black'>","40","mixed_complex_deviant","images/simple/14.png","images/simple/16.png","images/complex/9.png,images/complex/11.png,images/complex/8.png,images/complex/14.png,images/complex/4.png,images/complex/13.png,images/complex/12.png","1","null","","200","3373.3349999412894","yes","661.4800000097603","","target"
"","null","html-keyboard-response","164","351329","0.0-17.0-0.25","SS1604513241143","","null","","","","","","","","","","","","<img src=images/blank.png width =""500"" height = ""500"" style=""border:5px solid black"">",""
"","802.129999967292","stimulus-presentation","165","352335","0.0-17.0-1.25","SS1604513241143","<img src='images/simple/14.png' width ='500' height = '500' style='border:5px solid black'>","40","mixed_complex_deviant","images/simple/14.png","images/simple/16.png","images/complex/9.png,images/complex/11.png,images/complex/8.png,images/complex/14.png,images/complex/4.png,images/complex/13.png,images/complex/12.png","1","null","","200","1002.129999967292","yes","251.28500000573695","","target"
"","null","html-keyboard-response","166","353532","0.0-17.0-0.26","SS1604513241143","","null","","","","","","","","","","","","<img src=images/blank.png width =""500"" height = ""500"" style=""border:5px solid black"">",""
"","206.86500007286668","stimulus-presentation","167","353943","0.0-17.0-1.26","SS1604513241143","<img src='images/simple/16.png' width ='500' height = '500' style='border:5px solid black'>","40","mixed_complex_deviant","images/simple/14.png","images/simple/16.png","images/complex/9.png,images/complex/11.png,images/complex/8.png,images/complex/14.png,images/complex/4.png,images/complex/13.png,images/complex/12.png","1","null","","200","406.8650000728667","","","","background"
"","null","html-keyboard-response","168","354919","0.0-17.0-0.27","SS1604513241143","","null","","","","","","","","","","","","<img src=images/blank.png width =""500"" height = ""500"" style=""border:5px solid black"">",""
"","188.20999981835485","stimulus-presentation","169","355311","0.0-17.0-1.27","SS1604513241143","<img src='images/simple/16.png' width ='500' height = '500' style='border:5px solid black'>","40","mixed_complex_deviant","images/simple/14.png","images/simple/16.png","images/complex/9.png,images/complex/11.png,images/complex/8.png,images/complex/14.png,images/complex/4.png,images/complex/13.png,images/complex/12.png","1","null","","200","388.20999981835485","","","","background"
"","null","html-keyboard-response","170","356380","0.0-17.0-0.28","SS1604513241143","","null","","","","","","","","","","","","<img src=images/blank.png width =""500"" height = ""500"" style=""border:5px solid black"">",""
"","133.9849999640137","stimulus-presentation","171","356719","0.0-17.0-1.28","SS1604513241143","<img src='images/simple/16.png' width ='500' height = '500' style='border:5px solid black'>","40","mixed_complex_deviant","images/simple/14.png","images/simple/16.png","images/complex/9.png,images/complex/11.png,images/complex/8.png,images/complex/14.png,images/complex/4.png,images/complex/13.png,images/complex/12.png","1","null","","200","333.9849999640137","","","","background"
"","null","html-keyboard-response","172","357855","0.0-17.0-0.29","SS1604513241143","","null","","","","","","","","","","","","<img src=images/blank.png width =""500"" height = ""500"" style=""border:5px solid black"">",""
"","251.86000019311905","stimulus-presentation","173","358311","0.0-17.0-1.29","SS1604513241143","<img src='images/complex/12.png' width ='500' height = '500' style='border:5px solid black'>","40","mixed_complex_deviant","images/simple/14.png","images/simple/16.png","images/complex/9.png,images/complex/11.png,images/complex/8.png,images/complex/14.png,images/complex/4.png,images/complex/13.png,images/complex/12.png","1","null","","200","451.86000019311905","","","","deviant"
"","null","html-keyboard-response","174","359218","0.0-17.0-0.30","SS1604513241143","","null","","","","","","","","","","","","<img src=images/blank.png width =""500"" height = ""500"" style=""border:5px solid black"">",""
"","505.5350000038743","stimulus-presentation","175","359927","0.0-17.0-1.30","SS1604513241143","<img src='images/simple/16.png' width ='500' height = '500' style='border:5px solid black'>","40","mixed_complex_deviant","images/simple/14.png","images/simple/16.png","images/complex/9.png,images/complex/11.png,images/complex/8.png,images/complex/14.png,images/complex/4.png,images/complex/13.png,images/complex/12.png","1","null","","200","705.5350000038743","","","","background"
"","null","html-keyboard-response","176","360884","0.0-17.0-0.31","SS1604513241143","","null","","","","","","","","","","","","<img src=images/blank.png width =""500"" height = ""500"" style=""border:5px solid black"">",""
"","135.87499991990626","stimulus-presentation","177","361223","0.0-17.0-1.31","SS1604513241143","<img src='images/simple/16.png' width ='500' height = '500' style='border:5px solid black'>","40","mixed_complex_deviant","images/simple/14.png","images/simple/16.png","images/complex/9.png,images/complex/11.png,images/complex/8.png,images/complex/14.png,images/complex/4.png,images/complex/13.png,images/complex/12.png","1","null","","200","335.87499991990626","","","","background"
"","null","html-keyboard-response","178","362439","0.0-17.0-0.32","SS1604513241143","","null","","","","","","","","","","","","<img src=images/blank.png width =""500"" height = ""500"" style=""border:5px solid black"">",""
"","141.03500009514391","stimulus-presentation","179","362784","0.0-17.0-1.32","SS1604513241143","<img src='images/simple/16.png' width ='500' height = '500' style='border:5px solid black'>","40","mixed_complex_deviant","images/simple/14.png","images/simple/16.png","images/complex/9.png,images/complex/11.png,images/complex/8.png,images/complex/14.png,images/complex/4.png,images/complex/13.png,images/complex/12.png","1","null","","200","341.0350000951439","","","","background"
"","null","html-keyboard-response","180","363657","0.0-17.0-0.33","SS1604513241143","","null","","","","","","","","","","","","<img src=images/blank.png width =""500"" height = ""500"" style=""border:5px solid black"">",""
"","210.07000003010035","stimulus-presentation","181","364071","0.0-17.0-1.33","SS1604513241143","<img src='images/simple/16.png' width ='500' height = '500' style='border:5px solid black'>","40","mixed_complex_deviant","images/simple/14.png","images/simple/16.png","images/complex/9.png,images/complex/11.png,images/complex/8.png,images/complex/14.png,images/complex/4.png,images/complex/13.png,images/complex/12.png","1","null","","200","410.07000003010035","","","","background"
"","null","html-keyboard-response","182","365132","0.0-17.0-0.34","SS1604513241143","","null","","","","","","","","","","","","<img src=images/blank.png width =""500"" height = ""500"" style=""border:5px solid black"">",""
"","135.15500002540648","stimulus-presentation","183","365471","0.0-17.0-1.34","SS1604513241143","<img src='images/simple/16.png' width ='500' height = '500' style='border:5px solid black'>","40","mixed_complex_deviant","images/simple/14.png","images/simple/16.png","images/complex/9.png,images/complex/11.png,images/complex/8.png,images/complex/14.png,images/complex/4.png,images/complex/13.png,images/complex/12.png","1","null","","200","335.1550000254065","","","","background"
"","null","html-keyboard-response","184","366439","0.0-17.0-0.35","SS1604513241143","","null","","","","","","","","","","","","<img src=images/blank.png width =""500"" height = ""500"" style=""border:5px solid black"">",""
"","949.0399998612702","stimulus-presentation","185","367591","0.0-17.0-1.35","SS1604513241143","<img src='images/simple/14.png' width ='500' height = '500' style='border:5px solid black'>","40","mixed_complex_deviant","images/simple/14.png","images/simple/16.png","images/complex/9.png,images/complex/11.png,images/complex/8.png,images/complex/14.png,images/complex/4.png,images/complex/13.png,images/complex/12.png","1","null","","200","1149.0399998612702","yes","284.97999999672174","","target"
"","null","html-keyboard-response","186","368797","0.0-17.0-0.36","SS1604513241143","","null","","","","","","","","","","","","<img src=images/blank.png width =""500"" height = ""500"" style=""border:5px solid black"">",""
"","198.58499988913536","stimulus-presentation","187","369199","0.0-17.0-1.36","SS1604513241143","<img src='images/simple/16.png' width ='500' height = '500' style='border:5px solid black'>","40","mixed_complex_deviant","images/simple/14.png","images/simple/16.png","images/complex/9.png,images/complex/11.png,images/complex/8.png,images/complex/14.png,images/complex/4.png,images/complex/13.png,images/complex/12.png","1","null","","200","398.58499988913536","","","","background"
"","null","html-keyboard-response","188","370398","0.0-17.0-0.37","SS1604513241143","","null","","","","","","","","","","","","<img src=images/blank.png width =""500"" height = ""500"" style=""border:5px solid black"">",""
"","309.9450001027435","stimulus-presentation","189","370911","0.0-17.0-1.37","SS1604513241143","<img src='images/simple/16.png' width ='500' height = '500' style='border:5px solid black'>","40","mixed_complex_deviant","images/simple/14.png","images/simple/16.png","images/complex/9.png,images/complex/11.png,images/complex/8.png,images/complex/14.png,images/complex/4.png,images/complex/13.png,images/complex/12.png","1","null","","200","509.9450001027435","","","","background"
"","null","html-keyboard-response","190","371827","0.0-17.0-0.38","SS1604513241143","","null","","","","","","","","","","","","<img src=images/blank.png width =""500"" height = ""500"" style=""border:5px solid black"">",""
"","897.0600001048297","stimulus-presentation","191","372928","0.0-17.0-1.38","SS1604513241143","<img src='images/simple/14.png' width ='500' height = '500' style='border:5px solid black'>","40","mixed_complex_deviant","images/simple/14.png","images/simple/16.png","images/complex/9.png,images/complex/11.png,images/complex/8.png,images/complex/14.png,images/complex/4.png,images/complex/13.png,images/complex/12.png","1","null","","200","1097.0600001048297","yes","328.2000001054257","","target"
"","null","html-keyboard-response","192","374167","0.0-17.0-0.39","SS1604513241143","","null","","","","","","","","","","","","<img src=images/blank.png width =""500"" height = ""500"" style=""border:5px solid black"">",""
"","324.28500009700656","stimulus-presentation","193","374695","0.0-17.0-1.39","SS1604513241143","<img src='images/simple/16.png' width ='500' height = '500' style='border:5px solid black'>","40","mixed_complex_deviant","images/simple/14.png","images/simple/16.png","images/complex/9.png,images/complex/11.png,images/complex/8.png,images/complex/14.png,images/complex/4.png,images/complex/13.png,images/complex/12.png","1","null","","200","524.2850000970066","","","","background"
"","null","html-keyboard-response","194","375781","0.0-17.0-0.40","SS1604513241143","","null","","","","","","","","","","","","<img src=images/blank.png width =""500"" height = ""500"" style=""border:5px solid black"">",""
"","719.1850000526756","stimulus-presentation","195","376703","0.0-17.0-1.40","SS1604513241143","<img src='images/simple/16.png' width ='500' height = '500' style='border:5px solid black'>","40","mixed_complex_deviant","images/simple/14.png","images/simple/16.png","images/complex/9.png,images/complex/11.png,images/complex/8.png,images/complex/14.png,images/complex/4.png,images/complex/13.png,images/complex/12.png","1","null","","200","919.1850000526756","","","","background"
"","null","html-keyboard-response","196","377760","0.0-17.0-0.41","SS1604513241143","","null","","","","","","","","","","","","<img src=images/blank.png width =""500"" height = ""500"" style=""border:5px solid black"">",""
"","355.41500011458993","stimulus-presentation","197","378319","0.0-17.0-1.41","SS1604513241143","<img src='images/simple/16.png' width ='500' height = '500' style='border:5px solid black'>","40","mixed_complex_deviant","images/simple/14.png","images/simple/16.png","images/complex/9.png,images/complex/11.png,images/complex/8.png,images/complex/14.png,images/complex/4.png,images/complex/13.png,images/complex/12.png","1","null","","200","555.4150001145899","","","","background"
"","null","html-keyboard-response","198","379275","0.0-17.0-0.42","SS1604513241143","","null","","","","","","","","","","","","<img src=images/blank.png width =""500"" height = ""500"" style=""border:5px solid black"">",""
"","648.659999947995","stimulus-presentation","199","380127","0.0-17.0-1.42","SS1604513241143","<img src='images/complex/13.png' width ='500' height = '500' style='border:5px solid black'>","40","mixed_complex_deviant","images/simple/14.png","images/simple/16.png","images/complex/9.png,images/complex/11.png,images/complex/8.png,images/complex/14.png,images/complex/4.png,images/complex/13.png,images/complex/12.png","1","null","","200","848.659999947995","","","","deviant"
"","null","html-keyboard-response","200","381199","0.0-17.0-0.43","SS1604513241143","","null","","","","","","","","","","","","<img src=images/blank.png width =""500"" height = ""500"" style=""border:5px solid black"">",""
"","258.88500013388693","stimulus-presentation","201","381663","0.0-17.0-1.43","SS1604513241143","<img src='images/simple/16.png' width ='500' height = '500' style='border:5px solid black'>","40","mixed_complex_deviant","images/simple/14.png","images/simple/16.png","images/complex/9.png,images/complex/11.png,images/complex/8.png,images/complex/14.png,images/complex/4.png,images/complex/13.png,images/complex/12.png","1","null","","200","458.88500013388693","","","","background"
"","null","html-keyboard-response","202","382589","0.0-17.0-0.44","SS1604513241143","","null","","","","","","","","","","","","<img src=images/blank.png width =""500"" height = ""500"" style=""border:5px solid black"">",""
"","134.33000002987683","stimulus-presentation","203","382927","0.0-17.0-1.44","SS1604513241143","<img src='images/simple/16.png' width ='500' height = '500' style='border:5px solid black'>","40","mixed_complex_deviant","images/simple/14.png","images/simple/16.png","images/complex/9.png,images/complex/11.png,images/complex/8.png,images/complex/14.png,images/complex/4.png,images/complex/13.png,images/complex/12.png","1","null","","200","334.3300000298768","","","","background"
"","null","html-keyboard-response","204","384067","0.0-17.0-0.45","SS1604513241143","","null","","","","","","","","","","","","<img src=images/blank.png width =""500"" height = ""500"" style=""border:5px solid black"">",""
"","824.3299999739975","stimulus-presentation","205","385095","0.0-17.0-1.45","SS1604513241143","<img src='images/simple/14.png' width ='500' height = '500' style='border:5px solid black'>","40","mixed_complex_deviant","images/simple/14.png","images/simple/16.png","images/complex/9.png,images/complex/11.png,images/complex/8.png,images/complex/14.png,images/complex/4.png,images/complex/13.png,images/complex/12.png","1","null","","200","1024.3299999739975","yes","305.3150000050664","","target"
"","null","html-keyboard-response","206","386357","0.0-17.0-0.46","SS1604513241143","","null","","","","","","","","","","","","<img src=images/blank.png width =""500"" height = ""500"" style=""border:5px solid black"">",""
"","149.97999998740852","stimulus-presentation","207","386711","0.0-17.0-1.46","SS1604513241143","<img src='images/simple/16.png' width ='500' height = '500' style='border:5px solid black'>","40","mixed_complex_deviant","images/simple/14.png","images/simple/16.png","images/complex/9.png,images/complex/11.png,images/complex/8.png,images/complex/14.png,images/complex/4.png,images/complex/13.png,images/complex/12.png","1","null","","200","349.9799999874085","","","","background"
"","null","html-keyboard-response","208","387517","0.0-17.0-0.47","SS1604513241143","","null","","","","","","","","","","","","<img src=images/blank.png width =""500"" height = ""500"" style=""border:5px solid black"">",""
"","214.03999999165535","stimulus-presentation","209","387935","0.0-17.0-1.47","SS1604513241143","<img src='images/simple/16.png' width ='500' height = '500' style='border:5px solid black'>","40","mixed_complex_deviant","images/simple/14.png","images/simple/16.png","images/complex/9.png,images/complex/11.png,images/complex/8.png,images/complex/14.png,images/complex/4.png,images/complex/13.png,images/complex/12.png","1","null","","200","414.03999999165535","","","","background"
"","null","html-keyboard-response","210","388933","0.0-17.0-0.48","SS1604513241143","","null","","","","","","","","","","","","<img src=images/blank.png width =""500"" height = ""500"" style=""border:5px solid black"">",""
"","158.73000002466142","stimulus-presentation","211","389295","0.0-17.0-1.48","SS1604513241143","<img src='images/simple/16.png' width ='500' height = '500' style='border:5px solid black'>","40","mixed_complex_deviant","images/simple/14.png","images/simple/16.png","images/complex/9.png,images/complex/11.png,images/complex/8.png,images/complex/14.png,images/complex/4.png,images/complex/13.png,images/complex/12.png","1","null","","200","358.7300000246614","","","","background"
"[{""page_index"":0,""viewing_time"":2312}]","2313","task-instructions","212","391611","0.0-18.0","SS1604513241143","","","","","","","","","","","","","","",""
"[{""page_index"":0,""viewing_time"":2180.9149999171495},{""page_index"":1,""viewing_time"":3120.4049999359995},{""page_index"":2,""viewing_time"":1840.2500001247972},{""page_index"":1,""viewing_time"":1472.330000018701},{""page_index"":2,""viewing_time"":655.849999981001}]","9270.00999986194","instructions","213","400884","0.0-19.0","SS1604513241143","","","","","","","","","","","","","","",""
"","null","html-keyboard-response","214","401975","0.0-20.0-0.0","SS1604513241143","","null","","","","","","","","","","","","<img src=images/blank.png width =""500"" height = ""500"" style=""border:5px solid black"">",""
"","339.814999839291","stimulus-presentation","215","402519","0.0-20.0-1.0","SS1604513241143","<img src='images/complex/17.png' width ='500' height = '500' style='border:5px solid black'>","40","all_complex","images/complex/10.png","images/complex/17.png","images/complex/2.png,images/complex/15.png,images/complex/6.png,images/complex/1.png,images/complex/5.png,images/complex/3.png,images/complex/16.png","2","null","","200","539.814999839291","","","","background"
"","null","html-keyboard-response","216","403592","0.0-20.0-0.1","SS1604513241143","","null","","","","","","","","","","","","<img src=images/blank.png width =""500"" height = ""500"" style=""border:5px solid black"">",""
"","194.42000007256866","stimulus-presentation","217","403991","0.0-20.0-1.1","SS1604513241143","<img src='images/complex/2.png' width ='500' height = '500' style='border:5px solid black'>","40","all_complex","images/complex/10.png","images/complex/17.png","images/complex/2.png,images/complex/15.png,images/complex/6.png,images/complex/1.png,images/complex/5.png,images/complex/3.png,images/complex/16.png","2","null","","200","394.42000007256866","","","","deviant"
"","null","html-keyboard-response","218","405261","0.0-20.0-0.2","SS1604513241143","","null","","","","","","","","","","","","<img src=images/blank.png width =""500"" height = ""500"" style=""border:5px solid black"">",""
"","158.95500010810792","stimulus-presentation","219","405624","0.0-20.0-1.2","SS1604513241143","<img src='images/complex/17.png' width ='500' height = '500' style='border:5px solid black'>","40","all_complex","images/complex/10.png","images/complex/17.png","images/complex/2.png,images/complex/15.png,images/complex/6.png,images/complex/1.png,images/complex/5.png,images/complex/3.png,images/complex/16.png","2","null","","200","358.9550001081079","","","","background"
"","null","html-keyboard-response","220","406631","0.0-20.0-0.3","SS1604513241143","","null","","","","","","","","","","","","<img src=images/blank.png width =""500"" height = ""500"" style=""border:5px solid black"">",""
"","140.15500014647841","stimulus-presentation","221","406975","0.0-20.0-1.3","SS1604513241143","<img src='images/complex/17.png' width ='500' height = '500' style='border:5px solid black'>","40","all_complex","images/complex/10.png","images/complex/17.png","images/complex/2.png,images/complex/15.png,images/complex/6.png,images/complex/1.png,images/complex/5.png,images/complex/3.png,images/complex/16.png","2","null","","200","340.1550001464784","","","","background"
"","null","html-keyboard-response","222","407822","0.0-20.0-0.4","SS1604513241143","","null","","","","","","","","","","","","<img src=images/blank.png width =""500"" height = ""500"" style=""border:5px solid black"">",""
"","269.9049999937415","stimulus-presentation","223","408296","0.0-20.0-1.4","SS1604513241143","<img src='images/complex/17.png' width ='500' height = '500' style='border:5px solid black'>","40","all_complex","images/complex/10.png","images/complex/17.png","images/complex/2.png,images/complex/15.png,images/complex/6.png,images/complex/1.png,images/complex/5.png,images/complex/3.png,images/complex/16.png","2","null","","200","469.9049999937415","","","","background"
"","null","html-keyboard-response","224","409417","0.0-20.0-0.5","SS1604513241143","","null","","","","","","","","","","","","<img src=images/blank.png width =""500"" height = ""500"" style=""border:5px solid black"">",""
"","209.4399998895824","stimulus-presentation","225","409831","0.0-20.0-1.5","SS1604513241143","<img src='images/complex/3.png' width ='500' height = '500' style='border:5px solid black'>","40","all_complex","images/complex/10.png","images/complex/17.png","images/complex/2.png,images/complex/15.png,images/complex/6.png,images/complex/1.png,images/complex/5.png,images/complex/3.png,images/complex/16.png","2","null","","200","409.4399998895824","","","","deviant"
"","null","html-keyboard-response","226","410740","0.0-20.0-0.6","SS1604513241143","","null","","","","","","","","","","","","<img src=images/blank.png width =""500"" height = ""500"" style=""border:5px solid black"">",""
"","286.6500001400709","stimulus-presentation","227","411231","0.0-20.0-1.6","SS1604513241143","<img src='images/complex/17.png' width ='500' height = '500' style='border:5px solid black'>","40","all_complex","images/complex/10.png","images/complex/17.png","images/complex/2.png,images/complex/15.png,images/complex/6.png,images/complex/1.png,images/complex/5.png,images/complex/3.png,images/complex/16.png","2","null","","200","486.6500001400709","","","","background"
"","null","html-keyboard-response","228","412505","0.0-20.0-0.7","SS1604513241143","","null","","","","","","","","","","","","<img src=images/blank.png width =""500"" height = ""500"" style=""border:5px solid black"">",""
"","233.86999987997115","stimulus-presentation","229","412943","0.0-20.0-1.7","SS1604513241143","<img src='images/complex/17.png' width ='500' height = '500' style='border:5px solid black'>","40","all_complex","images/complex/10.png","images/complex/17.png","images/complex/2.png,images/complex/15.png,images/complex/6.png,images/complex/1.png,images/complex/5.png,images/complex/3.png,images/complex/16.png","2","null","","200","433.86999987997115","","","","background"
"","null","html-keyboard-response","230","413825","0.0-20.0-0.8","SS1604513241143","","null","","","","","","","","","","","","<img src=images/blank.png width =""500"" height = ""500"" style=""border:5px solid black"">",""
"","1154.1500000748783","stimulus-presentation","231","415183","0.0-20.0-1.8","SS1604513241143","<img src='images/complex/10.png' width ='500' height = '500' style='border:5px solid black'>","40","all_complex","images/complex/10.png","images/complex/17.png","images/complex/2.png,images/complex/15.png,images/complex/6.png,images/complex/1.png,images/complex/5.png,images/complex/3.png,images/complex/16.png","2","null","","200","1354.1500000748783","yes","594.1550000570714","","target"
"","null","html-keyboard-response","232","416308","0.0-20.0-0.9","SS1604513241143","","null","","","","","","","","","","","","<img src=images/blank.png width =""500"" height = ""500"" style=""border:5px solid black"">",""
"","736.0849999822676","stimulus-presentation","233","417247","0.0-20.0-1.9","SS1604513241143","<img src='images/complex/10.png' width ='500' height = '500' style='border:5px solid black'>","40","all_complex","images/complex/10.png","images/complex/17.png","images/complex/2.png,images/complex/15.png,images/complex/6.png,images/complex/1.png,images/complex/5.png,images/complex/3.png,images/complex/16.png","2","null","","200","936.0849999822676","yes","224.8149998486042","","target"
"","null","html-keyboard-response","234","418307","0.0-20.0-0.10","SS1604513241143","","null","","","","","","","","","","","","<img src=images/blank.png width =""500"" height = ""500"" style=""border:5px solid black"">",""
"","240.30499998480082","stimulus-presentation","235","418751","0.0-20.0-1.10","SS1604513241143","<img src='images/complex/1.png' width ='500' height = '500' style='border:5px solid black'>","40","all_complex","images/complex/10.png","images/complex/17.png","images/complex/2.png,images/complex/15.png,images/complex/6.png,images/complex/1.png,images/complex/5.png,images/complex/3.png,images/complex/16.png","2","null","","200","440.3049999848008","","","","deviant"
"","null","html-keyboard-response","236","419952","0.0-20.0-0.11","SS1604513241143","","null","","","","","","","","","","","","<img src=images/blank.png width =""500"" height = ""500"" style=""border:5px solid black"">",""
"","691.9350000098348","stimulus-presentation","237","420847","0.0-20.0-1.11","SS1604513241143","<img src='images/complex/10.png' width ='500' height = '500' style='border:5px solid black'>","40","all_complex","images/complex/10.png","images/complex/17.png","images/complex/2.png,images/complex/15.png,images/complex/6.png,images/complex/1.png,images/complex/5.png,images/complex/3.png,images/complex/16.png","2","null","","200","891.9350000098348","yes","243.99000010453165","","target"
"","null","html-keyboard-response","238","421653","0.0-20.0-0.12","SS1604513241143","","null","","","","","","","","","","","","<img src=images/blank.png width =""500"" height = ""500"" style=""border:5px solid black"">",""
"","221.33999993093312","stimulus-presentation","239","422079","0.0-20.0-1.12","SS1604513241143","<img src='images/complex/17.png' width ='500' height = '500' style='border:5px solid black'>","40","all_complex","images/complex/10.png","images/complex/17.png","images/complex/2.png,images/complex/15.png,images/complex/6.png,images/complex/1.png,images/complex/5.png,images/complex/3.png,images/complex/16.png","2","null","","200","421.3399999309331","","","","background"
"","null","html-keyboard-response","240","423248","0.0-20.0-0.13","SS1604513241143","","null","","","","","","","","","","","","<img src=images/blank.png width =""500"" height = ""500"" style=""border:5px solid black"">",""
"","211.7999999318272","stimulus-presentation","241","423663","0.0-20.0-1.13","SS1604513241143","<img src='images/complex/17.png' width ='500' height = '500' style='border:5px solid black'>","40","all_complex","images/complex/10.png","images/complex/17.png","images/complex/2.png,images/complex/15.png,images/complex/6.png,images/complex/1.png,images/complex/5.png,images/complex/3.png,images/complex/16.png","2","null","","200","411.7999999318272","","","","background"
"","null","html-keyboard-response","242","424915","0.0-20.0-0.14","SS1604513241143","","null","","","","","","","","","","","","<img src=images/blank.png width =""500"" height = ""500"" style=""border:5px solid black"">",""
"","207.75000005960464","stimulus-presentation","243","425327","0.0-20.0-1.14","SS1604513241143","<img src='images/complex/17.png' width ='500' height = '500' style='border:5px solid black'>","40","all_complex","images/complex/10.png","images/complex/17.png","images/complex/2.png,images/complex/15.png,images/complex/6.png,images/complex/1.png,images/complex/5.png,images/complex/3.png,images/complex/16.png","2","null","","200","407.75000005960464","","","","background"
"","null","html-keyboard-response","244","426342","0.0-20.0-0.15","SS1604513241143","","null","","","","","","","","","","","","<img src=images/blank.png width =""500"" height = ""500"" style=""border:5px solid black"">",""
"","173.61499997787178","stimulus-presentation","245","426719","0.0-20.0-1.15","SS1604513241143","<img src='images/complex/17.png' width ='500' height = '500' style='border:5px solid black'>","40","all_complex","images/complex/10.png","images/complex/17.png","images/complex/2.png,images/complex/15.png,images/complex/6.png,images/complex/1.png,images/complex/5.png,images/complex/3.png,images/complex/16.png","2","null","","200","373.6149999778718","","","","background"
"","null","html-keyboard-response","246","427525","0.0-20.0-0.16","SS1604513241143","","null","","","","","","","","","","","","<img src=images/blank.png width =""500"" height = ""500"" style=""border:5px solid black"">",""
"","230.38499988615513","stimulus-presentation","247","427960","0.0-20.0-1.16","SS1604513241143","<img src='images/complex/17.png' width ='500' height = '500' style='border:5px solid black'>","40","all_complex","images/complex/10.png","images/complex/17.png","images/complex/2.png,images/complex/15.png,images/complex/6.png,images/complex/1.png,images/complex/5.png,images/complex/3.png,images/complex/16.png","2","null","","200","430.38499988615513","","","","background"
"","null","html-keyboard-response","248","429250","0.0-20.0-0.17","SS1604513241143","","null","","","","","","","","","","","","<img src=images/blank.png width =""500"" height = ""500"" style=""border:5px solid black"">",""
"","265.65499999560416","stimulus-presentation","249","429719","0.0-20.0-1.17","SS1604513241143","<img src='images/complex/15.png' width ='500' height = '500' style='border:5px solid black'>","40","all_complex","images/complex/10.png","images/complex/17.png","images/complex/2.png,images/complex/15.png,images/complex/6.png,images/complex/1.png,images/complex/5.png,images/complex/3.png,images/complex/16.png","2","null","","200","465.65499999560416","","","","deviant"
"","null","html-keyboard-response","250","430613","0.0-20.0-0.18","SS1604513241143","","null","","","","","","","","","","","","<img src=images/blank.png width =""500"" height = ""500"" style=""border:5px solid black"">",""
"","221.74499998800457","stimulus-presentation","251","431039","0.0-20.0-1.18","SS1604513241143","<img src='images/complex/17.png' width ='500' height = '500' style='border:5px solid black'>","40","all_complex","images/complex/10.png","images/complex/17.png","images/complex/2.png,images/complex/15.png,images/complex/6.png,images/complex/1.png,images/complex/5.png,images/complex/3.png,images/complex/16.png","2","null","","200","421.74499998800457","","","","background"
"","null","html-keyboard-response","252","432092","0.0-20.0-0.19","SS1604513241143","","null","","","","","","","","","","","","<img src=images/blank.png width =""500"" height = ""500"" style=""border:5px solid black"">",""
"","199.65000008232892","stimulus-presentation","253","432495","0.0-20.0-1.19","SS1604513241143","<img src='images/complex/17.png' width ='500' height = '500' style='border:5px solid black'>","40","all_complex","images/complex/10.png","images/complex/17.png","images/complex/2.png,images/complex/15.png,images/complex/6.png,images/complex/1.png,images/complex/5.png,images/complex/3.png,images/complex/16.png","2","null","","200","399.6500000823289","","","","background"
"","null","html-keyboard-response","254","433476","0.0-20.0-0.20","SS1604513241143","","null","","","","","","","","","","","","<img src=images/blank.png width =""500"" height = ""500"" style=""border:5px solid black"">",""
"","702.5600001215935","stimulus-presentation","255","434383","0.0-20.0-1.20","SS1604513241143","<img src='images/complex/6.png' width ='500' height = '500' style='border:5px solid black'>","40","all_complex","images/complex/10.png","images/complex/17.png","images/complex/2.png,images/complex/15.png,images/complex/6.png,images/complex/1.png,images/complex/5.png,images/complex/3.png,images/complex/16.png","2","null","","200","902.5600001215935","","","","deviant"
"","null","html-keyboard-response","256","435493","0.0-20.0-0.21","SS1604513241143","","null","","","","","","","","","","","","<img src=images/blank.png width =""500"" height = ""500"" style=""border:5px solid black"">",""
"","294.3850001320243","stimulus-presentation","257","435991","0.0-20.0-1.21","SS1604513241143","<img src='images/complex/17.png' width ='500' height = '500' style='border:5px solid black'>","40","all_complex","images/complex/10.png","images/complex/17.png","images/complex/2.png,images/complex/15.png,images/complex/6.png,images/complex/1.png,images/complex/5.png,images/complex/3.png,images/complex/16.png","2","null","","200","494.3850001320243","","","","background"
"","null","html-keyboard-response","258","436891","0.0-20.0-0.22","SS1604513241143","","null","","","","","","","","","","","","<img src=images/blank.png width =""500"" height = ""500"" style=""border:5px solid black"">",""
"","552.2100001107901","stimulus-presentation","259","437647","0.0-20.0-1.22","SS1604513241143","<img src='images/complex/5.png' width ='500' height = '500' style='border:5px solid black'>","40","all_complex","images/complex/10.png","images/complex/17.png","images/complex/2.png,images/complex/15.png,images/complex/6.png,images/complex/1.png,images/complex/5.png,images/complex/3.png,images/complex/16.png","2","null","","200","752.2100001107901","","","","deviant"
"","null","html-keyboard-response","260","438944","0.0-20.0-0.23","SS1604513241143","","null","","","","","","","","","","","","<img src=images/blank.png width =""500"" height = ""500"" style=""border:5px solid black"">",""
"","347.83000010065734","stimulus-presentation","261","439496","0.0-20.0-1.23","SS1604513241143","<img src='images/complex/17.png' width ='500' height = '500' style='border:5px solid black'>","40","all_complex","images/complex/10.png","images/complex/17.png","images/complex/2.png,images/complex/15.png,images/complex/6.png,images/complex/1.png,images/complex/5.png,images/complex/3.png,images/complex/16.png","2","null","","200","547.8300001006573","","","","background"
"","null","html-keyboard-response","262","440414","0.0-20.0-0.24","SS1604513241143","","null","","","","","","","","","","","","<img src=images/blank.png width =""500"" height = ""500"" style=""border:5px solid black"">",""
"","812.9450001288205","stimulus-presentation","263","441431","0.0-20.0-1.24","SS1604513241143","<img src='images/complex/10.png' width ='500' height = '500' style='border:5px solid black'>","40","all_complex","images/complex/10.png","images/complex/17.png","images/complex/2.png,images/complex/15.png,images/complex/6.png,images/complex/1.png,images/complex/5.png,images/complex/3.png,images/complex/16.png","2","null","","200","1012.9450001288205","yes","340.99000017158687","","target"
"","null","html-keyboard-response","264","442469","0.0-20.0-0.25","SS1604513241143","","null","","","","","","","","","","","","<img src=images/blank.png width =""500"" height = ""500"" style=""border:5px solid black"">",""
"","254.70499997027218","stimulus-presentation","265","442928","0.0-20.0-1.25","SS1604513241143","<img src='images/complex/17.png' width ='500' height = '500' style='border:5px solid black'>","40","all_complex","images/complex/10.png","images/complex/17.png","images/complex/2.png,images/complex/15.png,images/complex/6.png,images/complex/1.png,images/complex/5.png,images/complex/3.png,images/complex/16.png","2","null","","200","454.7049999702722","","","","background"
"","null","html-keyboard-response","266","443743","0.0-20.0-0.26","SS1604513241143","","null","","","","","","","","","","","","<img src=images/blank.png width =""500"" height = ""500"" style=""border:5px solid black"">",""
"","827.6150000747293","stimulus-presentation","267","444775","0.0-20.0-1.26","SS1604513241143","<img src='images/complex/10.png' width ='500' height = '500' style='border:5px solid black'>","40","all_complex","images/complex/10.png","images/complex/17.png","images/complex/2.png,images/complex/15.png,images/complex/6.png,images/complex/1.png,images/complex/5.png,images/complex/3.png,images/complex/16.png","2","null","","200","1027.6150000747293","yes","355.64500000327826","","target"
"","null","html-keyboard-response","268","446059","0.0-20.0-0.27","SS1604513241143","","null","","","","","","","","","","","","<img src=images/blank.png width =""500"" height = ""500"" style=""border:5px solid black"">",""
"","215.67499986849725","stimulus-presentation","269","446479","0.0-20.0-1.27","SS1604513241143","<img src='images/complex/17.png' width ='500' height = '500' style='border:5px solid black'>","40","all_complex","images/complex/10.png","images/complex/17.png","images/complex/2.png,images/complex/15.png,images/complex/6.png,images/complex/1.png,images/complex/5.png,images/complex/3.png,images/complex/16.png","2","null","","200","415.67499986849725","","","","background"
"","null","html-keyboard-response","270","447326","0.0-20.0-0.28","SS1604513241143","","null","","","","","","","","","","","","<img src=images/blank.png width =""500"" height = ""500"" style=""border:5px solid black"">",""
"","172.6850001141429","stimulus-presentation","271","447703","0.0-20.0-1.28","SS1604513241143","<img src='images/complex/17.png' width ='500' height = '500' style='border:5px solid black'>","40","all_complex","images/complex/10.png","images/complex/17.png","images/complex/2.png,images/complex/15.png,images/complex/6.png,images/complex/1.png,images/complex/5.png,images/complex/3.png,images/complex/16.png","2","null","","200","372.6850001141429","","","","background"
"","null","html-keyboard-response","272","448979","0.0-20.0-0.29","SS1604513241143","","null","","","","","","","","","","","","<img src=images/blank.png width =""500"" height = ""500"" style=""border:5px solid black"">",""
"","184.02000004425645","stimulus-presentation","273","449367","0.0-20.0-1.29","SS1604513241143","<img src='images/complex/17.png' width ='500' height = '500' style='border:5px solid black'>","40","all_complex","images/complex/10.png","images/complex/17.png","images/complex/2.png,images/complex/15.png,images/complex/6.png,images/complex/1.png,images/complex/5.png,images/complex/3.png,images/complex/16.png","2","null","","200","384.02000004425645","","","","background"
"","null","html-keyboard-response","274","450397","0.0-20.0-0.30","SS1604513241143","","null","","","","","","","","","","","","<img src=images/blank.png width =""500"" height = ""500"" style=""border:5px solid black"">",""
"","198.62499996088445","stimulus-presentation","275","450800","0.0-20.0-1.30","SS1604513241143","<img src='images/complex/17.png' width ='500' height = '500' style='border:5px solid black'>","40","all_complex","images/complex/10.png","images/complex/17.png","images/complex/2.png,images/complex/15.png,images/complex/6.png,images/complex/1.png,images/complex/5.png,images/complex/3.png,images/complex/16.png","2","null","","200","398.62499996088445","","","","background"
"","null","html-keyboard-response","276","451681","0.0-20.0-0.31","SS1604513241143","","null","","","","","","","","","","","","<img src=images/blank.png width =""500"" height = ""500"" style=""border:5px solid black"">",""
"","210.57499991729856","stimulus-presentation","277","452095","0.0-20.0-1.31","SS1604513241143","<img src='images/complex/17.png' width ='500' height = '500' style='border:5px solid black'>","40","all_complex","images/complex/10.png","images/complex/17.png","images/complex/2.png,images/complex/15.png,images/complex/6.png,images/complex/1.png,images/complex/5.png,images/complex/3.png,images/complex/16.png","2","null","","200","410.57499991729856","","","","background"
"","null","html-keyboard-response","278","453228","0.0-20.0-0.32","SS1604513241143","","null","","","","","","","","","","","","<img src=images/blank.png width =""500"" height = ""500"" style=""border:5px solid black"">",""
"","183.50499984808266","stimulus-presentation","279","453615","0.0-20.0-1.32","SS1604513241143","<img src='images/complex/17.png' width ='500' height = '500' style='border:5px solid black'>","40","all_complex","images/complex/10.png","images/complex/17.png","images/complex/2.png,images/complex/15.png,images/complex/6.png,images/complex/1.png,images/complex/5.png,images/complex/3.png,images/complex/16.png","2","null","","200","383.50499984808266","","","","background"
"","null","html-keyboard-response","280","454916","0.0-20.0-0.33","SS1604513241143","","null","","","","","","","","","","","","<img src=images/blank.png width =""500"" height = ""500"" style=""border:5px solid black"">",""
"","158.32499996758997","stimulus-presentation","281","455279","0.0-20.0-1.33","SS1604513241143","<img src='images/complex/17.png' width ='500' height = '500' style='border:5px solid black'>","40","all_complex","images/complex/10.png","images/complex/17.png","images/complex/2.png,images/complex/15.png,images/complex/6.png,images/complex/1.png,images/complex/5.png,images/complex/3.png,images/complex/16.png","2","null","","200","358.32499996759","","","","background"
"","null","html-keyboard-response","282","456195","0.0-20.0-0.34","SS1604513241143","","null","","","","","","","","","","","","<img src=images/blank.png width =""500"" height = ""500"" style=""border:5px solid black"">",""
"","175.97500002011657","stimulus-presentation","283","456575","0.0-20.0-1.34","SS1604513241143","<img src='images/complex/17.png' width ='500' height = '500' style='border:5px solid black'>","40","all_complex","images/complex/10.png","images/complex/17.png","images/complex/2.png,images/complex/15.png,images/complex/6.png,images/complex/1.png,images/complex/5.png,images/complex/3.png,images/complex/16.png","2","null","","200","375.97500002011657","","","","background"
"","null","html-keyboard-response","284","457814","0.0-20.0-0.35","SS1604513241143","","null","","","","","","","","","","","","<img src=images/blank.png width =""500"" height = ""500"" style=""border:5px solid black"">",""
"","245.7799999974668","stimulus-presentation","285","458264","0.0-20.0-1.35","SS1604513241143","<img src='images/complex/17.png' width ='500' height = '500' style='border:5px solid black'>","40","all_complex","images/complex/10.png","images/complex/17.png","images/complex/2.png,images/complex/15.png,images/complex/6.png,images/complex/1.png,images/complex/5.png,images/complex/3.png,images/complex/16.png","2","null","","200","445.7799999974668","","","","background"
"","null","html-keyboard-response","286","459316","0.0-20.0-0.36","SS1604513241143","","null","","","","","","","","","","","","<img src=images/blank.png width =""500"" height = ""500"" style=""border:5px solid black"">",""
"","182.7500001527369","stimulus-presentation","287","459703","0.0-20.0-1.36","SS1604513241143","<img src='images/complex/17.png' width ='500' height = '500' style='border:5px solid black'>","40","all_complex","images/complex/10.png","images/complex/17.png","images/complex/2.png,images/complex/15.png,images/complex/6.png,images/complex/1.png,images/complex/5.png,images/complex/3.png,images/complex/16.png","2","null","","200","382.7500001527369","","","","background"
"","null","html-keyboard-response","288","460733","0.0-20.0-0.37","SS1604513241143","","null","","","","","","","","","","","","<img src=images/blank.png width =""500"" height = ""500"" style=""border:5px solid black"">",""
