"view_history","rt","trial_type","trial_index","time_elapsed","internal_node_id","subject","trial_stimulus","key_press","task_type","task_target_stimulus","task_background_stimulus","task_deviant_stimuli","task_order_number","block_order_number","trial_order_number","minimum_viewing_duration","trial_looking_time","trial_pressed_space_bar","trial_space_bar_rt","stimulus","trial_stimulus_type"
"[{""page_index"":0,""viewing_time"":14427.574999999706}]","14429.674999999406","instructions","0","14474","0.0-0.0","SS1604588539182","","","","","","","","","","","","","","",""
"[{""page_index"":0,""viewing_time"":9454.455000000962},{""page_index"":1,""viewing_time"":5983.174999999392},{""page_index"":2,""viewing_time"":10629.90499999978},{""page_index"":3,""viewing_time"":14134.210000000166},{""page_index"":4,""viewing_time"":7078.440000001137},{""page_index"":5,""viewing_time"":8854.609999998502},{""page_index"":6,""viewing_time"":6182.9950000010285},{""page_index"":7,""viewing_time"":11966.114999999263},{""page_index"":8,""viewing_time"":15165.640000001076}]","89450.67999999992","instructions","1","103931","0.0-1.0","SS1604588539182","","","","","","","","","","","","","","",""
"[{""page_index"":0,""viewing_time"":11767.27000000028},{""page_index"":1,""viewing_time"":26106.80999999933},{""page_index"":2,""viewing_time"":3447.5550000006333}]","41322.44999999966","instructions","2","145262","0.0-2.0","SS1604588539182","","","","","","","","","","","","","","",""
"","13108.505000000121","practice-block","3","158579","0.0-3.0","SS1604588539182","<img src='images/practice/practice_background.jpeg' width ='500' height = '500' style='border:5px solid black'>","40","null","images/practice/practice_target.jpg","null","null","null","null","","200","13308.505000000121","yes","1745.0350000017206","",""
"","null","html-keyboard-response","4","159615","0.0-4.0","SS1604588539182","","null","","","","","","","","","","","","<img src=images/blank.png width =""500"" height = ""500"" style=""border:5px solid black"">",""
"","991.0849999996426","practice-block","5","160817","0.0-5.0","SS1604588539182","<img src='images/practice/practice_background.jpeg' width ='500' height = '500' style='border:5px solid black'>","40","null","images/practice/practice_target.jpg","null","null","null","null","","200","1191.0849999996426","","","",""
"","null","html-keyboard-response","6","161983","0.0-6.0","SS1604588539182","","null","","","","","","","","","","","","<img src=images/blank.png width =""500"" height = ""500"" style=""border:5px solid black"">",""
"","1994.6000000000058","practice-block","7","164188","0.0-7.0","SS1604588539182","<img src='images/practice/practice_deviant.jpeg' width ='500' height = '500' style='border:5px solid black'>","40","null","images/practice/practice_target.jpg","null","null","null","null","","200","2194.600000000006","","","",""
"","null","html-keyboard-response","8","165069","0.0-8.0","SS1604588539182","","null","","","","","","","","","","","","<img src=images/blank.png width =""500"" height = ""500"" style=""border:5px solid black"">",""
"","26484.505000000354","practice-block","9","191772","0.0-9.0-0.0","SS1604588539182","<img src='images/practice/practice_target.jpg' width ='500' height = '500' style='border:5px solid black'>","40","null","images/practice/practice_target.jpg","null","null","null","null","","200","26684.505000000354","yes","5306.000000000495","",""
"","null","html-keyboard-response","10","192961","0.0-10.0","SS1604588539182","","null","","","","","","","","","","","","<img src=images/blank.png width =""500"" height = ""500"" style=""border:5px solid black"">",""
"","682.2949999987031","practice-block","11","193849","0.0-11.0","SS1604588539182","<img src='images/practice/practice_background.jpeg' width ='500' height = '500' style='border:5px solid black'>","40","null","images/practice/practice_target.jpg","null","null","null","null","","200","882.2949999987031","","","",""
"[{""page_index"":0,""viewing_time"":2752}]","2753","task-instructions","12","196606","0.0-12.0","SS1604588539182","","","","","","","","","","","","","","",""
"[{""page_index"":0,""viewing_time"":6569.825000000477},{""page_index"":1,""viewing_time"":20476.665000000154},{""page_index"":2,""viewing_time"":1455.7199999999139}]","28502.930000000575","instructions","13","225124","0.0-13.0","SS1604588539182","","","","","","","","","","","","","","",""
"","null","html-keyboard-response","14","226365","0.0-14.0-0.0","SS1604588539182","","null","","","","","","","","","","","","<img src=images/blank.png width =""500"" height = ""500"" style=""border:5px solid black"">",""
"","1758.905000000581","stimulus-presentation","15","228334","0.0-14.0-1.0","SS1604588539182","<img src='images/simple/9.png' width ='500' height = '500' style='border:5px solid black'>","40","mixed_complex_deviant","images/simple/14.png","images/simple/9.png","images/complex/3.png,images/complex/7.png,images/complex/14.png,images/complex/6.png,images/complex/2.png,images/complex/12.png,images/complex/10.png","0","null","","200","1958.905000000581","","","","background"
"","null","html-keyboard-response","16","229597","0.0-14.0-0.1","SS1604588539182","","null","","","","","","","","","","","","<img src=images/blank.png width =""500"" height = ""500"" style=""border:5px solid black"">",""
"","357.64999999990687","stimulus-presentation","17","230168","0.0-14.0-1.1","SS1604588539182","<img src='images/simple/9.png' width ='500' height = '500' style='border:5px solid black'>","40","mixed_complex_deviant","images/simple/14.png","images/simple/9.png","images/complex/3.png,images/complex/7.png,images/complex/14.png,images/complex/6.png,images/complex/2.png,images/complex/12.png,images/complex/10.png","0","null","","200","557.6499999999069","","","","background"
"","null","html-keyboard-response","18","231386","0.0-14.0-0.2","SS1604588539182","","null","","","","","","","","","","","","<img src=images/blank.png width =""500"" height = ""500"" style=""border:5px solid black"">",""
"","450.46999999979744","stimulus-presentation","19","232044","0.0-14.0-1.2","SS1604588539182","<img src='images/simple/9.png' width ='500' height = '500' style='border:5px solid black'>","40","mixed_complex_deviant","images/simple/14.png","images/simple/9.png","images/complex/3.png,images/complex/7.png,images/complex/14.png,images/complex/6.png,images/complex/2.png,images/complex/12.png,images/complex/10.png","0","null","","200","650.4699999997974","","","","background"
"","null","html-keyboard-response","20","233069","0.0-14.0-0.3","SS1604588539182","","null","","","","","","","","","","","","<img src=images/blank.png width =""500"" height = ""500"" style=""border:5px solid black"">",""
"","598.8849999994272","stimulus-presentation","21","233876","0.0-14.0-1.3","SS1604588539182","<img src='images/complex/7.png' width ='500' height = '500' style='border:5px solid black'>","40","mixed_complex_deviant","images/simple/14.png","images/simple/9.png","images/complex/3.png,images/complex/7.png,images/complex/14.png,images/complex/6.png,images/complex/2.png,images/complex/12.png,images/complex/10.png","0","null","","200","798.8849999994272","","","","deviant"
"","null","html-keyboard-response","22","234860","0.0-14.0-0.4","SS1604588539182","","null","","","","","","","","","","","","<img src=images/blank.png width =""500"" height = ""500"" style=""border:5px solid black"">",""
"","338.3699999995006","stimulus-presentation","23","235412","0.0-14.0-1.4","SS1604588539182","<img src='images/simple/9.png' width ='500' height = '500' style='border:5px solid black'>","40","mixed_complex_deviant","images/simple/14.png","images/simple/9.png","images/complex/3.png,images/complex/7.png,images/complex/14.png,images/complex/6.png,images/complex/2.png,images/complex/12.png,images/complex/10.png","0","null","","200","538.3699999995006","","","","background"
"","null","html-keyboard-response","24","236490","0.0-14.0-0.5","SS1604588539182","","null","","","","","","","","","","","","<img src=images/blank.png width =""500"" height = ""500"" style=""border:5px solid black"">",""
"","10399.21999999936","stimulus-presentation","25","247109","0.0-14.0-1.5","SS1604588539182","<img src='images/simple/14.png' width ='500' height = '500' style='border:5px solid black'>","40","mixed_complex_deviant","images/simple/14.png","images/simple/9.png","images/complex/3.png,images/complex/7.png,images/complex/14.png,images/complex/6.png,images/complex/2.png,images/complex/12.png,images/complex/10.png","0","null","","200","10599.21999999936","yes","5074.279999998893","","target"
"","null","html-keyboard-response","26","247951","0.0-14.0-0.6","SS1604588539182","","null","","","","","","","","","","","","<img src=images/blank.png width =""500"" height = ""500"" style=""border:5px solid black"">",""
"","848.2899999999208","stimulus-presentation","27","249015","0.0-14.0-1.6","SS1604588539182","<img src='images/complex/3.png' width ='500' height = '500' style='border:5px solid black'>","40","mixed_complex_deviant","images/simple/14.png","images/simple/9.png","images/complex/3.png,images/complex/7.png,images/complex/14.png,images/complex/6.png,images/complex/2.png,images/complex/12.png,images/complex/10.png","0","null","","200","1048.2899999999208","","","","deviant"
"","null","html-keyboard-response","28","249826","0.0-14.0-0.7","SS1604588539182","","null","","","","","","","","","","","","<img src=images/blank.png width =""500"" height = ""500"" style=""border:5px solid black"">",""
"","397.4149999994552","stimulus-presentation","29","250431","0.0-14.0-1.7","SS1604588539182","<img src='images/simple/9.png' width ='500' height = '500' style='border:5px solid black'>","40","mixed_complex_deviant","images/simple/14.png","images/simple/9.png","images/complex/3.png,images/complex/7.png,images/complex/14.png,images/complex/6.png,images/complex/2.png,images/complex/12.png,images/complex/10.png","0","null","","200","597.4149999994552","","","","background"
"","null","html-keyboard-response","30","251399","0.0-14.0-0.8","SS1604588539182","","null","","","","","","","","","","","","<img src=images/blank.png width =""500"" height = ""500"" style=""border:5px solid black"">",""
"","489.1749999988242","stimulus-presentation","31","252105","0.0-14.0-1.8","SS1604588539182","<img src='images/simple/9.png' width ='500' height = '500' style='border:5px solid black'>","40","mixed_complex_deviant","images/simple/14.png","images/simple/9.png","images/complex/3.png,images/complex/7.png,images/complex/14.png,images/complex/6.png,images/complex/2.png,images/complex/12.png,images/complex/10.png","0","null","","200","689.1749999988242","","","","background"
"","null","html-keyboard-response","32","253256","0.0-14.0-0.9","SS1604588539182","","null","","","","","","","","","","","","<img src=images/blank.png width =""500"" height = ""500"" style=""border:5px solid black"">",""
"","238.5150000009453","stimulus-presentation","33","253711","0.0-14.0-1.9","SS1604588539182","<img src='images/simple/9.png' width ='500' height = '500' style='border:5px solid black'>","40","mixed_complex_deviant","images/simple/14.png","images/simple/9.png","images/complex/3.png,images/complex/7.png,images/complex/14.png,images/complex/6.png,images/complex/2.png,images/complex/12.png,images/complex/10.png","0","null","","200","438.5150000009453","","","","background"
"","null","html-keyboard-response","34","254719","0.0-14.0-0.10","SS1604588539182","","null","","","","","","","","","","","","<img src=images/blank.png width =""500"" height = ""500"" style=""border:5px solid black"">",""
"","303.63500000018394","stimulus-presentation","35","255244","0.0-14.0-1.10","SS1604588539182","<img src='images/simple/9.png' width ='500' height = '500' style='border:5px solid black'>","40","mixed_complex_deviant","images/simple/14.png","images/simple/9.png","images/complex/3.png,images/complex/7.png,images/complex/14.png,images/complex/6.png,images/complex/2.png,images/complex/12.png,images/complex/10.png","0","null","","200","503.63500000018394","","","","background"
"","null","html-keyboard-response","36","256390","0.0-14.0-0.11","SS1604588539182","","null","","","","","","","","","","","","<img src=images/blank.png width =""500"" height = ""500"" style=""border:5px solid black"">",""
"","448.5050000002957","stimulus-presentation","37","257048","0.0-14.0-1.11","SS1604588539182","<img src='images/complex/14.png' width ='500' height = '500' style='border:5px solid black'>","40","mixed_complex_deviant","images/simple/14.png","images/simple/9.png","images/complex/3.png,images/complex/7.png,images/complex/14.png,images/complex/6.png,images/complex/2.png,images/complex/12.png,images/complex/10.png","0","null","","200","648.5050000002957","","","","deviant"
"","null","html-keyboard-response","38","258211","0.0-14.0-0.12","SS1604588539182","","null","","","","","","","","","","","","<img src=images/blank.png width =""500"" height = ""500"" style=""border:5px solid black"">",""
"","356.2999999994645","stimulus-presentation","39","258773","0.0-14.0-1.12","SS1604588539182","<img src='images/simple/9.png' width ='500' height = '500' style='border:5px solid black'>","40","mixed_complex_deviant","images/simple/14.png","images/simple/9.png","images/complex/3.png,images/complex/7.png,images/complex/14.png,images/complex/6.png,images/complex/2.png,images/complex/12.png,images/complex/10.png","0","null","","200","556.2999999994645","","","","background"
"","null","html-keyboard-response","40","259598","0.0-14.0-0.13","SS1604588539182","","null","","","","","","","","","","","","<img src=images/blank.png width =""500"" height = ""500"" style=""border:5px solid black"">",""
"","1912.1699999995762","stimulus-presentation","41","261723","0.0-14.0-1.13","SS1604588539182","<img src='images/simple/14.png' width ='500' height = '500' style='border:5px solid black'>","40","mixed_complex_deviant","images/simple/14.png","images/simple/9.png","images/complex/3.png,images/complex/7.png,images/complex/14.png,images/complex/6.png,images/complex/2.png,images/complex/12.png,images/complex/10.png","0","null","","200","2112.1699999995762","yes","654.8249999996042","","target"
"","null","html-keyboard-response","42","262978","0.0-14.0-0.14","SS1604588539182","","null","","","","","","","","","","","","<img src=images/blank.png width =""500"" height = ""500"" style=""border:5px solid black"">",""
"","1017.9750000006752","stimulus-presentation","43","264202","0.0-14.0-1.14","SS1604588539182","<img src='images/simple/9.png' width ='500' height = '500' style='border:5px solid black'>","40","mixed_complex_deviant","images/simple/14.png","images/simple/9.png","images/complex/3.png,images/complex/7.png,images/complex/14.png,images/complex/6.png,images/complex/2.png,images/complex/12.png,images/complex/10.png","0","null","","200","1217.9750000006752","","","","background"
"","null","html-keyboard-response","44","265158","0.0-14.0-0.15","SS1604588539182","","null","","","","","","","","","","","","<img src=images/blank.png width =""500"" height = ""500"" style=""border:5px solid black"">",""
"","306.1250000009313","stimulus-presentation","45","265670","0.0-14.0-1.15","SS1604588539182","<img src='images/simple/9.png' width ='500' height = '500' style='border:5px solid black'>","40","mixed_complex_deviant","images/simple/14.png","images/simple/9.png","images/complex/3.png,images/complex/7.png,images/complex/14.png,images/complex/6.png,images/complex/2.png,images/complex/12.png,images/complex/10.png","0","null","","200","506.1250000009313","","","","background"
"","null","html-keyboard-response","46","266597","0.0-14.0-0.16","SS1604588539182","","null","","","","","","","","","","","","<img src=images/blank.png width =""500"" height = ""500"" style=""border:5px solid black"">",""
"","2428.4499999994296","stimulus-presentation","47","269232","0.0-14.0-1.16","SS1604588539182","<img src='images/simple/14.png' width ='500' height = '500' style='border:5px solid black'>","40","mixed_complex_deviant","images/simple/14.png","images/simple/9.png","images/complex/3.png,images/complex/7.png,images/complex/14.png,images/complex/6.png,images/complex/2.png,images/complex/12.png,images/complex/10.png","0","null","","200","2628.4499999994296","yes","524.3249999984982","","target"
"","null","html-keyboard-response","48","270246","0.0-14.0-0.17","SS1604588539182","","null","","","","","","","","","","","","<img src=images/blank.png width =""500"" height = ""500"" style=""border:5px solid black"">",""
"","268.4549999994342","stimulus-presentation","49","270721","0.0-14.0-1.17","SS1604588539182","<img src='images/simple/9.png' width ='500' height = '500' style='border:5px solid black'>","40","mixed_complex_deviant","images/simple/14.png","images/simple/9.png","images/complex/3.png,images/complex/7.png,images/complex/14.png,images/complex/6.png,images/complex/2.png,images/complex/12.png,images/complex/10.png","0","null","","200","468.4549999994342","","","","background"
"","null","html-keyboard-response","50","271590","0.0-14.0-0.18","SS1604588539182","","null","","","","","","","","","","","","<img src=images/blank.png width =""500"" height = ""500"" style=""border:5px solid black"">",""
"","185.455000000773","stimulus-presentation","51","271993","0.0-14.0-1.18","SS1604588539182","<img src='images/simple/9.png' width ='500' height = '500' style='border:5px solid black'>","40","mixed_complex_deviant","images/simple/14.png","images/simple/9.png","images/complex/3.png,images/complex/7.png,images/complex/14.png,images/complex/6.png,images/complex/2.png,images/complex/12.png,images/complex/10.png","0","null","","200","385.455000000773","","","","background"
"","null","html-keyboard-response","52","272817","0.0-14.0-0.19","SS1604588539182","","null","","","","","","","","","","","","<img src=images/blank.png width =""500"" height = ""500"" style=""border:5px solid black"">",""
"","887.1699999999837","stimulus-presentation","53","273910","0.0-14.0-1.19","SS1604588539182","<img src='images/simple/9.png' width ='500' height = '500' style='border:5px solid black'>","40","mixed_complex_deviant","images/simple/14.png","images/simple/9.png","images/complex/3.png,images/complex/7.png,images/complex/14.png,images/complex/6.png,images/complex/2.png,images/complex/12.png,images/complex/10.png","0","null","","200","1087.1699999999837","","","","background"
"","null","html-keyboard-response","54","275178","0.0-14.0-0.20","SS1604588539182","","null","","","","","","","","","","","","<img src=images/blank.png width =""500"" height = ""500"" style=""border:5px solid black"">",""
"","977.4999999990687","stimulus-presentation","55","276370","0.0-14.0-1.20","SS1604588539182","<img src='images/simple/9.png' width ='500' height = '500' style='border:5px solid black'>","40","mixed_complex_deviant","images/simple/14.png","images/simple/9.png","images/complex/3.png,images/complex/7.png,images/complex/14.png,images/complex/6.png,images/complex/2.png,images/complex/12.png,images/complex/10.png","0","null","","200","1177.4999999990687","","","","background"
"","null","html-keyboard-response","56","277644","0.0-14.0-0.21","SS1604588539182","","null","","","","","","","","","","","","<img src=images/blank.png width =""500"" height = ""500"" style=""border:5px solid black"">",""
"","691.5900000003749","stimulus-presentation","57","278550","0.0-14.0-1.21","SS1604588539182","<img src='images/simple/9.png' width ='500' height = '500' style='border:5px solid black'>","40","mixed_complex_deviant","images/simple/14.png","images/simple/9.png","images/complex/3.png,images/complex/7.png,images/complex/14.png,images/complex/6.png,images/complex/2.png,images/complex/12.png,images/complex/10.png","0","null","","200","891.5900000003749","","","","background"
"","null","html-keyboard-response","58","279541","0.0-14.0-0.22","SS1604588539182","","null","","","","","","","","","","","","<img src=images/blank.png width =""500"" height = ""500"" style=""border:5px solid black"">",""
"","929.640000000305","stimulus-presentation","59","280689","0.0-14.0-1.22","SS1604588539182","<img src='images/complex/10.png' width ='500' height = '500' style='border:5px solid black'>","40","mixed_complex_deviant","images/simple/14.png","images/simple/9.png","images/complex/3.png,images/complex/7.png,images/complex/14.png,images/complex/6.png,images/complex/2.png,images/complex/12.png,images/complex/10.png","0","null","","200","1129.640000000305","","","","deviant"
"","null","html-keyboard-response","60","281759","0.0-14.0-0.23","SS1604588539182","","null","","","","","","","","","","","","<img src=images/blank.png width =""500"" height = ""500"" style=""border:5px solid black"">",""
"","704.9999999999418","stimulus-presentation","61","282682","0.0-14.0-1.23","SS1604588539182","<img src='images/simple/9.png' width ='500' height = '500' style='border:5px solid black'>","40","mixed_complex_deviant","images/simple/14.png","images/simple/9.png","images/complex/3.png,images/complex/7.png,images/complex/14.png,images/complex/6.png,images/complex/2.png,images/complex/12.png,images/complex/10.png","0","null","","200","904.9999999999418","","","","background"
"","null","html-keyboard-response","62","283690","0.0-14.0-0.24","SS1604588539182","","null","","","","","","","","","","","","<img src=images/blank.png width =""500"" height = ""500"" style=""border:5px solid black"">",""
"","432.18999999953667","stimulus-presentation","63","284342","0.0-14.0-1.24","SS1604588539182","<img src='images/simple/9.png' width ='500' height = '500' style='border:5px solid black'>","40","mixed_complex_deviant","images/simple/14.png","images/simple/9.png","images/complex/3.png,images/complex/7.png,images/complex/14.png,images/complex/6.png,images/complex/2.png,images/complex/12.png,images/complex/10.png","0","null","","200","632.1899999995367","","","","background"
"","null","html-keyboard-response","64","285505","0.0-14.0-0.25","SS1604588539182","","null","","","","","","","","","","","","<img src=images/blank.png width =""500"" height = ""500"" style=""border:5px solid black"">",""
"","256.11000000027707","stimulus-presentation","65","285970","0.0-14.0-1.25","SS1604588539182","<img src='images/simple/9.png' width ='500' height = '500' style='border:5px solid black'>","40","mixed_complex_deviant","images/simple/14.png","images/simple/9.png","images/complex/3.png,images/complex/7.png,images/complex/14.png,images/complex/6.png,images/complex/2.png,images/complex/12.png,images/complex/10.png","0","null","","200","456.11000000027707","","","","background"
"","null","html-keyboard-response","66","287245","0.0-14.0-0.26","SS1604588539182","","null","","","","","","","","","","","","<img src=images/blank.png width =""500"" height = ""500"" style=""border:5px solid black"">",""
"","289.78000000101747","stimulus-presentation","67","287755","0.0-14.0-1.26","SS1604588539182","<img src='images/simple/9.png' width ='500' height = '500' style='border:5px solid black'>","40","mixed_complex_deviant","images/simple/14.png","images/simple/9.png","images/complex/3.png,images/complex/7.png,images/complex/14.png,images/complex/6.png,images/complex/2.png,images/complex/12.png,images/complex/10.png","0","null","","200","489.78000000101747","","","","background"
"","null","html-keyboard-response","68","288984","0.0-14.0-0.27","SS1604588539182","","null","","","","","","","","","","","","<img src=images/blank.png width =""500"" height = ""500"" style=""border:5px solid black"">",""
"","307.96000000007916","stimulus-presentation","69","289503","0.0-14.0-1.27","SS1604588539182","<img src='images/simple/9.png' width ='500' height = '500' style='border:5px solid black'>","40","mixed_complex_deviant","images/simple/14.png","images/simple/9.png","images/complex/3.png,images/complex/7.png,images/complex/14.png,images/complex/6.png,images/complex/2.png,images/complex/12.png,images/complex/10.png","0","null","","200","507.96000000007916","","","","background"
"","null","html-keyboard-response","70","290634","0.0-14.0-0.28","SS1604588539182","","null","","","","","","","","","","","","<img src=images/blank.png width =""500"" height = ""500"" style=""border:5px solid black"">",""
"","234.27500000066357","stimulus-presentation","71","291085","0.0-14.0-1.28","SS1604588539182","<img src='images/simple/9.png' width ='500' height = '500' style='border:5px solid black'>","40","mixed_complex_deviant","images/simple/14.png","images/simple/9.png","images/complex/3.png,images/complex/7.png,images/complex/14.png,images/complex/6.png,images/complex/2.png,images/complex/12.png,images/complex/10.png","0","null","","200","434.27500000066357","","","","background"
"","null","html-keyboard-response","72","292370","0.0-14.0-0.29","SS1604588539182","","null","","","","","","","","","","","","<img src=images/blank.png width =""500"" height = ""500"" style=""border:5px solid black"">",""
"","669.529999999213","stimulus-presentation","73","293254","0.0-14.0-1.29","SS1604588539182","<img src='images/complex/12.png' width ='500' height = '500' style='border:5px solid black'>","40","mixed_complex_deviant","images/simple/14.png","images/simple/9.png","images/complex/3.png,images/complex/7.png,images/complex/14.png,images/complex/6.png,images/complex/2.png,images/complex/12.png,images/complex/10.png","0","null","","200","869.529999999213","","","","deviant"
"","null","html-keyboard-response","74","294414","0.0-14.0-0.30","SS1604588539182","","null","","","","","","","","","","","","<img src=images/blank.png width =""500"" height = ""500"" style=""border:5px solid black"">",""
"","2493.570000000531","stimulus-presentation","75","297129","0.0-14.0-1.30","SS1604588539182","<img src='images/simple/14.png' width ='500' height = '500' style='border:5px solid black'>","40","mixed_complex_deviant","images/simple/14.png","images/simple/9.png","images/complex/3.png,images/complex/7.png,images/complex/14.png,images/complex/6.png,images/complex/2.png,images/complex/12.png,images/complex/10.png","0","null","","200","2693.570000000531","yes","569.1100000003353","","target"
"","null","html-keyboard-response","76","298218","0.0-14.0-0.31","SS1604588539182","","null","","","","","","","","","","","","<img src=images/blank.png width =""500"" height = ""500"" style=""border:5px solid black"">",""
"","374.47499999869615","stimulus-presentation","77","298801","0.0-14.0-1.31","SS1604588539182","<img src='images/simple/9.png' width ='500' height = '500' style='border:5px solid black'>","40","mixed_complex_deviant","images/simple/14.png","images/simple/9.png","images/complex/3.png,images/complex/7.png,images/complex/14.png,images/complex/6.png,images/complex/2.png,images/complex/12.png,images/complex/10.png","0","null","","200","574.4749999986961","","","","background"
"","null","html-keyboard-response","78","299635","0.0-14.0-0.32","SS1604588539182","","null","","","","","","","","","","","","<img src=images/blank.png width =""500"" height = ""500"" style=""border:5px solid black"">",""
"","577.5099999991362","stimulus-presentation","79","300432","0.0-14.0-1.32","SS1604588539182","<img src='images/complex/6.png' width ='500' height = '500' style='border:5px solid black'>","40","mixed_complex_deviant","images/simple/14.png","images/simple/9.png","images/complex/3.png,images/complex/7.png,images/complex/14.png,images/complex/6.png,images/complex/2.png,images/complex/12.png,images/complex/10.png","0","null","","200","777.5099999991362","","","","deviant"
"","null","html-keyboard-response","80","301677","0.0-14.0-0.33","SS1604588539182","","null","","","","","","","","","","","","<img src=images/blank.png width =""500"" height = ""500"" style=""border:5px solid black"">",""
"","278.28500000032363","stimulus-presentation","81","302165","0.0-14.0-1.33","SS1604588539182","<img src='images/simple/9.png' width ='500' height = '500' style='border:5px solid black'>","40","mixed_complex_deviant","images/simple/14.png","images/simple/9.png","images/complex/3.png,images/complex/7.png,images/complex/14.png,images/complex/6.png,images/complex/2.png,images/complex/12.png,images/complex/10.png","0","null","","200","478.28500000032363","","","","background"
"","null","html-keyboard-response","82","303064","0.0-14.0-0.34","SS1604588539182","","null","","","","","","","","","","","","<img src=images/blank.png width =""500"" height = ""500"" style=""border:5px solid black"">",""
"","1308.64000000112","stimulus-presentation","83","304581","0.0-14.0-1.34","SS1604588539182","<img src='images/simple/9.png' width ='500' height = '500' style='border:5px solid black'>","40","mixed_complex_deviant","images/simple/14.png","images/simple/9.png","images/complex/3.png,images/complex/7.png,images/complex/14.png,images/complex/6.png,images/complex/2.png,images/complex/12.png,images/complex/10.png","0","null","","200","1508.64000000112","","","","background"
"","null","html-keyboard-response","84","305581","0.0-14.0-0.35","SS1604588539182","","null","","","","","","","","","","","","<img src=images/blank.png width =""500"" height = ""500"" style=""border:5px solid black"">",""
"","173.45000000018626","stimulus-presentation","85","305977","0.0-14.0-1.35","SS1604588539182","<img src='images/simple/9.png' width ='500' height = '500' style='border:5px solid black'>","40","mixed_complex_deviant","images/simple/14.png","images/simple/9.png","images/complex/3.png,images/complex/7.png,images/complex/14.png,images/complex/6.png,images/complex/2.png,images/complex/12.png,images/complex/10.png","0","null","","200","373.45000000018626","","","","background"
"","null","html-keyboard-response","86","307040","0.0-14.0-0.36","SS1604588539182","","null","","","","","","","","","","","","<img src=images/blank.png width =""500"" height = ""500"" style=""border:5px solid black"">",""
"","254.10000000015134","stimulus-presentation","87","307510","0.0-14.0-1.36","SS1604588539182","<img src='images/simple/9.png' width ='500' height = '500' style='border:5px solid black'>","40","mixed_complex_deviant","images/simple/14.png","images/simple/9.png","images/complex/3.png,images/complex/7.png,images/complex/14.png,images/complex/6.png,images/complex/2.png,images/complex/12.png,images/complex/10.png","0","null","","200","454.10000000015134","","","","background"
"","null","html-keyboard-response","88","308587","0.0-14.0-0.37","SS1604588539182","","null","","","","","","","","","","","","<img src=images/blank.png width =""500"" height = ""500"" style=""border:5px solid black"">",""
"","2355.8499999999185","stimulus-presentation","89","311162","0.0-14.0-1.37","SS1604588539182","<img src='images/simple/14.png' width ='500' height = '500' style='border:5px solid black'>","40","mixed_complex_deviant","images/simple/14.png","images/simple/9.png","images/complex/3.png,images/complex/7.png,images/complex/14.png,images/complex/6.png,images/complex/2.png,images/complex/12.png,images/complex/10.png","0","null","","200","2555.8499999999185","yes","510.8199999994831","","target"
"","null","html-keyboard-response","90","312376","0.0-14.0-0.38","SS1604588539182","","null","","","","","","","","","","","","<img src=images/blank.png width =""500"" height = ""500"" style=""border:5px solid black"">",""
"","286.4399999998859","stimulus-presentation","91","312870","0.0-14.0-1.38","SS1604588539182","<img src='images/simple/9.png' width ='500' height = '500' style='border:5px solid black'>","40","mixed_complex_deviant","images/simple/14.png","images/simple/9.png","images/complex/3.png,images/complex/7.png,images/complex/14.png,images/complex/6.png,images/complex/2.png,images/complex/12.png,images/complex/10.png","0","null","","200","486.4399999998859","","","","background"
"","null","html-keyboard-response","92","313714","0.0-14.0-0.39","SS1604588539182","","null","","","","","","","","","","","","<img src=images/blank.png width =""500"" height = ""500"" style=""border:5px solid black"">",""
"","292.7450000006356","stimulus-presentation","93","314219","0.0-14.0-1.39","SS1604588539182","<img src='images/simple/9.png' width ='500' height = '500' style='border:5px solid black'>","40","mixed_complex_deviant","images/simple/14.png","images/simple/9.png","images/complex/3.png,images/complex/7.png,images/complex/14.png,images/complex/6.png,images/complex/2.png,images/complex/12.png,images/complex/10.png","0","null","","200","492.7450000006356","","","","background"
"","null","html-keyboard-response","94","315399","0.0-14.0-0.40","SS1604588539182","","null","","","","","","","","","","","","<img src=images/blank.png width =""500"" height = ""500"" style=""border:5px solid black"">",""
"","253.94500000035623","stimulus-presentation","95","315864","0.0-14.0-1.40","SS1604588539182","<img src='images/simple/9.png' width ='500' height = '500' style='border:5px solid black'>","40","mixed_complex_deviant","images/simple/14.png","images/simple/9.png","images/complex/3.png,images/complex/7.png,images/complex/14.png,images/complex/6.png,images/complex/2.png,images/complex/12.png,images/complex/10.png","0","null","","200","453.94500000035623","","","","background"
"","null","html-keyboard-response","96","316939","0.0-14.0-0.41","SS1604588539182","","null","","","","","","","","","","","","<img src=images/blank.png width =""500"" height = ""500"" style=""border:5px solid black"">",""
"","245.94499999872642","stimulus-presentation","97","317407","0.0-14.0-1.41","SS1604588539182","<img src='images/simple/9.png' width ='500' height = '500' style='border:5px solid black'>","40","mixed_complex_deviant","images/simple/14.png","images/simple/9.png","images/complex/3.png,images/complex/7.png,images/complex/14.png,images/complex/6.png,images/complex/2.png,images/complex/12.png,images/complex/10.png","0","null","","200","445.9449999987264","","","","background"
"","null","html-keyboard-response","98","318279","0.0-14.0-0.42","SS1604588539182","","null","","","","","","","","","","","","<img src=images/blank.png width =""500"" height = ""500"" style=""border:5px solid black"">",""
"","625.7799999985145","stimulus-presentation","99","319117","0.0-14.0-1.42","SS1604588539182","<img src='images/complex/2.png' width ='500' height = '500' style='border:5px solid black'>","40","mixed_complex_deviant","images/simple/14.png","images/simple/9.png","images/complex/3.png,images/complex/7.png,images/complex/14.png,images/complex/6.png,images/complex/2.png,images/complex/12.png,images/complex/10.png","0","null","","200","825.7799999985145","","","","deviant"
"","null","html-keyboard-response","100","320094","0.0-14.0-0.43","SS1604588539182","","null","","","","","","","","","","","","<img src=images/blank.png width =""500"" height = ""500"" style=""border:5px solid black"">",""
"","1421.159999999858","stimulus-presentation","101","321734","0.0-14.0-1.43","SS1604588539182","<img src='images/simple/14.png' width ='500' height = '500' style='border:5px solid black'>","40","mixed_complex_deviant","images/simple/14.png","images/simple/9.png","images/complex/3.png,images/complex/7.png,images/complex/14.png,images/complex/6.png,images/complex/2.png,images/complex/12.png,images/complex/10.png","0","null","","200","1621.159999999858","yes","482.32500000082655","","target"
"","null","html-keyboard-response","102","322985","0.0-14.0-0.44","SS1604588539182","","null","","","","","","","","","","","","<img src=images/blank.png width =""500"" height = ""500"" style=""border:5px solid black"">",""
"","424.1750000001048","stimulus-presentation","103","323622","0.0-14.0-1.44","SS1604588539182","<img src='images/simple/9.png' width ='500' height = '500' style='border:5px solid black'>","40","mixed_complex_deviant","images/simple/14.png","images/simple/9.png","images/complex/3.png,images/complex/7.png,images/complex/14.png,images/complex/6.png,images/complex/2.png,images/complex/12.png,images/complex/10.png","0","null","","200","624.1750000001048","","","","background"
"","null","html-keyboard-response","104","324865","0.0-14.0-0.45","SS1604588539182","","null","","","","","","","","","","","","<img src=images/blank.png width =""500"" height = ""500"" style=""border:5px solid black"">",""
"","258.3250000006519","stimulus-presentation","105","325339","0.0-14.0-1.45","SS1604588539182","<img src='images/simple/9.png' width ='500' height = '500' style='border:5px solid black'>","40","mixed_complex_deviant","images/simple/14.png","images/simple/9.png","images/complex/3.png,images/complex/7.png,images/complex/14.png,images/complex/6.png,images/complex/2.png,images/complex/12.png,images/complex/10.png","0","null","","200","458.3250000006519","","","","background"
"","null","html-keyboard-response","106","326518","0.0-14.0-0.46","SS1604588539182","","null","","","","","","","","","","","","<img src=images/blank.png width =""500"" height = ""500"" style=""border:5px solid black"">",""
"","182.28499999898486","stimulus-presentation","107","326923","0.0-14.0-1.46","SS1604588539182","<img src='images/simple/9.png' width ='500' height = '500' style='border:5px solid black'>","40","mixed_complex_deviant","images/simple/14.png","images/simple/9.png","images/complex/3.png,images/complex/7.png,images/complex/14.png,images/complex/6.png,images/complex/2.png,images/complex/12.png,images/complex/10.png","0","null","","200","382.28499999898486","","","","background"
"","null","html-keyboard-response","108","327738","0.0-14.0-0.47","SS1604588539182","","null","","","","","","","","","","","","<img src=images/blank.png width =""500"" height = ""500"" style=""border:5px solid black"">",""
"","241.27500000031432","stimulus-presentation","109","328195","0.0-14.0-1.47","SS1604588539182","<img src='images/simple/9.png' width ='500' height = '500' style='border:5px solid black'>","40","mixed_complex_deviant","images/simple/14.png","images/simple/9.png","images/complex/3.png,images/complex/7.png,images/complex/14.png,images/complex/6.png,images/complex/2.png,images/complex/12.png,images/complex/10.png","0","null","","200","441.2750000003143","","","","background"
"","null","html-keyboard-response","110","329108","0.0-14.0-0.48","SS1604588539182","","null","","","","","","","","","","","","<img src=images/blank.png width =""500"" height = ""500"" style=""border:5px solid black"">",""
"","2323.3849999997183","stimulus-presentation","111","331640","0.0-14.0-1.48","SS1604588539182","<img src='images/simple/14.png' width ='500' height = '500' style='border:5px solid black'>","40","mixed_complex_deviant","images/simple/14.png","images/simple/9.png","images/complex/3.png,images/complex/7.png,images/complex/14.png,images/complex/6.png,images/complex/2.png,images/complex/12.png,images/complex/10.png","0","null","","200","2523.3849999997183","yes","580.9949999984237","","target"
"[{""page_index"":0,""viewing_time"":11563}]","11563","task-instructions","112","343210","0.0-15.0","SS1604588539182","","","","","","","","","","","","","","",""
"[{""page_index"":0,""viewing_time"":6863.77499999979},{""page_index"":1,""viewing_time"":7014.95500000054},{""page_index"":2,""viewing_time"":1847.4500000011176}]","15726.96999999974","instructions","113","358946","0.0-16.0","SS1604588539182","","","","","","","","","","","","","","",""
"","null","html-keyboard-response","114","360090","0.0-17.0-0.0","SS1604588539182","","null","","","","","","","","","","","","<img src=images/blank.png width =""500"" height = ""500"" style=""border:5px solid black"">",""
"","947.995000000461","stimulus-presentation","115","361262","0.0-17.0-1.0","SS1604588539182","<img src='images/complex/15.png' width ='500' height = '500' style='border:5px solid black'>","40","all_complex","images/complex/11.png","images/complex/15.png","images/complex/1.png,images/complex/4.png,images/complex/5.png,images/complex/17.png,images/complex/18.png,images/complex/13.png,images/complex/9.png","1","null","","200","1147.995000000461","","","","background"
"","null","html-keyboard-response","116","362493","0.0-17.0-0.1","SS1604588539182","","null","","","","","","","","","","","","<img src=images/blank.png width =""500"" height = ""500"" style=""border:5px solid black"">",""
"","237.03999999997905","stimulus-presentation","117","362937","0.0-17.0-1.1","SS1604588539182","<img src='images/complex/18.png' width ='500' height = '500' style='border:5px solid black'>","40","all_complex","images/complex/11.png","images/complex/15.png","images/complex/1.png,images/complex/4.png,images/complex/5.png,images/complex/17.png,images/complex/18.png,images/complex/13.png,images/complex/9.png","1","null","","200","437.03999999997905","","","","deviant"
"","null","html-keyboard-response","118","363785","0.0-17.0-0.2","SS1604588539182","","null","","","","","","","","","","","","<img src=images/blank.png width =""500"" height = ""500"" style=""border:5px solid black"">",""
"","442.50999999890337","stimulus-presentation","119","364436","0.0-17.0-1.2","SS1604588539182","<img src='images/complex/15.png' width ='500' height = '500' style='border:5px solid black'>","40","all_complex","images/complex/11.png","images/complex/15.png","images/complex/1.png,images/complex/4.png,images/complex/5.png,images/complex/17.png,images/complex/18.png,images/complex/13.png,images/complex/9.png","1","null","","200","642.5099999989034","","","","background"
"","null","html-keyboard-response","120","365635","0.0-17.0-0.3","SS1604588539182","","null","","","","","","","","","","","","<img src=images/blank.png width =""500"" height = ""500"" style=""border:5px solid black"">",""
"","222.5350000007893","stimulus-presentation","121","366066","0.0-17.0-1.3","SS1604588539182","<img src='images/complex/15.png' width ='500' height = '500' style='border:5px solid black'>","40","all_complex","images/complex/11.png","images/complex/15.png","images/complex/1.png,images/complex/4.png,images/complex/5.png,images/complex/17.png,images/complex/18.png,images/complex/13.png,images/complex/9.png","1","null","","200","422.5350000007893","","","","background"
"","null","html-keyboard-response","122","367305","0.0-17.0-0.4","SS1604588539182","","null","","","","","","","","","","","","<img src=images/blank.png width =""500"" height = ""500"" style=""border:5px solid black"">",""
"","396.30500000022585","stimulus-presentation","123","367910","0.0-17.0-1.4","SS1604588539182","<img src='images/complex/15.png' width ='500' height = '500' style='border:5px solid black'>","40","all_complex","images/complex/11.png","images/complex/15.png","images/complex/1.png,images/complex/4.png,images/complex/5.png,images/complex/17.png,images/complex/18.png,images/complex/13.png,images/complex/9.png","1","null","","200","596.3050000002258","","","","background"
"","null","html-keyboard-response","124","368904","0.0-17.0-0.5","SS1604588539182","","null","","","","","","","","","","","","<img src=images/blank.png width =""500"" height = ""500"" style=""border:5px solid black"">",""
"","324.36500000045635","stimulus-presentation","125","369437","0.0-17.0-1.5","SS1604588539182","<img src='images/complex/1.png' width ='500' height = '500' style='border:5px solid black'>","40","all_complex","images/complex/11.png","images/complex/15.png","images/complex/1.png,images/complex/4.png,images/complex/5.png,images/complex/17.png,images/complex/18.png,images/complex/13.png,images/complex/9.png","1","null","","200","524.3650000004563","","","","deviant"
"","null","html-keyboard-response","126","370290","0.0-17.0-0.6","SS1604588539182","","null","","","","","","","","","","","","<img src=images/blank.png width =""500"" height = ""500"" style=""border:5px solid black"">",""
"","260.78500000044005","stimulus-presentation","127","370761","0.0-17.0-1.6","SS1604588539182","<img src='images/complex/15.png' width ='500' height = '500' style='border:5px solid black'>","40","all_complex","images/complex/11.png","images/complex/15.png","images/complex/1.png,images/complex/4.png,images/complex/5.png,images/complex/17.png,images/complex/18.png,images/complex/13.png,images/complex/9.png","1","null","","200","460.78500000044005","","","","background"
"","null","html-keyboard-response","128","372050","0.0-17.0-0.7","SS1604588539182","","null","","","","","","","","","","","","<img src=images/blank.png width =""500"" height = ""500"" style=""border:5px solid black"">",""
"","230.7449999989476","stimulus-presentation","129","372488","0.0-17.0-1.7","SS1604588539182","<img src='images/complex/15.png' width ='500' height = '500' style='border:5px solid black'>","40","all_complex","images/complex/11.png","images/complex/15.png","images/complex/1.png,images/complex/4.png,images/complex/5.png,images/complex/17.png,images/complex/18.png,images/complex/13.png,images/complex/9.png","1","null","","200","430.7449999989476","","","","background"
"","null","html-keyboard-response","130","373462","0.0-17.0-0.8","SS1604588539182","","null","","","","","","","","","","","","<img src=images/blank.png width =""500"" height = ""500"" style=""border:5px solid black"">",""
"","477.725000000617","stimulus-presentation","131","374149","0.0-17.0-1.8","SS1604588539182","<img src='images/complex/4.png' width ='500' height = '500' style='border:5px solid black'>","40","all_complex","images/complex/11.png","images/complex/15.png","images/complex/1.png,images/complex/4.png,images/complex/5.png,images/complex/17.png,images/complex/18.png,images/complex/13.png,images/complex/9.png","1","null","","200","677.725000000617","","","","deviant"
"","null","html-keyboard-response","132","375277","0.0-17.0-0.9","SS1604588539182","","null","","","","","","","","","","","","<img src=images/blank.png width =""500"" height = ""500"" style=""border:5px solid black"">",""
"","321.879999999539","stimulus-presentation","133","375814","0.0-17.0-1.9","SS1604588539182","<img src='images/complex/15.png' width ='500' height = '500' style='border:5px solid black'>","40","all_complex","images/complex/11.png","images/complex/15.png","images/complex/1.png,images/complex/4.png,images/complex/5.png,images/complex/17.png,images/complex/18.png,images/complex/13.png,images/complex/9.png","1","null","","200","521.879999999539","","","","background"
"","null","html-keyboard-response","134","376778","0.0-17.0-0.10","SS1604588539182","","null","","","","","","","","","","","","<img src=images/blank.png width =""500"" height = ""500"" style=""border:5px solid black"">",""
"","223.06500000011874","stimulus-presentation","135","377212","0.0-17.0-1.10","SS1604588539182","<img src='images/complex/15.png' width ='500' height = '500' style='border:5px solid black'>","40","all_complex","images/complex/11.png","images/complex/15.png","images/complex/1.png,images/complex/4.png,images/complex/5.png,images/complex/17.png,images/complex/18.png,images/complex/13.png,images/complex/9.png","1","null","","200","423.06500000011874","","","","background"
"","null","html-keyboard-response","136","378175","0.0-17.0-0.11","SS1604588539182","","null","","","","","","","","","","","","<img src=images/blank.png width =""500"" height = ""500"" style=""border:5px solid black"">",""
"","326.1199999997043","stimulus-presentation","137","378716","0.0-17.0-1.11","SS1604588539182","<img src='images/complex/15.png' width ='500' height = '500' style='border:5px solid black'>","40","all_complex","images/complex/11.png","images/complex/15.png","images/complex/1.png,images/complex/4.png,images/complex/5.png,images/complex/17.png,images/complex/18.png,images/complex/13.png,images/complex/9.png","1","null","","200","526.1199999997043","","","","background"
"","null","html-keyboard-response","138","379665","0.0-17.0-0.12","SS1604588539182","","null","","","","","","","","","","","","<img src=images/blank.png width =""500"" height = ""500"" style=""border:5px solid black"">",""
"","192.6750000002794","stimulus-presentation","139","380081","0.0-17.0-1.12","SS1604588539182","<img src='images/complex/15.png' width ='500' height = '500' style='border:5px solid black'>","40","all_complex","images/complex/11.png","images/complex/15.png","images/complex/1.png,images/complex/4.png,images/complex/5.png,images/complex/17.png,images/complex/18.png,images/complex/13.png,images/complex/9.png","1","null","","200","392.6750000002794","","","","background"
"","null","html-keyboard-response","140","381116","0.0-17.0-0.13","SS1604588539182","","null","","","","","","","","","","","","<img src=images/blank.png width =""500"" height = ""500"" style=""border:5px solid black"">",""
"","392.84000000043306","stimulus-presentation","141","381736","0.0-17.0-1.13","SS1604588539182","<img src='images/complex/9.png' width ='500' height = '500' style='border:5px solid black'>","40","all_complex","images/complex/11.png","images/complex/15.png","images/complex/1.png,images/complex/4.png,images/complex/5.png,images/complex/17.png,images/complex/18.png,images/complex/13.png,images/complex/9.png","1","null","","200","592.8400000004331","","","","deviant"
"","null","html-keyboard-response","142","382765","0.0-17.0-0.14","SS1604588539182","","null","","","","","","","","","","","","<img src=images/blank.png width =""500"" height = ""500"" style=""border:5px solid black"">",""
"","241.05500000040047","stimulus-presentation","143","383231","0.0-17.0-1.14","SS1604588539182","<img src='images/complex/15.png' width ='500' height = '500' style='border:5px solid black'>","40","all_complex","images/complex/11.png","images/complex/15.png","images/complex/1.png,images/complex/4.png,images/complex/5.png,images/complex/17.png,images/complex/18.png,images/complex/13.png,images/complex/9.png","1","null","","200","441.05500000040047","","","","background"
"","null","html-keyboard-response","144","384205","0.0-17.0-0.15","SS1604588539182","","null","","","","","","","","","","","","<img src=images/blank.png width =""500"" height = ""500"" style=""border:5px solid black"">",""
"","221.99499999987893","stimulus-presentation","145","384645","0.0-17.0-1.15","SS1604588539182","<img src='images/complex/15.png' width ='500' height = '500' style='border:5px solid black'>","40","all_complex","images/complex/11.png","images/complex/15.png","images/complex/1.png,images/complex/4.png,images/complex/5.png,images/complex/17.png,images/complex/18.png,images/complex/13.png,images/complex/9.png","1","null","","200","421.9949999998789","","","","background"
"","null","html-keyboard-response","146","385722","0.0-17.0-0.16","SS1604588539182","","null","","","","","","","","","","","","<img src=images/blank.png width =""500"" height = ""500"" style=""border:5px solid black"">",""
"","230.41500000003725","stimulus-presentation","147","386171","0.0-17.0-1.16","SS1604588539182","<img src='images/complex/15.png' width ='500' height = '500' style='border:5px solid black'>","40","all_complex","images/complex/11.png","images/complex/15.png","images/complex/1.png,images/complex/4.png,images/complex/5.png,images/complex/17.png,images/complex/18.png,images/complex/13.png,images/complex/9.png","1","null","","200","430.41500000003725","","","","background"
"","null","html-keyboard-response","148","386998","0.0-17.0-0.17","SS1604588539182","","null","","","","","","","","","","","","<img src=images/blank.png width =""500"" height = ""500"" style=""border:5px solid black"">",""
"","285.7249999997439","stimulus-presentation","149","387510","0.0-17.0-1.17","SS1604588539182","<img src='images/complex/15.png' width ='500' height = '500' style='border:5px solid black'>","40","all_complex","images/complex/11.png","images/complex/15.png","images/complex/1.png,images/complex/4.png,images/complex/5.png,images/complex/17.png,images/complex/18.png,images/complex/13.png,images/complex/9.png","1","null","","200","485.7249999997439","","","","background"
"","null","html-keyboard-response","150","388509","0.0-17.0-0.18","SS1604588539182","","null","","","","","","","","","","","","<img src=images/blank.png width =""500"" height = ""500"" style=""border:5px solid black"">",""
"","230.55999999993946","stimulus-presentation","151","388956","0.0-17.0-1.18","SS1604588539182","<img src='images/complex/15.png' width ='500' height = '500' style='border:5px solid black'>","40","all_complex","images/complex/11.png","images/complex/15.png","images/complex/1.png,images/complex/4.png,images/complex/5.png,images/complex/17.png,images/complex/18.png,images/complex/13.png,images/complex/9.png","1","null","","200","430.55999999993946","","","","background"
"","null","html-keyboard-response","152","390034","0.0-17.0-0.19","SS1604588539182","","null","","","","","","","","","","","","<img src=images/blank.png width =""500"" height = ""500"" style=""border:5px solid black"">",""
"","534.4399999994785","stimulus-presentation","153","390794","0.0-17.0-1.19","SS1604588539182","<img src='images/complex/15.png' width ='500' height = '500' style='border:5px solid black'>","40","all_complex","images/complex/11.png","images/complex/15.png","images/complex/1.png,images/complex/4.png,images/complex/5.png,images/complex/17.png,images/complex/18.png,images/complex/13.png,images/complex/9.png","1","null","","200","734.4399999994785","","","","background"
"","null","html-keyboard-response","154","391920","0.0-17.0-0.20","SS1604588539182","","null","","","","","","","","","","","","<img src=images/blank.png width =""500"" height = ""500"" style=""border:5px solid black"">",""
"","1360.2300000002142","stimulus-presentation","155","393496","0.0-17.0-1.20","SS1604588539182","<img src='images/complex/11.png' width ='500' height = '500' style='border:5px solid black'>","40","all_complex","images/complex/11.png","images/complex/15.png","images/complex/1.png,images/complex/4.png,images/complex/5.png,images/complex/17.png,images/complex/18.png,images/complex/13.png,images/complex/9.png","1","null","","200","1560.2300000002142","yes","467.4199999990524","","target"
"","null","html-keyboard-response","156","394691","0.0-17.0-0.21","SS1604588539182","","null","","","","","","","","","","","","<img src=images/blank.png width =""500"" height = ""500"" style=""border:5px solid black"">",""
"","1058.9199999994598","stimulus-presentation","157","395969","0.0-17.0-1.21","SS1604588539182","<img src='images/complex/15.png' width ='500' height = '500' style='border:5px solid black'>","40","all_complex","images/complex/11.png","images/complex/15.png","images/complex/1.png,images/complex/4.png,images/complex/5.png,images/complex/17.png,images/complex/18.png,images/complex/13.png,images/complex/9.png","1","null","","200","1258.9199999994598","","","","background"
"","null","html-keyboard-response","158","396964","0.0-17.0-0.22","SS1604588539182","","null","","","","","","","","","","","","<img src=images/blank.png width =""500"" height = ""500"" style=""border:5px solid black"">",""
"","273.2450000003446","stimulus-presentation","159","397451","0.0-17.0-1.22","SS1604588539182","<img src='images/complex/15.png' width ='500' height = '500' style='border:5px solid black'>","40","all_complex","images/complex/11.png","images/complex/15.png","images/complex/1.png,images/complex/4.png,images/complex/5.png,images/complex/17.png,images/complex/18.png,images/complex/13.png,images/complex/9.png","1","null","","200","473.2450000003446","","","","background"
"","null","html-keyboard-response","160","398727","0.0-17.0-0.23","SS1604588539182","","null","","","","","","","","","","","","<img src=images/blank.png width =""500"" height = ""500"" style=""border:5px solid black"">",""
"","1212.059999999823","stimulus-presentation","161","400159","0.0-17.0-1.23","SS1604588539182","<img src='images/complex/11.png' width ='500' height = '500' style='border:5px solid black'>","40","all_complex","images/complex/11.png","images/complex/15.png","images/complex/1.png,images/complex/4.png,images/complex/5.png,images/complex/17.png,images/complex/18.png,images/complex/13.png,images/complex/9.png","1","null","","200","1412.059999999823","yes","556.1999999990221","","target"
"","null","html-keyboard-response","162","401037","0.0-17.0-0.24","SS1604588539182","","null","","","","","","","","","","","","<img src=images/blank.png width =""500"" height = ""500"" style=""border:5px solid black"">",""
"","401.2600000005914","stimulus-presentation","163","401664","0.0-17.0-1.24","SS1604588539182","<img src='images/complex/15.png' width ='500' height = '500' style='border:5px solid black'>","40","all_complex","images/complex/11.png","images/complex/15.png","images/complex/1.png,images/complex/4.png,images/complex/5.png,images/complex/17.png,images/complex/18.png,images/complex/13.png,images/complex/9.png","1","null","","200","601.2600000005914","","","","background"
"","null","html-keyboard-response","164","402909","0.0-17.0-0.25","SS1604588539182","","null","","","","","","","","","","","","<img src=images/blank.png width =""500"" height = ""500"" style=""border:5px solid black"">",""
"","308.78500000108033","stimulus-presentation","165","403441","0.0-17.0-1.25","SS1604588539182","<img src='images/complex/5.png' width ='500' height = '500' style='border:5px solid black'>","40","all_complex","images/complex/11.png","images/complex/15.png","images/complex/1.png,images/complex/4.png,images/complex/5.png,images/complex/17.png,images/complex/18.png,images/complex/13.png,images/complex/9.png","1","null","","200","508.78500000108033","","","","deviant"
"","null","html-keyboard-response","166","404293","0.0-17.0-0.26","SS1604588539182","","null","","","","","","","","","","","","<img src=images/blank.png width =""500"" height = ""500"" style=""border:5px solid black"">",""
"","1118.6999999990803","stimulus-presentation","167","405626","0.0-17.0-1.26","SS1604588539182","<img src='images/complex/11.png' width ='500' height = '500' style='border:5px solid black'>","40","all_complex","images/complex/11.png","images/complex/15.png","images/complex/1.png,images/complex/4.png,images/complex/5.png,images/complex/17.png,images/complex/18.png,images/complex/13.png,images/complex/9.png","1","null","","200","1318.6999999990803","yes","366.355000000156","","target"
"","null","html-keyboard-response","168","406469","0.0-17.0-0.27","SS1604588539182","","null","","","","","","","","","","","","<img src=images/blank.png width =""500"" height = ""500"" style=""border:5px solid black"">",""
"","350.6699999998091","stimulus-presentation","169","407049","0.0-17.0-1.27","SS1604588539182","<img src='images/complex/15.png' width ='500' height = '500' style='border:5px solid black'>","40","all_complex","images/complex/11.png","images/complex/15.png","images/complex/1.png,images/complex/4.png,images/complex/5.png,images/complex/17.png,images/complex/18.png,images/complex/13.png,images/complex/9.png","1","null","","200","550.6699999998091","","","","background"
"","null","html-keyboard-response","170","408125","0.0-17.0-0.28","SS1604588539182","","null","","","","","","","","","","","","<img src=images/blank.png width =""500"" height = ""500"" style=""border:5px solid black"">",""
"","872.2050000015297","stimulus-presentation","171","409217","0.0-17.0-1.28","SS1604588539182","<img src='images/complex/15.png' width ='500' height = '500' style='border:5px solid black'>","40","all_complex","images/complex/11.png","images/complex/15.png","images/complex/1.png,images/complex/4.png,images/complex/5.png,images/complex/17.png,images/complex/18.png,images/complex/13.png,images/complex/9.png","1","null","","200","1072.2050000015297","","","","background"
"","null","html-keyboard-response","172","410343","0.0-17.0-0.29","SS1604588539182","","null","","","","","","","","","","","","<img src=images/blank.png width =""500"" height = ""500"" style=""border:5px solid black"">",""
"","232.5700000001816","stimulus-presentation","173","410792","0.0-17.0-1.29","SS1604588539182","<img src='images/complex/15.png' width ='500' height = '500' style='border:5px solid black'>","40","all_complex","images/complex/11.png","images/complex/15.png","images/complex/1.png,images/complex/4.png,images/complex/5.png,images/complex/17.png,images/complex/18.png,images/complex/13.png,images/complex/9.png","1","null","","200","432.5700000001816","","","","background"
"","null","html-keyboard-response","174","411967","0.0-17.0-0.30","SS1604588539182","","null","","","","","","","","","","","","<img src=images/blank.png width =""500"" height = ""500"" style=""border:5px solid black"">",""
"","400.33000000042375","stimulus-presentation","175","412594","0.0-17.0-1.30","SS1604588539182","<img src='images/complex/15.png' width ='500' height = '500' style='border:5px solid black'>","40","all_complex","images/complex/11.png","images/complex/15.png","images/complex/1.png,images/complex/4.png,images/complex/5.png,images/complex/17.png,images/complex/18.png,images/complex/13.png,images/complex/9.png","1","null","","200","600.3300000004238","","","","background"
"","null","html-keyboard-response","176","413873","0.0-17.0-0.31","SS1604588539182","","null","","","","","","","","","","","","<img src=images/blank.png width =""500"" height = ""500"" style=""border:5px solid black"">",""
"","457.85500000056345","stimulus-presentation","177","414554","0.0-17.0-1.31","SS1604588539182","<img src='images/complex/17.png' width ='500' height = '500' style='border:5px solid black'>","40","all_complex","images/complex/11.png","images/complex/15.png","images/complex/1.png,images/complex/4.png,images/complex/5.png,images/complex/17.png,images/complex/18.png,images/complex/13.png,images/complex/9.png","1","null","","200","657.8550000005635","","","","deviant"
"","null","html-keyboard-response","178","415553","0.0-17.0-0.32","SS1604588539182","","null","","","","","","","","","","","","<img src=images/blank.png width =""500"" height = ""500"" style=""border:5px solid black"">",""
"","1211.2299999989918","stimulus-presentation","179","416990","0.0-17.0-1.32","SS1604588539182","<img src='images/complex/11.png' width ='500' height = '500' style='border:5px solid black'>","40","all_complex","images/complex/11.png","images/complex/15.png","images/complex/1.png,images/complex/4.png,images/complex/5.png,images/complex/17.png,images/complex/18.png,images/complex/13.png,images/complex/9.png","1","null","","200","1411.2299999989918","yes","435.3499999997439","","target"
"","null","html-keyboard-response","180","417838","0.0-17.0-0.33","SS1604588539182","","null","","","","","","","","","","","","<img src=images/blank.png width =""500"" height = ""500"" style=""border:5px solid black"">",""
"","574.5299999999115","stimulus-presentation","181","418639","0.0-17.0-1.33","SS1604588539182","<img src='images/complex/15.png' width ='500' height = '500' style='border:5px solid black'>","40","all_complex","images/complex/11.png","images/complex/15.png","images/complex/1.png,images/complex/4.png,images/complex/5.png,images/complex/17.png,images/complex/18.png,images/complex/13.png,images/complex/9.png","1","null","","200","774.5299999999115","","","","background"
"","null","html-keyboard-response","182","419856","0.0-17.0-0.34","SS1604588539182","","null","","","","","","","","","","","","<img src=images/blank.png width =""500"" height = ""500"" style=""border:5px solid black"">",""
"","242.24499999941327","stimulus-presentation","183","420324","0.0-17.0-1.34","SS1604588539182","<img src='images/complex/15.png' width ='500' height = '500' style='border:5px solid black'>","40","all_complex","images/complex/11.png","images/complex/15.png","images/complex/1.png,images/complex/4.png,images/complex/5.png,images/complex/17.png,images/complex/18.png,images/complex/13.png,images/complex/9.png","1","null","","200","442.24499999941327","","","","background"
"","null","html-keyboard-response","184","421465","0.0-17.0-0.35","SS1604588539182","","null","","","","","","","","","","","","<img src=images/blank.png width =""500"" height = ""500"" style=""border:5px solid black"">",""
"","271.1799999997602","stimulus-presentation","185","421955","0.0-17.0-1.35","SS1604588539182","<img src='images/complex/15.png' width ='500' height = '500' style='border:5px solid black'>","40","all_complex","images/complex/11.png","images/complex/15.png","images/complex/1.png,images/complex/4.png,images/complex/5.png,images/complex/17.png,images/complex/18.png,images/complex/13.png,images/complex/9.png","1","null","","200","471.1799999997602","","","","background"
"","null","html-keyboard-response","186","422824","0.0-17.0-0.36","SS1604588539182","","null","","","","","","","","","","","","<img src=images/blank.png width =""500"" height = ""500"" style=""border:5px solid black"">",""
"","395.39499999955297","stimulus-presentation","187","423437","0.0-17.0-1.36","SS1604588539182","<img src='images/complex/15.png' width ='500' height = '500' style='border:5px solid black'>","40","all_complex","images/complex/11.png","images/complex/15.png","images/complex/1.png,images/complex/4.png,images/complex/5.png,images/complex/17.png,images/complex/18.png,images/complex/13.png,images/complex/9.png","1","null","","200","595.394999999553","","","","background"
"","null","html-keyboard-response","188","424289","0.0-17.0-0.37","SS1604588539182","","null","","","","","","","","","","","","<img src=images/blank.png width =""500"" height = ""500"" style=""border:5px solid black"">",""
"","201.31499999843072","stimulus-presentation","189","424711","0.0-17.0-1.37","SS1604588539182","<img src='images/complex/15.png' width ='500' height = '500' style='border:5px solid black'>","40","all_complex","images/complex/11.png","images/complex/15.png","images/complex/1.png,images/complex/4.png,images/complex/5.png,images/complex/17.png,images/complex/18.png,images/complex/13.png,images/complex/9.png","1","null","","200","401.3149999984307","","","","background"
"","null","html-keyboard-response","190","425805","0.0-17.0-0.38","SS1604588539182","","null","","","","","","","","","","","","<img src=images/blank.png width =""500"" height = ""500"" style=""border:5px solid black"">",""
"","1288.7300000002142","stimulus-presentation","191","427312","0.0-17.0-1.38","SS1604588539182","<img src='images/complex/11.png' width ='500' height = '500' style='border:5px solid black'>","40","all_complex","images/complex/11.png","images/complex/15.png","images/complex/1.png,images/complex/4.png,images/complex/5.png,images/complex/17.png,images/complex/18.png,images/complex/13.png,images/complex/9.png","1","null","","200","1488.7300000002142","yes","565.4199999989942","","target"
"","null","html-keyboard-response","192","428357","0.0-17.0-0.39","SS1604588539182","","null","","","","","","","","","","","","<img src=images/blank.png width =""500"" height = ""500"" style=""border:5px solid black"">",""
"","360.35000000084983","stimulus-presentation","193","428935","0.0-17.0-1.39","SS1604588539182","<img src='images/complex/15.png' width ='500' height = '500' style='border:5px solid black'>","40","all_complex","images/complex/11.png","images/complex/15.png","images/complex/1.png,images/complex/4.png,images/complex/5.png,images/complex/17.png,images/complex/18.png,images/complex/13.png,images/complex/9.png","1","null","","200","560.3500000008498","","","","background"
"","null","html-keyboard-response","194","430007","0.0-17.0-0.40","SS1604588539182","","null","","","","","","","","","","","","<img src=images/blank.png width =""500"" height = ""500"" style=""border:5px solid black"">",""
"","142.2549999988405","stimulus-presentation","195","430368","0.0-17.0-1.40","SS1604588539182","<img src='images/complex/15.png' width ='500' height = '500' style='border:5px solid black'>","40","all_complex","images/complex/11.png","images/complex/15.png","images/complex/1.png,images/complex/4.png,images/complex/5.png,images/complex/17.png,images/complex/18.png,images/complex/13.png,images/complex/9.png","1","null","","200","342.2549999988405","","","","background"
"","null","html-keyboard-response","196","431362","0.0-17.0-0.41","SS1604588539182","","null","","","","","","","","","","","","<img src=images/blank.png width =""500"" height = ""500"" style=""border:5px solid black"">",""
"","249.1449999997858","stimulus-presentation","197","431841","0.0-17.0-1.41","SS1604588539182","<img src='images/complex/15.png' width ='500' height = '500' style='border:5px solid black'>","40","all_complex","images/complex/11.png","images/complex/15.png","images/complex/1.png,images/complex/4.png,images/complex/5.png,images/complex/17.png,images/complex/18.png,images/complex/13.png,images/complex/9.png","1","null","","200","449.1449999997858","","","","background"
"","null","html-keyboard-response","198","433141","0.0-17.0-0.42","SS1604588539182","","null","","","","","","","","","","","","<img src=images/blank.png width =""500"" height = ""500"" style=""border:5px solid black"">",""
"","348.76500000059605","stimulus-presentation","199","433714","0.0-17.0-1.42","SS1604588539182","<img src='images/complex/15.png' width ='500' height = '500' style='border:5px solid black'>","40","all_complex","images/complex/11.png","images/complex/15.png","images/complex/1.png,images/complex/4.png,images/complex/5.png,images/complex/17.png,images/complex/18.png,images/complex/13.png,images/complex/9.png","1","null","","200","548.765000000596","","","","background"
"","null","html-keyboard-response","200","434832","0.0-17.0-0.43","SS1604588539182","","null","","","","","","","","","","","","<img src=images/blank.png width =""500"" height = ""500"" style=""border:5px solid black"">",""
"","598.4900000003399","stimulus-presentation","201","435654","0.0-17.0-1.43","SS1604588539182","<img src='images/complex/13.png' width ='500' height = '500' style='border:5px solid black'>","40","all_complex","images/complex/11.png","images/complex/15.png","images/complex/1.png,images/complex/4.png,images/complex/5.png,images/complex/17.png,images/complex/18.png,images/complex/13.png,images/complex/9.png","1","null","","200","798.4900000003399","","","","deviant"
"","null","html-keyboard-response","202","436487","0.0-17.0-0.44","SS1604588539182","","null","","","","","","","","","","","","<img src=images/blank.png width =""500"" height = ""500"" style=""border:5px solid black"">",""
"","1502.3149999997695","stimulus-presentation","203","438213","0.0-17.0-1.44","SS1604588539182","<img src='images/complex/11.png' width ='500' height = '500' style='border:5px solid black'>","40","all_complex","images/complex/11.png","images/complex/15.png","images/complex/1.png,images/complex/4.png,images/complex/5.png,images/complex/17.png,images/complex/18.png,images/complex/13.png,images/complex/9.png","1","null","","200","1702.3149999997695","yes","423.41499999928055","","target"
"","null","html-keyboard-response","204","439510","0.0-17.0-0.45","SS1604588539182","","null","","","","","","","","","","","","<img src=images/blank.png width =""500"" height = ""500"" style=""border:5px solid black"">",""
"","180.8750000000582","stimulus-presentation","205","439919","0.0-17.0-1.45","SS1604588539182","<img src='images/complex/15.png' width ='500' height = '500' style='border:5px solid black'>","40","all_complex","images/complex/11.png","images/complex/15.png","images/complex/1.png,images/complex/4.png,images/complex/5.png,images/complex/17.png,images/complex/18.png,images/complex/13.png,images/complex/9.png","1","null","","200","380.8750000000582","","","","background"
"","null","html-keyboard-response","206","441078","0.0-17.0-0.46","SS1604588539182","","null","","","","","","","","","","","","<img src=images/blank.png width =""500"" height = ""500"" style=""border:5px solid black"">",""
"","1401.6649999994552","stimulus-presentation","207","442710","0.0-17.0-1.46","SS1604588539182","<img src='images/complex/11.png' width ='500' height = '500' style='border:5px solid black'>","40","all_complex","images/complex/11.png","images/complex/15.png","images/complex/1.png,images/complex/4.png,images/complex/5.png,images/complex/17.png,images/complex/18.png,images/complex/13.png,images/complex/9.png","1","null","","200","1601.6649999994552","yes","887.9550000001909","","target"
"","null","html-keyboard-response","208","443895","0.0-17.0-0.47","SS1604588539182","","null","","","","","","","","","","","","<img src=images/blank.png width =""500"" height = ""500"" style=""border:5px solid black"">",""
"","296.7650000010035","stimulus-presentation","209","444422","0.0-17.0-1.47","SS1604588539182","<img src='images/complex/15.png' width ='500' height = '500' style='border:5px solid black'>","40","all_complex","images/complex/11.png","images/complex/15.png","images/complex/1.png,images/complex/4.png,images/complex/5.png,images/complex/17.png,images/complex/18.png,images/complex/13.png,images/complex/9.png","1","null","","200","496.7650000010035","","","","background"
"","null","html-keyboard-response","210","445252","0.0-17.0-0.48","SS1604588539182","","null","","","","","","","","","","","","<img src=images/blank.png width =""500"" height = ""500"" style=""border:5px solid black"">",""
"","173.75499999983003","stimulus-presentation","211","445648","0.0-17.0-1.48","SS1604588539182","<img src='images/complex/15.png' width ='500' height = '500' style='border:5px solid black'>","40","all_complex","images/complex/11.png","images/complex/15.png","images/complex/1.png,images/complex/4.png,images/complex/5.png,images/complex/17.png,images/complex/18.png,images/complex/13.png,images/complex/9.png","1","null","","200","373.75499999983003","","","","background"
"[{""page_index"":0,""viewing_time"":109922}]","109923","task-instructions","212","555588","0.0-18.0","SS1604588539182","","","","","","","","","","","","","","",""
"[{""page_index"":0,""viewing_time"":10995.730000000447},{""page_index"":1,""viewing_time"":4695.1850000005215},{""page_index"":2,""viewing_time"":2799.41999999946}]","18491.470000000787","instructions","213","574097","0.0-19.0","SS1604588539182","","","","","","","","","","","","","","",""
"","null","html-keyboard-response","214","575227","0.0-20.0-0.0","SS1604588539182","","null","","","","","","","","","","","","<img src=images/blank.png width =""500"" height = ""500"" style=""border:5px solid black"">",""
"","1530.170000000042","stimulus-presentation","215","576978","0.0-20.0-1.0","SS1604588539182","<img src='images/simple/11.png' width ='500' height = '500' style='border:5px solid black'>","40","mixed_simple_deviant","images/complex/8.png","images/complex/16.png","images/simple/15.png,images/simple/6.png,images/simple/11.png,images/simple/10.png,images/simple/7.png,images/simple/2.png,images/simple/3.png","2","null","","200","1730.170000000042","","","","deviant"
"","null","html-keyboard-response","216","577810","0.0-20.0-0.1","SS1604588539182","","null","","","","","","","","","","","","<img src=images/blank.png width =""500"" height = ""500"" style=""border:5px solid black"">",""
"","315.8749999983702","stimulus-presentation","217","578358","0.0-20.0-1.1","SS1604588539182","<img src='images/complex/16.png' width ='500' height = '500' style='border:5px solid black'>","40","mixed_simple_deviant","images/complex/8.png","images/complex/16.png","images/simple/15.png,images/simple/6.png,images/simple/11.png,images/simple/10.png,images/simple/7.png,images/simple/2.png,images/simple/3.png","2","null","","200","515.8749999983702","","","","background"
"","null","html-keyboard-response","218","579605","0.0-20.0-0.2","SS1604588539182","","null","","","","","","","","","","","","<img src=images/blank.png width =""500"" height = ""500"" style=""border:5px solid black"">",""
"","209.82499999995343","stimulus-presentation","219","580049","0.0-20.0-1.2","SS1604588539182","<img src='images/complex/16.png' width ='500' height = '500' style='border:5px solid black'>","40","mixed_simple_deviant","images/complex/8.png","images/complex/16.png","images/simple/15.png,images/simple/6.png,images/simple/11.png,images/simple/10.png,images/simple/7.png,images/simple/2.png,images/simple/3.png","2","null","","200","409.82499999995343","","","","background"
"","null","html-keyboard-response","220","581080","0.0-20.0-0.3","SS1604588539182","","null","","","","","","","","","","","","<img src=images/blank.png width =""500"" height = ""500"" style=""border:5px solid black"">",""
"","416.1399999993155","stimulus-presentation","221","581716","0.0-20.0-1.3","SS1604588539182","<img src='images/complex/16.png' width ='500' height = '500' style='border:5px solid black'>","40","mixed_simple_deviant","images/complex/8.png","images/complex/16.png","images/simple/15.png,images/simple/6.png,images/simple/11.png,images/simple/10.png,images/simple/7.png,images/simple/2.png,images/simple/3.png","2","null","","200","616.1399999993155","","","","background"
"","null","html-keyboard-response","222","582919","0.0-20.0-0.4","SS1604588539182","","null","","","","","","","","","","","","<img src=images/blank.png width =""500"" height = ""500"" style=""border:5px solid black"">",""
"","1402.0999999993946","stimulus-presentation","223","584543","0.0-20.0-1.4","SS1604588539182","<img src='images/complex/8.png' width ='500' height = '500' style='border:5px solid black'>","40","mixed_simple_deviant","images/complex/8.png","images/complex/16.png","images/simple/15.png,images/simple/6.png,images/simple/11.png,images/simple/10.png,images/simple/7.png,images/simple/2.png,images/simple/3.png","2","null","","200","1602.0999999993946","yes","668.2349999991711","","target"
"","null","html-keyboard-response","224","585644","0.0-20.0-0.5","SS1604588539182","","null","","","","","","","","","","","","<img src=images/blank.png width =""500"" height = ""500"" style=""border:5px solid black"">",""
"","237.00499999907333","stimulus-presentation","225","586113","0.0-20.0-1.5","SS1604588539182","<img src='images/simple/3.png' width ='500' height = '500' style='border:5px solid black'>","40","mixed_simple_deviant","images/complex/8.png","images/complex/16.png","images/simple/15.png,images/simple/6.png,images/simple/11.png,images/simple/10.png,images/simple/7.png,images/simple/2.png,images/simple/3.png","2","null","","200","437.00499999907333","","","","deviant"
"","null","html-keyboard-response","226","587178","0.0-20.0-0.6","SS1604588539182","","null","","","","","","","","","","","","<img src=images/blank.png width =""500"" height = ""500"" style=""border:5px solid black"">",""
"","227.91999999934342","stimulus-presentation","227","587633","0.0-20.0-1.6","SS1604588539182","<img src='images/complex/16.png' width ='500' height = '500' style='border:5px solid black'>","40","mixed_simple_deviant","images/complex/8.png","images/complex/16.png","images/simple/15.png,images/simple/6.png,images/simple/11.png,images/simple/10.png,images/simple/7.png,images/simple/2.png,images/simple/3.png","2","null","","200","427.9199999993434","","","","background"
"","null","html-keyboard-response","228","588564","0.0-20.0-0.7","SS1604588539182","","null","","","","","","","","","","","","<img src=images/blank.png width =""500"" height = ""500"" style=""border:5px solid black"">",""
"","194.03500000038184","stimulus-presentation","229","588979","0.0-20.0-1.7","SS1604588539182","<img src='images/complex/16.png' width ='500' height = '500' style='border:5px solid black'>","40","mixed_simple_deviant","images/complex/8.png","images/complex/16.png","images/simple/15.png,images/simple/6.png,images/simple/11.png,images/simple/10.png,images/simple/7.png,images/simple/2.png,images/simple/3.png","2","null","","200","394.03500000038184","","","","background"
"","null","html-keyboard-response","230","590213","0.0-20.0-0.8","SS1604588539182","","null","","","","","","","","","","","","<img src=images/blank.png width =""500"" height = ""500"" style=""border:5px solid black"">",""
"","256.4300000013318","stimulus-presentation","231","590690","0.0-20.0-1.8","SS1604588539182","<img src='images/complex/16.png' width ='500' height = '500' style='border:5px solid black'>","40","mixed_simple_deviant","images/complex/8.png","images/complex/16.png","images/simple/15.png,images/simple/6.png,images/simple/11.png,images/simple/10.png,images/simple/7.png,images/simple/2.png,images/simple/3.png","2","null","","200","456.4300000013318","","","","background"
"","null","html-keyboard-response","232","591932","0.0-20.0-0.9","SS1604588539182","","null","","","","","","","","","","","","<img src=images/blank.png width =""500"" height = ""500"" style=""border:5px solid black"">",""
"","207.7650000009453","stimulus-presentation","233","592365","0.0-20.0-1.9","SS1604588539182","<img src='images/complex/16.png' width ='500' height = '500' style='border:5px solid black'>","40","mixed_simple_deviant","images/complex/8.png","images/complex/16.png","images/simple/15.png,images/simple/6.png,images/simple/11.png,images/simple/10.png,images/simple/7.png,images/simple/2.png,images/simple/3.png","2","null","","200","407.7650000009453","","","","background"
"","null","html-keyboard-response","234","593624","0.0-20.0-0.10","SS1604588539182","","null","","","","","","","","","","","","<img src=images/blank.png width =""500"" height = ""500"" style=""border:5px solid black"">",""
"","407.74499999859836","stimulus-presentation","235","594257","0.0-20.0-1.10","SS1604588539182","<img src='images/simple/2.png' width ='500' height = '500' style='border:5px solid black'>","40","mixed_simple_deviant","images/complex/8.png","images/complex/16.png","images/simple/15.png,images/simple/6.png,images/simple/11.png,images/simple/10.png,images/simple/7.png,images/simple/2.png,images/simple/3.png","2","null","","200","607.7449999985984","","","","deviant"
"","null","html-keyboard-response","236","595270","0.0-20.0-0.11","SS1604588539182","","null","","","","","","","","","","","","<img src=images/blank.png width =""500"" height = ""500"" style=""border:5px solid black"">",""
"","219.9749999998603","stimulus-presentation","237","595715","0.0-20.0-1.11","SS1604588539182","<img src='images/complex/16.png' width ='500' height = '500' style='border:5px solid black'>","40","mixed_simple_deviant","images/complex/8.png","images/complex/16.png","images/simple/15.png,images/simple/6.png,images/simple/11.png,images/simple/10.png,images/simple/7.png,images/simple/2.png,images/simple/3.png","2","null","","200","419.9749999998603","","","","background"
"","null","html-keyboard-response","238","596992","0.0-20.0-0.12","SS1604588539182","","null","","","","","","","","","","","","<img src=images/blank.png width =""500"" height = ""500"" style=""border:5px solid black"">",""
"","226.3600000005681","stimulus-presentation","239","597437","0.0-20.0-1.12","SS1604588539182","<img src='images/complex/16.png' width ='500' height = '500' style='border:5px solid black'>","40","mixed_simple_deviant","images/complex/8.png","images/complex/16.png","images/simple/15.png,images/simple/6.png,images/simple/11.png,images/simple/10.png,images/simple/7.png,images/simple/2.png,images/simple/3.png","2","null","","200","426.3600000005681","","","","background"
"","null","html-keyboard-response","240","598725","0.0-20.0-0.13","SS1604588539182","","null","","","","","","","","","","","","<img src=images/blank.png width =""500"" height = ""500"" style=""border:5px solid black"">",""
"","200.32999999972526","stimulus-presentation","241","599144","0.0-20.0-1.13","SS1604588539182","<img src='images/complex/16.png' width ='500' height = '500' style='border:5px solid black'>","40","mixed_simple_deviant","images/complex/8.png","images/complex/16.png","images/simple/15.png,images/simple/6.png,images/simple/11.png,images/simple/10.png,images/simple/7.png,images/simple/2.png,images/simple/3.png","2","null","","200","400.32999999972526","","","","background"
"","null","html-keyboard-response","242","600412","0.0-20.0-0.14","SS1604588539182","","null","","","","","","","","","","","","<img src=images/blank.png width =""500"" height = ""500"" style=""border:5px solid black"">",""
"","247.28000000142492","stimulus-presentation","243","600879","0.0-20.0-1.14","SS1604588539182","<img src='images/complex/16.png' width ='500' height = '500' style='border:5px solid black'>","40","mixed_simple_deviant","images/complex/8.png","images/complex/16.png","images/simple/15.png,images/simple/6.png,images/simple/11.png,images/simple/10.png,images/simple/7.png,images/simple/2.png,images/simple/3.png","2","null","","200","447.2800000014249","","","","background"
"","null","html-keyboard-response","244","602107","0.0-20.0-0.15","SS1604588539182","","null","","","","","","","","","","","","<img src=images/blank.png width =""500"" height = ""500"" style=""border:5px solid black"">",""
"","206.4700000010198","stimulus-presentation","245","602534","0.0-20.0-1.15","SS1604588539182","<img src='images/complex/16.png' width ='500' height = '500' style='border:5px solid black'>","40","mixed_simple_deviant","images/complex/8.png","images/complex/16.png","images/simple/15.png,images/simple/6.png,images/simple/11.png,images/simple/10.png,images/simple/7.png,images/simple/2.png,images/simple/3.png","2","null","","200","406.4700000010198","","","","background"
"","null","html-keyboard-response","246","603366","0.0-20.0-0.16","SS1604588539182","","null","","","","","","","","","","","","<img src=images/blank.png width =""500"" height = ""500"" style=""border:5px solid black"">",""
"","348.5849999997299","stimulus-presentation","247","603935","0.0-20.0-1.16","SS1604588539182","<img src='images/complex/16.png' width ='500' height = '500' style='border:5px solid black'>","40","mixed_simple_deviant","images/complex/8.png","images/complex/16.png","images/simple/15.png,images/simple/6.png,images/simple/11.png,images/simple/10.png,images/simple/7.png,images/simple/2.png,images/simple/3.png","2","null","","200","548.5849999997299","","","","background"
"","null","html-keyboard-response","248","604981","0.0-20.0-0.17","SS1604588539182","","null","","","","","","","","","","","","<img src=images/blank.png width =""500"" height = ""500"" style=""border:5px solid black"">",""
"","618.2850000004983","stimulus-presentation","249","605822","0.0-20.0-1.17","SS1604588539182","<img src='images/simple/7.png' width ='500' height = '500' style='border:5px solid black'>","40","mixed_simple_deviant","images/complex/8.png","images/complex/16.png","images/simple/15.png,images/simple/6.png,images/simple/11.png,images/simple/10.png,images/simple/7.png,images/simple/2.png,images/simple/3.png","2","null","","200","818.2850000004983","","","","deviant"
"","null","html-keyboard-response","250","606973","0.0-20.0-0.18","SS1604588539182","","null","","","","","","","","","","","","<img src=images/blank.png width =""500"" height = ""500"" style=""border:5px solid black"">",""
"","329.1300000001211","stimulus-presentation","251","607520","0.0-20.0-1.18","SS1604588539182","<img src='images/complex/16.png' width ='500' height = '500' style='border:5px solid black'>","40","mixed_simple_deviant","images/complex/8.png","images/complex/16.png","images/simple/15.png,images/simple/6.png,images/simple/11.png,images/simple/10.png,images/simple/7.png,images/simple/2.png,images/simple/3.png","2","null","","200","529.1300000001211","","","","background"
"","null","html-keyboard-response","252","608436","0.0-20.0-0.19","SS1604588539182","","null","","","","","","","","","","","","<img src=images/blank.png width =""500"" height = ""500"" style=""border:5px solid black"">",""
"","230.5250000008382","stimulus-presentation","253","608897","0.0-20.0-1.19","SS1604588539182","<img src='images/complex/16.png' width ='500' height = '500' style='border:5px solid black'>","40","mixed_simple_deviant","images/complex/8.png","images/complex/16.png","images/simple/15.png,images/simple/6.png,images/simple/11.png,images/simple/10.png,images/simple/7.png,images/simple/2.png,images/simple/3.png","2","null","","200","430.5250000008382","","","","background"
"","null","html-keyboard-response","254","609747","0.0-20.0-0.20","SS1604588539182","","null","","","","","","","","","","","","<img src=images/blank.png width =""500"" height = ""500"" style=""border:5px solid black"">",""
"","195.4449999993667","stimulus-presentation","255","610159","0.0-20.0-1.20","SS1604588539182","<img src='images/complex/16.png' width ='500' height = '500' style='border:5px solid black'>","40","mixed_simple_deviant","images/complex/8.png","images/complex/16.png","images/simple/15.png,images/simple/6.png,images/simple/11.png,images/simple/10.png,images/simple/7.png,images/simple/2.png,images/simple/3.png","2","null","","200","395.4449999993667","","","","background"
"","null","html-keyboard-response","256","611254","0.0-20.0-0.21","SS1604588539182","","null","","","","","","","","","","","","<img src=images/blank.png width =""500"" height = ""500"" style=""border:5px solid black"">",""
"","202.32500000018626","stimulus-presentation","257","611673","0.0-20.0-1.21","SS1604588539182","<img src='images/complex/16.png' width ='500' height = '500' style='border:5px solid black'>","40","mixed_simple_deviant","images/complex/8.png","images/complex/16.png","images/simple/15.png,images/simple/6.png,images/simple/11.png,images/simple/10.png,images/simple/7.png,images/simple/2.png,images/simple/3.png","2","null","","200","402.32500000018626","","","","background"
"","null","html-keyboard-response","258","612946","0.0-20.0-0.22","SS1604588539182","","null","","","","","","","","","","","","<img src=images/blank.png width =""500"" height = ""500"" style=""border:5px solid black"">",""
"","1002.394999999553","stimulus-presentation","259","614164","0.0-20.0-1.22","SS1604588539182","<img src='images/complex/8.png' width ='500' height = '500' style='border:5px solid black'>","40","mixed_simple_deviant","images/complex/8.png","images/complex/16.png","images/simple/15.png,images/simple/6.png,images/simple/11.png,images/simple/10.png,images/simple/7.png,images/simple/2.png,images/simple/3.png","2","null","","200","1202.394999999553","yes","551.1800000004005","","target"
"","null","html-keyboard-response","260","615384","0.0-20.0-0.23","SS1604588539182","","null","","","","","","","","","","","","<img src=images/blank.png width =""500"" height = ""500"" style=""border:5px solid black"">",""
"","1526.155000001425","stimulus-presentation","261","617129","0.0-20.0-1.23","SS1604588539182","<img src='images/complex/8.png' width ='500' height = '500' style='border:5px solid black'>","40","mixed_simple_deviant","images/complex/8.png","images/complex/16.png","images/simple/15.png,images/simple/6.png,images/simple/11.png,images/simple/10.png,images/simple/7.png,images/simple/2.png,images/simple/3.png","2","null","","200","1726.155000001425","yes","1006.1100000002189","","target"
"","null","html-keyboard-response","262","618282","0.0-20.0-0.24","SS1604588539182","","null","","","","","","","","","","","","<img src=images/blank.png width =""500"" height = ""500"" style=""border:5px solid black"">",""
"","517.4650000008987","stimulus-presentation","263","619019","0.0-20.0-1.24","SS1604588539182","<img src='images/complex/16.png' width ='500' height = '500' style='border:5px solid black'>","40","mixed_simple_deviant","images/complex/8.png","images/complex/16.png","images/simple/15.png,images/simple/6.png,images/simple/11.png,images/simple/10.png,images/simple/7.png,images/simple/2.png,images/simple/3.png","2","null","","200","717.4650000008987","","","","background"
"","null","html-keyboard-response","264","620243","0.0-20.0-0.25","SS1604588539182","","null","","","","","","","","","","","","<img src=images/blank.png width =""500"" height = ""500"" style=""border:5px solid black"">",""
"","911.4100000006147","stimulus-presentation","265","621372","0.0-20.0-1.25","SS1604588539182","<img src='images/complex/8.png' width ='500' height = '500' style='border:5px solid black'>","40","mixed_simple_deviant","images/complex/8.png","images/complex/16.png","images/simple/15.png,images/simple/6.png,images/simple/11.png,images/simple/10.png,images/simple/7.png,images/simple/2.png,images/simple/3.png","2","null","","200","1111.4100000006147","yes","470.1999999997206","","target"
"","null","html-keyboard-response","266","622672","0.0-20.0-0.26","SS1604588539182","","null","","","","","","","","","","","","<img src=images/blank.png width =""500"" height = ""500"" style=""border:5px solid black"">",""
"","822.2299999997485","stimulus-presentation","267","623713","0.0-20.0-1.26","SS1604588539182","<img src='images/complex/16.png' width ='500' height = '500' style='border:5px solid black'>","40","mixed_simple_deviant","images/complex/8.png","images/complex/16.png","images/simple/15.png,images/simple/6.png,images/simple/11.png,images/simple/10.png,images/simple/7.png,images/simple/2.png,images/simple/3.png","2","null","","200","1022.2299999997485","","","","background"
"","null","html-keyboard-response","268","625012","0.0-20.0-0.27","SS1604588539182","","null","","","","","","","","","","","","<img src=images/blank.png width =""500"" height = ""500"" style=""border:5px solid black"">",""
"","235.3249999997206","stimulus-presentation","269","625464","0.0-20.0-1.27","SS1604588539182","<img src='images/complex/16.png' width ='500' height = '500' style='border:5px solid black'>","40","mixed_simple_deviant","images/complex/8.png","images/complex/16.png","images/simple/15.png,images/simple/6.png,images/simple/11.png,images/simple/10.png,images/simple/7.png,images/simple/2.png,images/simple/3.png","2","null","","200","435.3249999997206","","","","background"
"","null","html-keyboard-response","270","626377","0.0-20.0-0.28","SS1604588539182","","null","","","","","","","","","","","","<img src=images/blank.png width =""500"" height = ""500"" style=""border:5px solid black"">",""
"","335.4600000001956","stimulus-presentation","271","626930","0.0-20.0-1.28","SS1604588539182","<img src='images/simple/15.png' width ='500' height = '500' style='border:5px solid black'>","40","mixed_simple_deviant","images/complex/8.png","images/complex/16.png","images/simple/15.png,images/simple/6.png,images/simple/11.png,images/simple/10.png,images/simple/7.png,images/simple/2.png,images/simple/3.png","2","null","","200","535.4600000001956","","","","deviant"
"","null","html-keyboard-response","272","628092","0.0-20.0-0.29","SS1604588539182","","null","","","","","","","","","","","","<img src=images/blank.png width =""500"" height = ""500"" style=""border:5px solid black"">",""
