"view_history","rt","trial_type","trial_index","time_elapsed","internal_node_id","subject","trial_stimulus","key_press","task_type","task_target_stimulus","task_background_stimulus","task_deviant_stimuli","task_order_number","block_order_number","trial_order_number","minimum_viewing_duration","trial_looking_time","trial_pressed_space_bar","trial_space_bar_rt","stimulus","trial_stimulus_type","responses","question_order"
"[{""page_index"":0,""viewing_time"":39700.10000000002}]","39701.100000000224","instructions","0","39866","0.0-0.0","SS1604588531250","","","","","","","","","","","","","","","","",""
"[{""page_index"":0,""viewing_time"":8625.400000000809},{""page_index"":1,""viewing_time"":13512.699999999313},{""page_index"":2,""viewing_time"":8743.500000000495},{""page_index"":3,""viewing_time"":15881.100000000515},{""page_index"":4,""viewing_time"":16224.199999998746},{""page_index"":5,""viewing_time"":15696.500000000015},{""page_index"":6,""viewing_time"":4081.7000000006374},{""page_index"":7,""viewing_time"":8622.900000000314},{""page_index"":8,""viewing_time"":3143.7999999998137}]","94532.60000000047","instructions","1","134403","0.0-1.0","SS1604588531250","","","","","","","","","","","","","","","","",""
"[{""page_index"":0,""viewing_time"":2381.199999999779},{""page_index"":1,""viewing_time"":12232.600000001199},{""page_index"":2,""viewing_time"":3633.0999999991036}]","18247.400000000198","instructions","2","152653","0.0-2.0","SS1604588531250","","","","","","","","","","","","","","","","",""
"","2072.500000000233","practice-block","3","154932","0.0-3.0","SS1604588531250","<img src='images/practice/practice_background.jpeg' width ='500' height = '500' style='border:5px solid black'>","40","null","images/practice/practice_target.jpg","null","null","null","null","","200","2272.500000000233","","","","","",""
"","null","html-keyboard-response","4","156095","0.0-4.0","SS1604588531250","","null","","","","","","","","","","","","<img src=images/blank.png width =""500"" height = ""500"" style=""border:5px solid black"">","","",""
"","382.20000000001164","practice-block","5","156683","0.0-5.0","SS1604588531250","<img src='images/practice/practice_background.jpeg' width ='500' height = '500' style='border:5px solid black'>","40","null","images/practice/practice_target.jpg","null","null","null","null","","200","582.2000000000116","","","","","",""
"","null","html-keyboard-response","6","157646","0.0-6.0","SS1604588531250","","null","","","","","","","","","","","","<img src=images/blank.png width =""500"" height = ""500"" style=""border:5px solid black"">","","",""
"","277.10000000117","practice-block","7","158127","0.0-7.0","SS1604588531250","<img src='images/practice/practice_deviant.jpeg' width ='500' height = '500' style='border:5px solid black'>","40","null","images/practice/practice_target.jpg","null","null","null","null","","200","477.10000000117","","","","","",""
"","null","html-keyboard-response","8","158936","0.0-8.0","SS1604588531250","","null","","","","","","","","","","","","<img src=images/blank.png width =""500"" height = ""500"" style=""border:5px solid black"">","","",""
"","4794.2000000002445","practice-block","9","163935","0.0-9.0-0.0","SS1604588531250","<img src='images/practice/practice_target.jpg' width ='500' height = '500' style='border:5px solid black'>","40","null","images/practice/practice_target.jpg","null","null","null","null","","200","4994.2000000002445","yes","299.30000000057044","","","",""
"","null","html-keyboard-response","10","164996","0.0-10.0","SS1604588531250","","null","","","","","","","","","","","","<img src=images/blank.png width =""500"" height = ""500"" style=""border:5px solid black"">","","",""
"","346.7999999993481","practice-block","11","165547","0.0-11.0","SS1604588531250","<img src='images/practice/practice_background.jpeg' width ='500' height = '500' style='border:5px solid black'>","40","null","images/practice/practice_target.jpg","null","null","null","null","","200","546.7999999993481","","","","","",""
"[{""page_index"":0,""viewing_time"":2917}]","2918","task-instructions","12","168470","0.0-12.0","SS1604588531250","","","","","","","","","","","","","","","","",""
"[{""page_index"":0,""viewing_time"":3650.700000000157},{""page_index"":1,""viewing_time"":4783.199999999837},{""page_index"":2,""viewing_time"":1193.900000000198}]","9628.600000000006","instructions","13","178102","0.0-13.0","SS1604588531250","","","","","","","","","","","","","","","","",""
"","null","html-keyboard-response","14","179094","0.0-14.0-0.0","SS1604588531250","","null","","","","","","","","","","","","<img src=images/blank.png width =""500"" height = ""500"" style=""border:5px solid black"">","","",""
"","737.6999999996624","stimulus-presentation","15","180046","0.0-14.0-1.0","SS1604588531250","<img src='images/simple/15.png' width ='500' height = '500' style='border:5px solid black'>","40","mixed_complex_deviant","images/simple/10.png","images/simple/15.png","images/complex/3.png,images/complex/5.png,images/complex/6.png,images/complex/12.png,images/complex/9.png,images/complex/17.png,images/complex/1.png","0","null","","200","937.6999999996624","","","","background","",""
"","null","html-keyboard-response","16","180968","0.0-14.0-0.1","SS1604588531250","","null","","","","","","","","","","","","<img src=images/blank.png width =""500"" height = ""500"" style=""border:5px solid black"">","","",""
"","362.30000000068685","stimulus-presentation","17","181537","0.0-14.0-1.1","SS1604588531250","<img src='images/simple/15.png' width ='500' height = '500' style='border:5px solid black'>","40","mixed_complex_deviant","images/simple/10.png","images/simple/15.png","images/complex/3.png,images/complex/5.png,images/complex/6.png,images/complex/12.png,images/complex/9.png,images/complex/17.png,images/complex/1.png","0","null","","200","562.3000000006869","","","","background","",""
"","null","html-keyboard-response","18","182733","0.0-14.0-0.2","SS1604588531250","","null","","","","","","","","","","","","<img src=images/blank.png width =""500"" height = ""500"" style=""border:5px solid black"">","","",""
"","123.99999999982538","stimulus-presentation","19","183065","0.0-14.0-1.2","SS1604588531250","<img src='images/simple/15.png' width ='500' height = '500' style='border:5px solid black'>","40","mixed_complex_deviant","images/simple/10.png","images/simple/15.png","images/complex/3.png,images/complex/5.png,images/complex/6.png,images/complex/12.png,images/complex/9.png,images/complex/17.png,images/complex/1.png","0","null","","200","323.9999999998254","","","","background","",""
"","null","html-keyboard-response","20","184003","0.0-14.0-0.3","SS1604588531250","","null","","","","","","","","","","","","<img src=images/blank.png width =""500"" height = ""500"" style=""border:5px solid black"">","","",""
"","4795.799999999872","stimulus-presentation","21","189008","0.0-14.0-1.3","SS1604588531250","<img src='images/simple/10.png' width ='500' height = '500' style='border:5px solid black'>","40","mixed_complex_deviant","images/simple/10.png","images/simple/15.png","images/complex/3.png,images/complex/5.png,images/complex/6.png,images/complex/12.png,images/complex/9.png,images/complex/17.png,images/complex/1.png","0","null","","200","4995.799999999872","yes","2067.399999999907","","target","",""
"","null","html-keyboard-response","22","189864","0.0-14.0-0.4","SS1604588531250","","null","","","","","","","","","","","","<img src=images/blank.png width =""500"" height = ""500"" style=""border:5px solid black"">","","",""
"","1094.199999999546","stimulus-presentation","23","191165","0.0-14.0-1.4","SS1604588531250","<img src='images/simple/10.png' width ='500' height = '500' style='border:5px solid black'>","40","mixed_complex_deviant","images/simple/10.png","images/simple/15.png","images/complex/3.png,images/complex/5.png,images/complex/6.png,images/complex/12.png,images/complex/9.png,images/complex/17.png,images/complex/1.png","0","null","","200","1294.199999999546","yes","434.6999999997788","","target","",""
"","null","html-keyboard-response","24","192346","0.0-14.0-0.5","SS1604588531250","","null","","","","","","","","","","","","<img src=images/blank.png width =""500"" height = ""500"" style=""border:5px solid black"">","","",""
"","643.2999999996973","stimulus-presentation","25","193195","0.0-14.0-1.5","SS1604588531250","<img src='images/simple/15.png' width ='500' height = '500' style='border:5px solid black'>","40","mixed_complex_deviant","images/simple/10.png","images/simple/15.png","images/complex/3.png,images/complex/5.png,images/complex/6.png,images/complex/12.png,images/complex/9.png,images/complex/17.png,images/complex/1.png","0","null","","200","843.2999999996973","","","","background","",""
"","null","html-keyboard-response","26","194247","0.0-14.0-0.6","SS1604588531250","","null","","","","","","","","","","","","<img src=images/blank.png width =""500"" height = ""500"" style=""border:5px solid black"">","","",""
"","215.59999999951106","stimulus-presentation","27","194669","0.0-14.0-1.6","SS1604588531250","<img src='images/simple/15.png' width ='500' height = '500' style='border:5px solid black'>","40","mixed_complex_deviant","images/simple/10.png","images/simple/15.png","images/complex/3.png,images/complex/5.png,images/complex/6.png,images/complex/12.png,images/complex/9.png,images/complex/17.png,images/complex/1.png","0","null","","200","415.59999999951106","","","","background","",""
"","null","html-keyboard-response","28","195791","0.0-14.0-0.7","SS1604588531250","","null","","","","","","","","","","","","<img src=images/blank.png width =""500"" height = ""500"" style=""border:5px solid black"">","","",""
"","434.1999999997206","stimulus-presentation","29","196431","0.0-14.0-1.7","SS1604588531250","<img src='images/complex/1.png' width ='500' height = '500' style='border:5px solid black'>","40","mixed_complex_deviant","images/simple/10.png","images/simple/15.png","images/complex/3.png,images/complex/5.png,images/complex/6.png,images/complex/12.png,images/complex/9.png,images/complex/17.png,images/complex/1.png","0","null","","200","634.1999999997206","","","","deviant","",""
"","null","html-keyboard-response","30","197320","0.0-14.0-0.8","SS1604588531250","","null","","","","","","","","","","","","<img src=images/blank.png width =""500"" height = ""500"" style=""border:5px solid black"">","","",""
"","264.9999999994179","stimulus-presentation","31","197791","0.0-14.0-1.8","SS1604588531250","<img src='images/simple/15.png' width ='500' height = '500' style='border:5px solid black'>","40","mixed_complex_deviant","images/simple/10.png","images/simple/15.png","images/complex/3.png,images/complex/5.png,images/complex/6.png,images/complex/12.png,images/complex/9.png,images/complex/17.png,images/complex/1.png","0","null","","200","464.9999999994179","","","","background","",""
"","null","html-keyboard-response","32","198871","0.0-14.0-0.9","SS1604588531250","","null","","","","","","","","","","","","<img src=images/blank.png width =""500"" height = ""500"" style=""border:5px solid black"">","","",""
"","266.0000000014552","stimulus-presentation","33","199345","0.0-14.0-1.9","SS1604588531250","<img src='images/simple/15.png' width ='500' height = '500' style='border:5px solid black'>","40","mixed_complex_deviant","images/simple/10.png","images/simple/15.png","images/complex/3.png,images/complex/5.png,images/complex/6.png,images/complex/12.png,images/complex/9.png,images/complex/17.png,images/complex/1.png","0","null","","200","466.0000000014552","","","","background","",""
"","null","html-keyboard-response","34","200500","0.0-14.0-0.10","SS1604588531250","","null","","","","","","","","","","","","<img src=images/blank.png width =""500"" height = ""500"" style=""border:5px solid black"">","","",""
"","2881.099999998696","stimulus-presentation","35","203588","0.0-14.0-1.10","SS1604588531250","<img src='images/simple/10.png' width ='500' height = '500' style='border:5px solid black'>","40","mixed_complex_deviant","images/simple/10.png","images/simple/15.png","images/complex/3.png,images/complex/5.png,images/complex/6.png,images/complex/12.png,images/complex/9.png,images/complex/17.png,images/complex/1.png","0","null","","200","3081.099999998696","yes","374.79999999961","","target","",""
"","null","html-keyboard-response","36","204872","0.0-14.0-0.11","SS1604588531250","","null","","","","","","","","","","","","<img src=images/blank.png width =""500"" height = ""500"" style=""border:5px solid black"">","","",""
"","910.7000000003609","stimulus-presentation","37","205988","0.0-14.0-1.11","SS1604588531250","<img src='images/simple/15.png' width ='500' height = '500' style='border:5px solid black'>","40","mixed_complex_deviant","images/simple/10.png","images/simple/15.png","images/complex/3.png,images/complex/5.png,images/complex/6.png,images/complex/12.png,images/complex/9.png,images/complex/17.png,images/complex/1.png","0","null","","200","1110.700000000361","","","","background","",""
"","null","html-keyboard-response","38","207255","0.0-14.0-0.12","SS1604588531250","","null","","","","","","","","","","","","<img src=images/blank.png width =""500"" height = ""500"" style=""border:5px solid black"">","","",""
"","165.69999999957508","stimulus-presentation","39","207626","0.0-14.0-1.12","SS1604588531250","<img src='images/simple/15.png' width ='500' height = '500' style='border:5px solid black'>","40","mixed_complex_deviant","images/simple/10.png","images/simple/15.png","images/complex/3.png,images/complex/5.png,images/complex/6.png,images/complex/12.png,images/complex/9.png,images/complex/17.png,images/complex/1.png","0","null","","200","365.6999999995751","","","","background","",""
"","null","html-keyboard-response","40","208593","0.0-14.0-0.13","SS1604588531250","","null","","","","","","","","","","","","<img src=images/blank.png width =""500"" height = ""500"" style=""border:5px solid black"">","","",""
"","519.4000000010419","stimulus-presentation","41","209319","0.0-14.0-1.13","SS1604588531250","<img src='images/complex/17.png' width ='500' height = '500' style='border:5px solid black'>","40","mixed_complex_deviant","images/simple/10.png","images/simple/15.png","images/complex/3.png,images/complex/5.png,images/complex/6.png,images/complex/12.png,images/complex/9.png,images/complex/17.png,images/complex/1.png","0","null","","200","719.4000000010419","","","","deviant","",""
"","null","html-keyboard-response","42","210258","0.0-14.0-0.14","SS1604588531250","","null","","","","","","","","","","","","<img src=images/blank.png width =""500"" height = ""500"" style=""border:5px solid black"">","","",""
"","317.8999999999942","stimulus-presentation","43","210781","0.0-14.0-1.14","SS1604588531250","<img src='images/simple/15.png' width ='500' height = '500' style='border:5px solid black'>","40","mixed_complex_deviant","images/simple/10.png","images/simple/15.png","images/complex/3.png,images/complex/5.png,images/complex/6.png,images/complex/12.png,images/complex/9.png,images/complex/17.png,images/complex/1.png","0","null","","200","517.8999999999942","","","","background","",""
"","null","html-keyboard-response","44","211912","0.0-14.0-0.15","SS1604588531250","","null","","","","","","","","","","","","<img src=images/blank.png width =""500"" height = ""500"" style=""border:5px solid black"">","","",""
"","125.50000000008731","stimulus-presentation","45","212243","0.0-14.0-1.15","SS1604588531250","<img src='images/simple/10.png' width ='500' height = '500' style='border:5px solid black'>","40","mixed_complex_deviant","images/simple/10.png","images/simple/15.png","images/complex/3.png,images/complex/5.png,images/complex/6.png,images/complex/12.png,images/complex/9.png,images/complex/17.png,images/complex/1.png","0","null","","200","325.5000000000873","","","","target","",""
"","null","html-keyboard-response","46","213087","0.0-14.0-0.16","SS1604588531250","","null","","","","","","","","","","","","<img src=images/blank.png width =""500"" height = ""500"" style=""border:5px solid black"">","","",""
"","526.0999999991327","stimulus-presentation","47","213818","0.0-14.0-1.16","SS1604588531250","<img src='images/simple/15.png' width ='500' height = '500' style='border:5px solid black'>","40","mixed_complex_deviant","images/simple/10.png","images/simple/15.png","images/complex/3.png,images/complex/5.png,images/complex/6.png,images/complex/12.png,images/complex/9.png,images/complex/17.png,images/complex/1.png","0","null","","200","726.0999999991327","","","","background","",""
"","null","html-keyboard-response","48","214785","0.0-14.0-0.17","SS1604588531250","","null","","","","","","","","","","","","<img src=images/blank.png width =""500"" height = ""500"" style=""border:5px solid black"">","","",""
"","591.0999999996275","stimulus-presentation","49","215581","0.0-14.0-1.17","SS1604588531250","<img src='images/complex/5.png' width ='500' height = '500' style='border:5px solid black'>","40","mixed_complex_deviant","images/simple/10.png","images/simple/15.png","images/complex/3.png,images/complex/5.png,images/complex/6.png,images/complex/12.png,images/complex/9.png,images/complex/17.png,images/complex/1.png","0","null","","200","791.0999999996275","","","","deviant","",""
"","null","html-keyboard-response","50","216804","0.0-14.0-0.18","SS1604588531250","","null","","","","","","","","","","","","<img src=images/blank.png width =""500"" height = ""500"" style=""border:5px solid black"">","","",""
"","830.2999999996391","stimulus-presentation","51","217841","0.0-14.0-1.18","SS1604588531250","<img src='images/simple/10.png' width ='500' height = '500' style='border:5px solid black'>","40","mixed_complex_deviant","images/simple/10.png","images/simple/15.png","images/complex/3.png,images/complex/5.png,images/complex/6.png,images/complex/12.png,images/complex/9.png,images/complex/17.png,images/complex/1.png","0","null","","200","1030.299999999639","yes","110.0999999998603","","target","",""
"","null","html-keyboard-response","52","218692","0.0-14.0-0.19","SS1604588531250","","null","","","","","","","","","","","","<img src=images/blank.png width =""500"" height = ""500"" style=""border:5px solid black"">","","",""
"","1780.0999999999476","stimulus-presentation","53","220683","0.0-14.0-1.19","SS1604588531250","<img src='images/simple/15.png' width ='500' height = '500' style='border:5px solid black'>","40","mixed_complex_deviant","images/simple/10.png","images/simple/15.png","images/complex/3.png,images/complex/5.png,images/complex/6.png,images/complex/12.png,images/complex/9.png,images/complex/17.png,images/complex/1.png","0","null","","200","1980.0999999999476","","","","background","",""
"","null","html-keyboard-response","54","221925","0.0-14.0-0.20","SS1604588531250","","null","","","","","","","","","","","","<img src=images/blank.png width =""500"" height = ""500"" style=""border:5px solid black"">","","",""
"","180.20000000071013","stimulus-presentation","55","222314","0.0-14.0-1.20","SS1604588531250","<img src='images/complex/3.png' width ='500' height = '500' style='border:5px solid black'>","40","mixed_complex_deviant","images/simple/10.png","images/simple/15.png","images/complex/3.png,images/complex/5.png,images/complex/6.png,images/complex/12.png,images/complex/9.png,images/complex/17.png,images/complex/1.png","0","null","","200","380.20000000071013","","","","deviant","",""
"","null","html-keyboard-response","56","223253","0.0-14.0-0.21","SS1604588531250","","null","","","","","","","","","","","","<img src=images/blank.png width =""500"" height = ""500"" style=""border:5px solid black"">","","",""
"","86.30000000083237","stimulus-presentation","57","223545","0.0-14.0-1.21","SS1604588531250","<img src='images/simple/15.png' width ='500' height = '500' style='border:5px solid black'>","40","mixed_complex_deviant","images/simple/10.png","images/simple/15.png","images/complex/3.png,images/complex/5.png,images/complex/6.png,images/complex/12.png,images/complex/9.png,images/complex/17.png,images/complex/1.png","0","null","","200","286.30000000083237","","","","background","",""
"","null","html-keyboard-response","58","224373","0.0-14.0-0.22","SS1604588531250","","null","","","","","","","","","","","","<img src=images/blank.png width =""500"" height = ""500"" style=""border:5px solid black"">","","",""
"","121.30000000071595","stimulus-presentation","59","224701","0.0-14.0-1.22","SS1604588531250","<img src='images/simple/15.png' width ='500' height = '500' style='border:5px solid black'>","40","mixed_complex_deviant","images/simple/10.png","images/simple/15.png","images/complex/3.png,images/complex/5.png,images/complex/6.png,images/complex/12.png,images/complex/9.png,images/complex/17.png,images/complex/1.png","0","null","","200","321.30000000071595","","","","background","",""
"","null","html-keyboard-response","60","225956","0.0-14.0-0.23","SS1604588531250","","null","","","","","","","","","","","","<img src=images/blank.png width =""500"" height = ""500"" style=""border:5px solid black"">","","",""
"","134.09999999930733","stimulus-presentation","61","226299","0.0-14.0-1.23","SS1604588531250","<img src='images/simple/15.png' width ='500' height = '500' style='border:5px solid black'>","40","mixed_complex_deviant","images/simple/10.png","images/simple/15.png","images/complex/3.png,images/complex/5.png,images/complex/6.png,images/complex/12.png,images/complex/9.png,images/complex/17.png,images/complex/1.png","0","null","","200","334.09999999930733","","","","background","",""
"","null","html-keyboard-response","62","227478","0.0-14.0-0.24","SS1604588531250","","null","","","","","","","","","","","","<img src=images/blank.png width =""500"" height = ""500"" style=""border:5px solid black"">","","",""
"","165.69999999954598","stimulus-presentation","63","227853","0.0-14.0-1.24","SS1604588531250","<img src='images/simple/15.png' width ='500' height = '500' style='border:5px solid black'>","40","mixed_complex_deviant","images/simple/10.png","images/simple/15.png","images/complex/3.png,images/complex/5.png,images/complex/6.png,images/complex/12.png,images/complex/9.png,images/complex/17.png,images/complex/1.png","0","null","","200","365.699999999546","","","","background","",""
"","null","html-keyboard-response","64","229153","0.0-14.0-0.25","SS1604588531250","","null","","","","","","","","","","","","<img src=images/blank.png width =""500"" height = ""500"" style=""border:5px solid black"">","","",""
"","538.4999999987194","stimulus-presentation","65","229901","0.0-14.0-1.25","SS1604588531250","<img src='images/complex/12.png' width ='500' height = '500' style='border:5px solid black'>","40","mixed_complex_deviant","images/simple/10.png","images/simple/15.png","images/complex/3.png,images/complex/5.png,images/complex/6.png,images/complex/12.png,images/complex/9.png,images/complex/17.png,images/complex/1.png","0","null","","200","738.4999999987194","","","","deviant","",""
"","null","html-keyboard-response","66","230940","0.0-14.0-0.26","SS1604588531250","","null","","","","","","","","","","","","<img src=images/blank.png width =""500"" height = ""500"" style=""border:5px solid black"">","","",""
"","1323.8000000001339","stimulus-presentation","67","232471","0.0-14.0-1.26","SS1604588531250","<img src='images/simple/10.png' width ='500' height = '500' style='border:5px solid black'>","40","mixed_complex_deviant","images/simple/10.png","images/simple/15.png","images/complex/3.png,images/complex/5.png,images/complex/6.png,images/complex/12.png,images/complex/9.png,images/complex/17.png,images/complex/1.png","0","null","","200","1523.8000000001339","yes","402.2999999997555","","target","",""
"","null","html-keyboard-response","68","233635","0.0-14.0-0.27","SS1604588531250","","null","","","","","","","","","","","","<img src=images/blank.png width =""500"" height = ""500"" style=""border:5px solid black"">","","",""
"","1145.900000001333","stimulus-presentation","69","234995","0.0-14.0-1.27","SS1604588531250","<img src='images/simple/15.png' width ='500' height = '500' style='border:5px solid black'>","40","mixed_complex_deviant","images/simple/10.png","images/simple/15.png","images/complex/3.png,images/complex/5.png,images/complex/6.png,images/complex/12.png,images/complex/9.png,images/complex/17.png,images/complex/1.png","0","null","","200","1345.900000001333","","","","background","",""
"","null","html-keyboard-response","70","236258","0.0-14.0-0.28","SS1604588531250","","null","","","","","","","","","","","","<img src=images/blank.png width =""500"" height = ""500"" style=""border:5px solid black"">","","",""
"","66.80000000051223","stimulus-presentation","71","236532","0.0-14.0-1.28","SS1604588531250","<img src='images/simple/15.png' width ='500' height = '500' style='border:5px solid black'>","40","mixed_complex_deviant","images/simple/10.png","images/simple/15.png","images/complex/3.png,images/complex/5.png,images/complex/6.png,images/complex/12.png,images/complex/9.png,images/complex/17.png,images/complex/1.png","0","null","","200","266.8000000005122","","","","background","",""
"","null","html-keyboard-response","72","237537","0.0-14.0-0.29","SS1604588531250","","null","","","","","","","","","","","","<img src=images/blank.png width =""500"" height = ""500"" style=""border:5px solid black"">","","",""
"","393.2000000004482","stimulus-presentation","73","238137","0.0-14.0-1.29","SS1604588531250","<img src='images/complex/9.png' width ='500' height = '500' style='border:5px solid black'>","40","mixed_complex_deviant","images/simple/10.png","images/simple/15.png","images/complex/3.png,images/complex/5.png,images/complex/6.png,images/complex/12.png,images/complex/9.png,images/complex/17.png,images/complex/1.png","0","null","","200","593.2000000004482","","","","deviant","",""
"","null","html-keyboard-response","74","239280","0.0-14.0-0.30","SS1604588531250","","null","","","","","","","","","","","","<img src=images/blank.png width =""500"" height = ""500"" style=""border:5px solid black"">","","",""
"","143.50000000014552","stimulus-presentation","75","239631","0.0-14.0-1.30","SS1604588531250","<img src='images/simple/15.png' width ='500' height = '500' style='border:5px solid black'>","40","mixed_complex_deviant","images/simple/10.png","images/simple/15.png","images/complex/3.png,images/complex/5.png,images/complex/6.png,images/complex/12.png,images/complex/9.png,images/complex/17.png,images/complex/1.png","0","null","","200","343.5000000001455","","","","background","",""
"","null","html-keyboard-response","76","240731","0.0-14.0-0.31","SS1604588531250","","null","","","","","","","","","","","","<img src=images/blank.png width =""500"" height = ""500"" style=""border:5px solid black"">","","",""
"","97.5999999991327","stimulus-presentation","77","241037","0.0-14.0-1.31","SS1604588531250","<img src='images/simple/15.png' width ='500' height = '500' style='border:5px solid black'>","40","mixed_complex_deviant","images/simple/10.png","images/simple/15.png","images/complex/3.png,images/complex/5.png,images/complex/6.png,images/complex/12.png,images/complex/9.png,images/complex/17.png,images/complex/1.png","0","null","","200","297.5999999991327","","","","background","",""
"","null","html-keyboard-response","78","242344","0.0-14.0-0.32","SS1604588531250","","null","","","","","","","","","","","","<img src=images/blank.png width =""500"" height = ""500"" style=""border:5px solid black"">","","",""
"","55.39999999929569","stimulus-presentation","79","242606","0.0-14.0-1.32","SS1604588531250","<img src='images/simple/15.png' width ='500' height = '500' style='border:5px solid black'>","40","mixed_complex_deviant","images/simple/10.png","images/simple/15.png","images/complex/3.png,images/complex/5.png,images/complex/6.png,images/complex/12.png,images/complex/9.png,images/complex/17.png,images/complex/1.png","0","null","","200","255.3999999992957","","","","background","",""
"","null","html-keyboard-response","80","243906","0.0-14.0-0.33","SS1604588531250","","null","","","","","","","","","","","","<img src=images/blank.png width =""500"" height = ""500"" style=""border:5px solid black"">","","",""
"","134.60000000119908","stimulus-presentation","81","244250","0.0-14.0-1.33","SS1604588531250","<img src='images/simple/15.png' width ='500' height = '500' style='border:5px solid black'>","40","mixed_complex_deviant","images/simple/10.png","images/simple/15.png","images/complex/3.png,images/complex/5.png,images/complex/6.png,images/complex/12.png,images/complex/9.png,images/complex/17.png,images/complex/1.png","0","null","","200","334.6000000011991","","","","background","",""
"","null","html-keyboard-response","82","245381","0.0-14.0-0.34","SS1604588531250","","null","","","","","","","","","","","","<img src=images/blank.png width =""500"" height = ""500"" style=""border:5px solid black"">","","",""
"","108.00000000017462","stimulus-presentation","83","245697","0.0-14.0-1.34","SS1604588531250","<img src='images/simple/15.png' width ='500' height = '500' style='border:5px solid black'>","40","mixed_complex_deviant","images/simple/10.png","images/simple/15.png","images/complex/3.png,images/complex/5.png,images/complex/6.png,images/complex/12.png,images/complex/9.png,images/complex/17.png,images/complex/1.png","0","null","","200","308.0000000001746","","","","background","",""
"","null","html-keyboard-response","84","246871","0.0-14.0-0.35","SS1604588531250","","null","","","","","","","","","","","","<img src=images/blank.png width =""500"" height = ""500"" style=""border:5px solid black"">","","",""
"","360.3999999995576","stimulus-presentation","85","247441","0.0-14.0-1.35","SS1604588531250","<img src='images/complex/6.png' width ='500' height = '500' style='border:5px solid black'>","40","mixed_complex_deviant","images/simple/10.png","images/simple/15.png","images/complex/3.png,images/complex/5.png,images/complex/6.png,images/complex/12.png,images/complex/9.png,images/complex/17.png,images/complex/1.png","0","null","","200","560.3999999995576","","","","deviant","",""
"","null","html-keyboard-response","86","248712","0.0-14.0-0.36","SS1604588531250","","null","","","","","","","","","","","","<img src=images/blank.png width =""500"" height = ""500"" style=""border:5px solid black"">","","",""
"","231.70000000027358","stimulus-presentation","87","249153","0.0-14.0-1.36","SS1604588531250","<img src='images/simple/15.png' width ='500' height = '500' style='border:5px solid black'>","40","mixed_complex_deviant","images/simple/10.png","images/simple/15.png","images/complex/3.png,images/complex/5.png,images/complex/6.png,images/complex/12.png,images/complex/9.png,images/complex/17.png,images/complex/1.png","0","null","","200","431.7000000002736","","","","background","",""
"","null","html-keyboard-response","88","250200","0.0-14.0-0.37","SS1604588531250","","null","","","","","","","","","","","","<img src=images/blank.png width =""500"" height = ""500"" style=""border:5px solid black"">","","",""
"","272.10000000012224","stimulus-presentation","89","250681","0.0-14.0-1.37","SS1604588531250","<img src='images/simple/15.png' width ='500' height = '500' style='border:5px solid black'>","40","mixed_complex_deviant","images/simple/10.png","images/simple/15.png","images/complex/3.png,images/complex/5.png,images/complex/6.png,images/complex/12.png,images/complex/9.png,images/complex/17.png,images/complex/1.png","0","null","","200","472.10000000012224","","","","background","",""
"","null","html-keyboard-response","90","251723","0.0-14.0-0.38","SS1604588531250","","null","","","","","","","","","","","","<img src=images/blank.png width =""500"" height = ""500"" style=""border:5px solid black"">","","",""
"","100.80000000016298","stimulus-presentation","91","252037","0.0-14.0-1.38","SS1604588531250","<img src='images/simple/15.png' width ='500' height = '500' style='border:5px solid black'>","40","mixed_complex_deviant","images/simple/10.png","images/simple/15.png","images/complex/3.png,images/complex/5.png,images/complex/6.png,images/complex/12.png,images/complex/9.png,images/complex/17.png,images/complex/1.png","0","null","","200","300.800000000163","","","","background","",""
"","null","html-keyboard-response","92","253231","0.0-14.0-0.39","SS1604588531250","","null","","","","","","","","","","","","<img src=images/blank.png width =""500"" height = ""500"" style=""border:5px solid black"">","","",""
"","113.99999999959255","stimulus-presentation","93","253566","0.0-14.0-1.39","SS1604588531250","<img src='images/simple/15.png' width ='500' height = '500' style='border:5px solid black'>","40","mixed_complex_deviant","images/simple/10.png","images/simple/15.png","images/complex/3.png,images/complex/5.png,images/complex/6.png,images/complex/12.png,images/complex/9.png,images/complex/17.png,images/complex/1.png","0","null","","200","313.99999999959255","","","","background","",""
"","null","html-keyboard-response","94","254378","0.0-14.0-0.40","SS1604588531250","","null","","","","","","","","","","","","<img src=images/blank.png width =""500"" height = ""500"" style=""border:5px solid black"">","","",""
"","125.70000000053551","stimulus-presentation","95","254712","0.0-14.0-1.40","SS1604588531250","<img src='images/simple/15.png' width ='500' height = '500' style='border:5px solid black'>","40","mixed_complex_deviant","images/simple/10.png","images/simple/15.png","images/complex/3.png,images/complex/5.png,images/complex/6.png,images/complex/12.png,images/complex/9.png,images/complex/17.png,images/complex/1.png","0","null","","200","325.7000000005355","","","","background","",""
"","null","html-keyboard-response","96","255826","0.0-14.0-0.41","SS1604588531250","","null","","","","","","","","","","","","<img src=images/blank.png width =""500"" height = ""500"" style=""border:5px solid black"">","","",""
"","108.40000000101281","stimulus-presentation","97","256143","0.0-14.0-1.41","SS1604588531250","<img src='images/simple/15.png' width ='500' height = '500' style='border:5px solid black'>","40","mixed_complex_deviant","images/simple/10.png","images/simple/15.png","images/complex/3.png,images/complex/5.png,images/complex/6.png,images/complex/12.png,images/complex/9.png,images/complex/17.png,images/complex/1.png","0","null","","200","308.4000000010128","","","","background","",""
"","null","html-keyboard-response","98","257419","0.0-14.0-0.42","SS1604588531250","","null","","","","","","","","","","","","<img src=images/blank.png width =""500"" height = ""500"" style=""border:5px solid black"">","","",""
"","365.7999999995809","stimulus-presentation","99","257992","0.0-14.0-1.42","SS1604588531250","<img src='images/simple/15.png' width ='500' height = '500' style='border:5px solid black'>","40","mixed_complex_deviant","images/simple/10.png","images/simple/15.png","images/complex/3.png,images/complex/5.png,images/complex/6.png,images/complex/12.png,images/complex/9.png,images/complex/17.png,images/complex/1.png","0","null","","200","565.7999999995809","","","","background","",""
"","null","html-keyboard-response","100","258881","0.0-14.0-0.43","SS1604588531250","","null","","","","","","","","","","","","<img src=images/blank.png width =""500"" height = ""500"" style=""border:5px solid black"">","","",""
"","1781.7999999988242","stimulus-presentation","101","260871","0.0-14.0-1.43","SS1604588531250","<img src='images/simple/10.png' width ='500' height = '500' style='border:5px solid black'>","40","mixed_complex_deviant","images/simple/10.png","images/simple/15.png","images/complex/3.png,images/complex/5.png,images/complex/6.png,images/complex/12.png,images/complex/9.png,images/complex/17.png,images/complex/1.png","0","null","","200","1981.7999999988242","yes","373.49999999970896","","target","",""
"","null","html-keyboard-response","102","262009","0.0-14.0-0.44","SS1604588531250","","null","","","","","","","","","","","","<img src=images/blank.png width =""500"" height = ""500"" style=""border:5px solid black"">","","",""
"","260.2000000005937","stimulus-presentation","103","262484","0.0-14.0-1.44","SS1604588531250","<img src='images/simple/15.png' width ='500' height = '500' style='border:5px solid black'>","40","mixed_complex_deviant","images/simple/10.png","images/simple/15.png","images/complex/3.png,images/complex/5.png,images/complex/6.png,images/complex/12.png,images/complex/9.png,images/complex/17.png,images/complex/1.png","0","null","","200","460.2000000005937","","","","background","",""
"","null","html-keyboard-response","104","263659","0.0-14.0-0.45","SS1604588531250","","null","","","","","","","","","","","","<img src=images/blank.png width =""500"" height = ""500"" style=""border:5px solid black"">","","",""
"","54.29999999975553","stimulus-presentation","105","263926","0.0-14.0-1.45","SS1604588531250","<img src='images/simple/15.png' width ='500' height = '500' style='border:5px solid black'>","40","mixed_complex_deviant","images/simple/10.png","images/simple/15.png","images/complex/3.png,images/complex/5.png,images/complex/6.png,images/complex/12.png,images/complex/9.png,images/complex/17.png,images/complex/1.png","0","null","","200","254.29999999975553","","","","background","",""
"","null","html-keyboard-response","106","265144","0.0-14.0-0.46","SS1604588531250","","null","","","","","","","","","","","","<img src=images/blank.png width =""500"" height = ""500"" style=""border:5px solid black"">","","",""
"","133.10000000090804","stimulus-presentation","107","265486","0.0-14.0-1.46","SS1604588531250","<img src='images/simple/15.png' width ='500' height = '500' style='border:5px solid black'>","40","mixed_complex_deviant","images/simple/10.png","images/simple/15.png","images/complex/3.png,images/complex/5.png,images/complex/6.png,images/complex/12.png,images/complex/9.png,images/complex/17.png,images/complex/1.png","0","null","","200","333.10000000090804","","","","background","",""
"","null","html-keyboard-response","108","266782","0.0-14.0-0.47","SS1604588531250","","null","","","","","","","","","","","","<img src=images/blank.png width =""500"" height = ""500"" style=""border:5px solid black"">","","",""
"","71.19999999849824","stimulus-presentation","109","267061","0.0-14.0-1.47","SS1604588531250","<img src='images/simple/15.png' width ='500' height = '500' style='border:5px solid black'>","40","mixed_complex_deviant","images/simple/10.png","images/simple/15.png","images/complex/3.png,images/complex/5.png,images/complex/6.png,images/complex/12.png,images/complex/9.png,images/complex/17.png,images/complex/1.png","0","null","","200","271.19999999849824","","","","background","",""
"","null","html-keyboard-response","110","268079","0.0-14.0-0.48","SS1604588531250","","null","","","","","","","","","","","","<img src=images/blank.png width =""500"" height = ""500"" style=""border:5px solid black"">","","",""
"","333.9000000014785","stimulus-presentation","111","268622","0.0-14.0-1.48","SS1604588531250","<img src='images/simple/15.png' width ='500' height = '500' style='border:5px solid black'>","40","mixed_complex_deviant","images/simple/10.png","images/simple/15.png","images/complex/3.png,images/complex/5.png,images/complex/6.png,images/complex/12.png,images/complex/9.png,images/complex/17.png,images/complex/1.png","0","null","","200","533.9000000014785","","","","background","",""
"[{""page_index"":0,""viewing_time"":8024}]","8026","task-instructions","112","276657","0.0-15.0","SS1604588531250","","","","","","","","","","","","","","","","",""
"[{""page_index"":0,""viewing_time"":9248.199999999953},{""page_index"":1,""viewing_time"":6888.60000000021},{""page_index"":2,""viewing_time"":3583.0999999998603}]","19720.100000000442","instructions","113","296384","0.0-16.0","SS1604588531250","","","","","","","","","","","","","","","","",""
"","null","html-keyboard-response","114","297400","0.0-17.0-0.0","SS1604588531250","","null","","","","","","","","","","","","<img src=images/blank.png width =""500"" height = ""500"" style=""border:5px solid black"">","","",""
"","2586.6000000005006","stimulus-presentation","115","300204","0.0-17.0-1.0","SS1604588531250","<img src='images/complex/2.png' width ='500' height = '500' style='border:5px solid black'>","40","mixed_simple_deviant","images/complex/2.png","images/complex/8.png","images/simple/17.png,images/simple/7.png,images/simple/13.png,images/simple/3.png,images/simple/1.png,images/simple/2.png,images/simple/11.png","1","null","","200","2786.6000000005006","yes","422.99999999883585","","target","",""
"","null","html-keyboard-response","116","301271","0.0-17.0-0.1","SS1604588531250","","null","","","","","","","","","","","","<img src=images/blank.png width =""500"" height = ""500"" style=""border:5px solid black"">","","",""
"","2337.999999999709","stimulus-presentation","117","303819","0.0-17.0-1.1","SS1604588531250","<img src='images/complex/2.png' width ='500' height = '500' style='border:5px solid black'>","40","mixed_simple_deviant","images/complex/2.png","images/complex/8.png","images/simple/17.png,images/simple/7.png,images/simple/13.png,images/simple/3.png,images/simple/1.png,images/simple/2.png,images/simple/11.png","1","null","","200","2537.999999999709","yes","302.20000000006985","","target","",""
"","null","html-keyboard-response","118","304987","0.0-17.0-0.2","SS1604588531250","","null","","","","","","","","","","","","<img src=images/blank.png width =""500"" height = ""500"" style=""border:5px solid black"">","","",""
"","693.699999999837","stimulus-presentation","119","305891","0.0-17.0-1.2","SS1604588531250","<img src='images/complex/8.png' width ='500' height = '500' style='border:5px solid black'>","40","mixed_simple_deviant","images/complex/2.png","images/complex/8.png","images/simple/17.png,images/simple/7.png,images/simple/13.png,images/simple/3.png,images/simple/1.png,images/simple/2.png,images/simple/11.png","1","null","","200","893.699999999837","","","","background","",""
"","null","html-keyboard-response","120","307095","0.0-17.0-0.3","SS1604588531250","","null","","","","","","","","","","","","<img src=images/blank.png width =""500"" height = ""500"" style=""border:5px solid black"">","","",""
"","228.60000000038417","stimulus-presentation","121","307537","0.0-17.0-1.3","SS1604588531250","<img src='images/complex/8.png' width ='500' height = '500' style='border:5px solid black'>","40","mixed_simple_deviant","images/complex/2.png","images/complex/8.png","images/simple/17.png,images/simple/7.png,images/simple/13.png,images/simple/3.png,images/simple/1.png,images/simple/2.png,images/simple/11.png","1","null","","200","428.60000000038417","","","","background","",""
"","null","html-keyboard-response","122","308453","0.0-17.0-0.4","SS1604588531250","","null","","","","","","","","","","","","<img src=images/blank.png width =""500"" height = ""500"" style=""border:5px solid black"">","","",""
"","667.9999999996508","stimulus-presentation","123","309342","0.0-17.0-1.4","SS1604588531250","<img src='images/simple/2.png' width ='500' height = '500' style='border:5px solid black'>","40","mixed_simple_deviant","images/complex/2.png","images/complex/8.png","images/simple/17.png,images/simple/7.png,images/simple/13.png,images/simple/3.png,images/simple/1.png,images/simple/2.png,images/simple/11.png","1","null","","200","867.9999999996508","","","","deviant","",""
"","null","html-keyboard-response","124","310341","0.0-17.0-0.5","SS1604588531250","","null","","","","","","","","","","","","<img src=images/blank.png width =""500"" height = ""500"" style=""border:5px solid black"">","","",""
"","145.0999999997439","stimulus-presentation","125","310697","0.0-17.0-1.5","SS1604588531250","<img src='images/complex/8.png' width ='500' height = '500' style='border:5px solid black'>","40","mixed_simple_deviant","images/complex/2.png","images/complex/8.png","images/simple/17.png,images/simple/7.png,images/simple/13.png,images/simple/3.png,images/simple/1.png,images/simple/2.png,images/simple/11.png","1","null","","200","345.0999999997439","","","","background","",""
"","null","html-keyboard-response","126","311764","0.0-17.0-0.6","SS1604588531250","","null","","","","","","","","","","","","<img src=images/blank.png width =""500"" height = ""500"" style=""border:5px solid black"">","","",""
"","222.7999999995227","stimulus-presentation","127","312198","0.0-17.0-1.6","SS1604588531250","<img src='images/complex/8.png' width ='500' height = '500' style='border:5px solid black'>","40","mixed_simple_deviant","images/complex/2.png","images/complex/8.png","images/simple/17.png,images/simple/7.png,images/simple/13.png,images/simple/3.png,images/simple/1.png,images/simple/2.png,images/simple/11.png","1","null","","200","422.7999999995227","","","","background","",""
"","null","html-keyboard-response","128","313067","0.0-17.0-0.7","SS1604588531250","","null","","","","","","","","","","","","<img src=images/blank.png width =""500"" height = ""500"" style=""border:5px solid black"">","","",""
"","935.4000000002561","stimulus-presentation","129","314214","0.0-17.0-1.7","SS1604588531250","<img src='images/complex/2.png' width ='500' height = '500' style='border:5px solid black'>","40","mixed_simple_deviant","images/complex/2.png","images/complex/8.png","images/simple/17.png,images/simple/7.png,images/simple/13.png,images/simple/3.png,images/simple/1.png,images/simple/2.png,images/simple/11.png","1","null","","200","1135.4000000002561","yes","307.89999999979045","","target","",""
"","null","html-keyboard-response","130","315519","0.0-17.0-0.8","SS1604588531250","","null","","","","","","","","","","","","<img src=images/blank.png width =""500"" height = ""500"" style=""border:5px solid black"">","","",""
"","307.8000000005122","stimulus-presentation","131","316036","0.0-17.0-1.8","SS1604588531250","<img src='images/simple/7.png' width ='500' height = '500' style='border:5px solid black'>","40","mixed_simple_deviant","images/complex/2.png","images/complex/8.png","images/simple/17.png,images/simple/7.png,images/simple/13.png,images/simple/3.png,images/simple/1.png,images/simple/2.png,images/simple/11.png","1","null","","200","507.8000000005122","","","","deviant","",""
"","null","html-keyboard-response","132","317304","0.0-17.0-0.9","SS1604588531250","","null","","","","","","","","","","","","<img src=images/blank.png width =""500"" height = ""500"" style=""border:5px solid black"">","","",""
"","1430.8000000001048","stimulus-presentation","133","318957","0.0-17.0-1.9","SS1604588531250","<img src='images/complex/8.png' width ='500' height = '500' style='border:5px solid black'>","40","mixed_simple_deviant","images/complex/2.png","images/complex/8.png","images/simple/17.png,images/simple/7.png,images/simple/13.png,images/simple/3.png,images/simple/1.png,images/simple/2.png,images/simple/11.png","1","null","","200","1630.8000000001048","","","","background","",""
"","null","html-keyboard-response","134","320183","0.0-17.0-0.10","SS1604588531250","","null","","","","","","","","","","","","<img src=images/blank.png width =""500"" height = ""500"" style=""border:5px solid black"">","","",""
"","140.90000000031432","stimulus-presentation","135","320536","0.0-17.0-1.10","SS1604588531250","<img src='images/complex/8.png' width ='500' height = '500' style='border:5px solid black'>","40","mixed_simple_deviant","images/complex/2.png","images/complex/8.png","images/simple/17.png,images/simple/7.png,images/simple/13.png,images/simple/3.png,images/simple/1.png,images/simple/2.png,images/simple/11.png","1","null","","200","340.9000000003143","","","","background","",""
"","null","html-keyboard-response","136","321627","0.0-17.0-0.11","SS1604588531250","","null","","","","","","","","","","","","<img src=images/blank.png width =""500"" height = ""500"" style=""border:5px solid black"">","","",""
"","1137.9999999990105","stimulus-presentation","137","322975","0.0-17.0-1.11","SS1604588531250","<img src='images/simple/1.png' width ='500' height = '500' style='border:5px solid black'>","40","mixed_simple_deviant","images/complex/2.png","images/complex/8.png","images/simple/17.png,images/simple/7.png,images/simple/13.png,images/simple/3.png,images/simple/1.png,images/simple/2.png,images/simple/11.png","1","null","","200","1337.9999999990105","","","","deviant","",""
"","null","html-keyboard-response","138","324286","0.0-17.0-0.12","SS1604588531250","","null","","","","","","","","","","","","<img src=images/blank.png width =""500"" height = ""500"" style=""border:5px solid black"">","","",""
"","1074.099999999802","stimulus-presentation","139","325570","0.0-17.0-1.12","SS1604588531250","<img src='images/complex/2.png' width ='500' height = '500' style='border:5px solid black'>","40","mixed_simple_deviant","images/complex/2.png","images/complex/8.png","images/simple/17.png,images/simple/7.png,images/simple/13.png,images/simple/3.png,images/simple/1.png,images/simple/2.png,images/simple/11.png","1","null","","200","1274.099999999802","yes","449.89999999961583","","target","",""
"","null","html-keyboard-response","140","326681","0.0-17.0-0.13","SS1604588531250","","null","","","","","","","","","","","","<img src=images/blank.png width =""500"" height = ""500"" style=""border:5px solid black"">","","",""
"","616.2999999996973","stimulus-presentation","141","327508","0.0-17.0-1.13","SS1604588531250","<img src='images/complex/8.png' width ='500' height = '500' style='border:5px solid black'>","40","mixed_simple_deviant","images/complex/2.png","images/complex/8.png","images/simple/17.png,images/simple/7.png,images/simple/13.png,images/simple/3.png,images/simple/1.png,images/simple/2.png,images/simple/11.png","1","null","","200","816.2999999996973","","","","background","",""
"","null","html-keyboard-response","142","328657","0.0-17.0-0.14","SS1604588531250","","null","","","","","","","","","","","","<img src=images/blank.png width =""500"" height = ""500"" style=""border:5px solid black"">","","",""
"","121.39999999996508","stimulus-presentation","143","328989","0.0-17.0-1.14","SS1604588531250","<img src='images/complex/8.png' width ='500' height = '500' style='border:5px solid black'>","40","mixed_simple_deviant","images/complex/2.png","images/complex/8.png","images/simple/17.png,images/simple/7.png,images/simple/13.png,images/simple/3.png,images/simple/1.png,images/simple/2.png,images/simple/11.png","1","null","","200","321.3999999999651","","","","background","",""
"","null","html-keyboard-response","144","330054","0.0-17.0-0.15","SS1604588531250","","null","","","","","","","","","","","","<img src=images/blank.png width =""500"" height = ""500"" style=""border:5px solid black"">","","",""
"","181.19999999908032","stimulus-presentation","145","330453","0.0-17.0-1.15","SS1604588531250","<img src='images/complex/8.png' width ='500' height = '500' style='border:5px solid black'>","40","mixed_simple_deviant","images/complex/2.png","images/complex/8.png","images/simple/17.png,images/simple/7.png,images/simple/13.png,images/simple/3.png,images/simple/1.png,images/simple/2.png,images/simple/11.png","1","null","","200","381.1999999990803","","","","background","",""
"","null","html-keyboard-response","146","331375","0.0-17.0-0.16","SS1604588531250","","null","","","","","","","","","","","","<img src=images/blank.png width =""500"" height = ""500"" style=""border:5px solid black"">","","",""
"","128.3000000002794","stimulus-presentation","147","331721","0.0-17.0-1.16","SS1604588531250","<img src='images/complex/8.png' width ='500' height = '500' style='border:5px solid black'>","40","mixed_simple_deviant","images/complex/2.png","images/complex/8.png","images/simple/17.png,images/simple/7.png,images/simple/13.png,images/simple/3.png,images/simple/1.png,images/simple/2.png,images/simple/11.png","1","null","","200","328.3000000002794","","","","background","",""
"","null","html-keyboard-response","148","332835","0.0-17.0-0.17","SS1604588531250","","null","","","","","","","","","","","","<img src=images/blank.png width =""500"" height = ""500"" style=""border:5px solid black"">","","",""
"","230.60000000079162","stimulus-presentation","149","333278","0.0-17.0-1.17","SS1604588531250","<img src='images/complex/8.png' width ='500' height = '500' style='border:5px solid black'>","40","mixed_simple_deviant","images/complex/2.png","images/complex/8.png","images/simple/17.png,images/simple/7.png,images/simple/13.png,images/simple/3.png,images/simple/1.png,images/simple/2.png,images/simple/11.png","1","null","","200","430.6000000007916","","","","background","",""
"","null","html-keyboard-response","150","334361","0.0-17.0-0.18","SS1604588531250","","null","","","","","","","","","","","","<img src=images/blank.png width =""500"" height = ""500"" style=""border:5px solid black"">","","",""
"","166.99999999947613","stimulus-presentation","151","334738","0.0-17.0-1.18","SS1604588531250","<img src='images/complex/8.png' width ='500' height = '500' style='border:5px solid black'>","40","mixed_simple_deviant","images/complex/2.png","images/complex/8.png","images/simple/17.png,images/simple/7.png,images/simple/13.png,images/simple/3.png,images/simple/1.png,images/simple/2.png,images/simple/11.png","1","null","","200","366.99999999947613","","","","background","",""
"","null","html-keyboard-response","152","335616","0.0-17.0-0.19","SS1604588531250","","null","","","","","","","","","","","","<img src=images/blank.png width =""500"" height = ""500"" style=""border:5px solid black"">","","",""
"","150.70000000012806","stimulus-presentation","153","335979","0.0-17.0-1.19","SS1604588531250","<img src='images/complex/8.png' width ='500' height = '500' style='border:5px solid black'>","40","mixed_simple_deviant","images/complex/2.png","images/complex/8.png","images/simple/17.png,images/simple/7.png,images/simple/13.png,images/simple/3.png,images/simple/1.png,images/simple/2.png,images/simple/11.png","1","null","","200","350.70000000012806","","","","background","",""
"","null","html-keyboard-response","154","337200","0.0-17.0-0.20","SS1604588531250","","null","","","","","","","","","","","","<img src=images/blank.png width =""500"" height = ""500"" style=""border:5px solid black"">","","",""
"","112.90000000008149","stimulus-presentation","155","337523","0.0-17.0-1.20","SS1604588531250","<img src='images/complex/8.png' width ='500' height = '500' style='border:5px solid black'>","40","mixed_simple_deviant","images/complex/2.png","images/complex/8.png","images/simple/17.png,images/simple/7.png,images/simple/13.png,images/simple/3.png,images/simple/1.png,images/simple/2.png,images/simple/11.png","1","null","","200","312.9000000000815","","","","background","",""
"","null","html-keyboard-response","156","338626","0.0-17.0-0.21","SS1604588531250","","null","","","","","","","","","","","","<img src=images/blank.png width =""500"" height = ""500"" style=""border:5px solid black"">","","",""
"","494.3000000002794","stimulus-presentation","157","339333","0.0-17.0-1.21","SS1604588531250","<img src='images/simple/13.png' width ='500' height = '500' style='border:5px solid black'>","40","mixed_simple_deviant","images/complex/2.png","images/complex/8.png","images/simple/17.png,images/simple/7.png,images/simple/13.png,images/simple/3.png,images/simple/1.png,images/simple/2.png,images/simple/11.png","1","null","","200","694.3000000002794","","","","deviant","",""
"","null","html-keyboard-response","158","340249","0.0-17.0-0.22","SS1604588531250","","null","","","","","","","","","","","","<img src=images/blank.png width =""500"" height = ""500"" style=""border:5px solid black"">","","",""
"","338.7000000002445","stimulus-presentation","159","340802","0.0-17.0-1.22","SS1604588531250","<img src='images/complex/8.png' width ='500' height = '500' style='border:5px solid black'>","40","mixed_simple_deviant","images/complex/2.png","images/complex/8.png","images/simple/17.png,images/simple/7.png,images/simple/13.png,images/simple/3.png,images/simple/1.png,images/simple/2.png,images/simple/11.png","1","null","","200","538.7000000002445","","","","background","",""
"","null","html-keyboard-response","160","341898","0.0-17.0-0.23","SS1604588531250","","null","","","","","","","","","","","","<img src=images/blank.png width =""500"" height = ""500"" style=""border:5px solid black"">","","",""
"","116.20000000036089","stimulus-presentation","161","342243","0.0-17.0-1.23","SS1604588531250","<img src='images/complex/8.png' width ='500' height = '500' style='border:5px solid black'>","40","mixed_simple_deviant","images/complex/2.png","images/complex/8.png","images/simple/17.png,images/simple/7.png,images/simple/13.png,images/simple/3.png,images/simple/1.png,images/simple/2.png,images/simple/11.png","1","null","","200","316.2000000003609","","","","background","",""
"","null","html-keyboard-response","162","343106","0.0-17.0-0.24","SS1604588531250","","null","","","","","","","","","","","","<img src=images/blank.png width =""500"" height = ""500"" style=""border:5px solid black"">","","",""
"","289.0999999999767","stimulus-presentation","163","343605","0.0-17.0-1.24","SS1604588531250","<img src='images/complex/8.png' width ='500' height = '500' style='border:5px solid black'>","40","mixed_simple_deviant","images/complex/2.png","images/complex/8.png","images/simple/17.png,images/simple/7.png,images/simple/13.png,images/simple/3.png,images/simple/1.png,images/simple/2.png,images/simple/11.png","1","null","","200","489.0999999999767","","","","background","",""
"","null","html-keyboard-response","164","344852","0.0-17.0-0.25","SS1604588531250","","null","","","","","","","","","","","","<img src=images/blank.png width =""500"" height = ""500"" style=""border:5px solid black"">","","",""
"","247.600000000617","stimulus-presentation","165","345311","0.0-17.0-1.25","SS1604588531250","<img src='images/complex/8.png' width ='500' height = '500' style='border:5px solid black'>","40","mixed_simple_deviant","images/complex/2.png","images/complex/8.png","images/simple/17.png,images/simple/7.png,images/simple/13.png,images/simple/3.png,images/simple/1.png,images/simple/2.png,images/simple/11.png","1","null","","200","447.600000000617","","","","background","",""
"","null","html-keyboard-response","166","346178","0.0-17.0-0.26","SS1604588531250","","null","","","","","","","","","","","","<img src=images/blank.png width =""500"" height = ""500"" style=""border:5px solid black"">","","",""
"","472.90000000066357","stimulus-presentation","167","346865","0.0-17.0-1.26","SS1604588531250","<img src='images/simple/11.png' width ='500' height = '500' style='border:5px solid black'>","40","mixed_simple_deviant","images/complex/2.png","images/complex/8.png","images/simple/17.png,images/simple/7.png,images/simple/13.png,images/simple/3.png,images/simple/1.png,images/simple/2.png,images/simple/11.png","1","null","","200","672.9000000006636","","","","deviant","",""
"","null","html-keyboard-response","168","348094","0.0-17.0-0.27","SS1604588531250","","null","","","","","","","","","","","","<img src=images/blank.png width =""500"" height = ""500"" style=""border:5px solid black"">","","",""
"","146.3000000003376","stimulus-presentation","169","348465","0.0-17.0-1.27","SS1604588531250","<img src='images/complex/8.png' width ='500' height = '500' style='border:5px solid black'>","40","mixed_simple_deviant","images/complex/2.png","images/complex/8.png","images/simple/17.png,images/simple/7.png,images/simple/13.png,images/simple/3.png,images/simple/1.png,images/simple/2.png,images/simple/11.png","1","null","","200","346.3000000003376","","","","background","",""
"","null","html-keyboard-response","170","349339","0.0-17.0-0.28","SS1604588531250","","null","","","","","","","","","","","","<img src=images/blank.png width =""500"" height = ""500"" style=""border:5px solid black"">","","",""
"","123.29999999928987","stimulus-presentation","171","349684","0.0-17.0-1.28","SS1604588531250","<img src='images/complex/8.png' width ='500' height = '500' style='border:5px solid black'>","40","mixed_simple_deviant","images/complex/2.png","images/complex/8.png","images/simple/17.png,images/simple/7.png,images/simple/13.png,images/simple/3.png,images/simple/1.png,images/simple/2.png,images/simple/11.png","1","null","","200","323.29999999928987","","","","background","",""
"","null","html-keyboard-response","172","350779","0.0-17.0-0.29","SS1604588531250","","null","","","","","","","","","","","","<img src=images/blank.png width =""500"" height = ""500"" style=""border:5px solid black"">","","",""
"","224.79999999998836","stimulus-presentation","173","351219","0.0-17.0-1.29","SS1604588531250","<img src='images/complex/8.png' width ='500' height = '500' style='border:5px solid black'>","40","mixed_simple_deviant","images/complex/2.png","images/complex/8.png","images/simple/17.png,images/simple/7.png,images/simple/13.png,images/simple/3.png,images/simple/1.png,images/simple/2.png,images/simple/11.png","1","null","","200","424.79999999998836","","","","background","",""
"","null","html-keyboard-response","174","352281","0.0-17.0-0.30","SS1604588531250","","null","","","","","","","","","","","","<img src=images/blank.png width =""500"" height = ""500"" style=""border:5px solid black"">","","",""
"","116.09999999927823","stimulus-presentation","175","352607","0.0-17.0-1.30","SS1604588531250","<img src='images/complex/8.png' width ='500' height = '500' style='border:5px solid black'>","40","mixed_simple_deviant","images/complex/2.png","images/complex/8.png","images/simple/17.png,images/simple/7.png,images/simple/13.png,images/simple/3.png,images/simple/1.png,images/simple/2.png,images/simple/11.png","1","null","","200","316.0999999992782","","","","background","",""
"","null","html-keyboard-response","176","353463","0.0-17.0-0.31","SS1604588531250","","null","","","","","","","","","","","","<img src=images/blank.png width =""500"" height = ""500"" style=""border:5px solid black"">","","",""
"","129.49999999906868","stimulus-presentation","177","353807","0.0-17.0-1.31","SS1604588531250","<img src='images/complex/8.png' width ='500' height = '500' style='border:5px solid black'>","40","mixed_simple_deviant","images/complex/2.png","images/complex/8.png","images/simple/17.png,images/simple/7.png,images/simple/13.png,images/simple/3.png,images/simple/1.png,images/simple/2.png,images/simple/11.png","1","null","","200","329.4999999990687","","","","background","",""
"","null","html-keyboard-response","178","354663","0.0-17.0-0.32","SS1604588531250","","null","","","","","","","","","","","","<img src=images/blank.png width =""500"" height = ""500"" style=""border:5px solid black"">","","",""
"","78.60000000073342","stimulus-presentation","179","354956","0.0-17.0-1.32","SS1604588531250","<img src='images/complex/8.png' width ='500' height = '500' style='border:5px solid black'>","40","mixed_simple_deviant","images/complex/2.png","images/complex/8.png","images/simple/17.png,images/simple/7.png,images/simple/13.png,images/simple/3.png,images/simple/1.png,images/simple/2.png,images/simple/11.png","1","null","","200","278.6000000007334","","","","background","",""
"","null","html-keyboard-response","180","356187","0.0-17.0-0.33","SS1604588531250","","null","","","","","","","","","","","","<img src=images/blank.png width =""500"" height = ""500"" style=""border:5px solid black"">","","",""
"","104.20000000158325","stimulus-presentation","181","356514","0.0-17.0-1.33","SS1604588531250","<img src='images/complex/8.png' width ='500' height = '500' style='border:5px solid black'>","40","mixed_simple_deviant","images/complex/2.png","images/complex/8.png","images/simple/17.png,images/simple/7.png,images/simple/13.png,images/simple/3.png,images/simple/1.png,images/simple/2.png,images/simple/11.png","1","null","","200","304.20000000158325","","","","background","",""
"","null","html-keyboard-response","182","357631","0.0-17.0-0.34","SS1604588531250","","null","","","","","","","","","","","","<img src=images/blank.png width =""500"" height = ""500"" style=""border:5px solid black"">","","",""
"","122.600000000617","stimulus-presentation","183","357968","0.0-17.0-1.34","SS1604588531250","<img src='images/complex/8.png' width ='500' height = '500' style='border:5px solid black'>","40","mixed_simple_deviant","images/complex/2.png","images/complex/8.png","images/simple/17.png,images/simple/7.png,images/simple/13.png,images/simple/3.png,images/simple/1.png,images/simple/2.png,images/simple/11.png","1","null","","200","322.600000000617","","","","background","",""
"","null","html-keyboard-response","184","358879","0.0-17.0-0.35","SS1604588531250","","null","","","","","","","","","","","","<img src=images/blank.png width =""500"" height = ""500"" style=""border:5px solid black"">","","",""
"","139.40000000002328","stimulus-presentation","185","359247","0.0-17.0-1.35","SS1604588531250","<img src='images/complex/8.png' width ='500' height = '500' style='border:5px solid black'>","40","mixed_simple_deviant","images/complex/2.png","images/complex/8.png","images/simple/17.png,images/simple/7.png,images/simple/13.png,images/simple/3.png,images/simple/1.png,images/simple/2.png,images/simple/11.png","1","null","","200","339.4000000000233","","","","background","",""
"","null","html-keyboard-response","186","360476","0.0-17.0-0.36","SS1604588531250","","null","","","","","","","","","","","","<img src=images/blank.png width =""500"" height = ""500"" style=""border:5px solid black"">","","",""
"","413.300000000163","stimulus-presentation","187","361109","0.0-17.0-1.36","SS1604588531250","<img src='images/complex/8.png' width ='500' height = '500' style='border:5px solid black'>","40","mixed_simple_deviant","images/complex/2.png","images/complex/8.png","images/simple/17.png,images/simple/7.png,images/simple/13.png,images/simple/3.png,images/simple/1.png,images/simple/2.png,images/simple/11.png","1","null","","200","613.300000000163","","","","background","",""
"","null","html-keyboard-response","188","362181","0.0-17.0-0.37","SS1604588531250","","null","","","","","","","","","","","","<img src=images/blank.png width =""500"" height = ""500"" style=""border:5px solid black"">","","",""
"","2244.699999999255","stimulus-presentation","189","364637","0.0-17.0-1.37","SS1604588531250","<img src='images/complex/2.png' width ='500' height = '500' style='border:5px solid black'>","40","mixed_simple_deviant","images/complex/2.png","images/complex/8.png","images/simple/17.png,images/simple/7.png,images/simple/13.png,images/simple/3.png,images/simple/1.png,images/simple/2.png,images/simple/11.png","1","null","","200","2444.699999999255","yes","415.39999999984866","","target","",""
"","null","html-keyboard-response","190","365579","0.0-17.0-0.38","SS1604588531250","","null","","","","","","","","","","","","<img src=images/blank.png width =""500"" height = ""500"" style=""border:5px solid black"">","","",""
"","739.7999999994063","stimulus-presentation","191","366547","0.0-17.0-1.38","SS1604588531250","<img src='images/simple/17.png' width ='500' height = '500' style='border:5px solid black'>","40","mixed_simple_deviant","images/complex/2.png","images/complex/8.png","images/simple/17.png,images/simple/7.png,images/simple/13.png,images/simple/3.png,images/simple/1.png,images/simple/2.png,images/simple/11.png","1","null","","200","939.7999999994063","","","","deviant","",""
"","null","html-keyboard-response","192","367586","0.0-17.0-0.39","SS1604588531250","","null","","","","","","","","","","","","<img src=images/blank.png width =""500"" height = ""500"" style=""border:5px solid black"">","","",""
"","173.39999999967404","stimulus-presentation","193","367981","0.0-17.0-1.39","SS1604588531250","<img src='images/complex/8.png' width ='500' height = '500' style='border:5px solid black'>","40","mixed_simple_deviant","images/complex/2.png","images/complex/8.png","images/simple/17.png,images/simple/7.png,images/simple/13.png,images/simple/3.png,images/simple/1.png,images/simple/2.png,images/simple/11.png","1","null","","200","373.39999999967404","","","","background","",""
"","null","html-keyboard-response","194","369029","0.0-17.0-0.40","SS1604588531250","","null","","","","","","","","","","","","<img src=images/blank.png width =""500"" height = ""500"" style=""border:5px solid black"">","","",""
"","124.89999999885913","stimulus-presentation","195","369370","0.0-17.0-1.40","SS1604588531250","<img src='images/simple/3.png' width ='500' height = '500' style='border:5px solid black'>","40","mixed_simple_deviant","images/complex/2.png","images/complex/8.png","images/simple/17.png,images/simple/7.png,images/simple/13.png,images/simple/3.png,images/simple/1.png,images/simple/2.png,images/simple/11.png","1","null","","200","324.89999999885913","","","","deviant","",""
"","null","html-keyboard-response","196","370531","0.0-17.0-0.41","SS1604588531250","","null","","","","","","","","","","","","<img src=images/blank.png width =""500"" height = ""500"" style=""border:5px solid black"">","","",""
"","125.10000000114087","stimulus-presentation","197","370882","0.0-17.0-1.41","SS1604588531250","<img src='images/complex/8.png' width ='500' height = '500' style='border:5px solid black'>","40","mixed_simple_deviant","images/complex/2.png","images/complex/8.png","images/simple/17.png,images/simple/7.png,images/simple/13.png,images/simple/3.png,images/simple/1.png,images/simple/2.png,images/simple/11.png","1","null","","200","325.10000000114087","","","","background","",""
"","null","html-keyboard-response","198","372023","0.0-17.0-0.42","SS1604588531250","","null","","","","","","","","","","","","<img src=images/blank.png width =""500"" height = ""500"" style=""border:5px solid black"">","","",""
"","94.90000000008149","stimulus-presentation","199","372345","0.0-17.0-1.42","SS1604588531250","<img src='images/complex/8.png' width ='500' height = '500' style='border:5px solid black'>","40","mixed_simple_deviant","images/complex/2.png","images/complex/8.png","images/simple/17.png,images/simple/7.png,images/simple/13.png,images/simple/3.png,images/simple/1.png,images/simple/2.png,images/simple/11.png","1","null","","200","294.9000000000815","","","","background","",""
"","null","html-keyboard-response","200","373314","0.0-17.0-0.43","SS1604588531250","","null","","","","","","","","","","","","<img src=images/blank.png width =""500"" height = ""500"" style=""border:5px solid black"">","","",""
"","877.8999999994994","stimulus-presentation","201","374403","0.0-17.0-1.43","SS1604588531250","<img src='images/complex/2.png' width ='500' height = '500' style='border:5px solid black'>","40","mixed_simple_deviant","images/complex/2.png","images/complex/8.png","images/simple/17.png,images/simple/7.png,images/simple/13.png,images/simple/3.png,images/simple/1.png,images/simple/2.png,images/simple/11.png","1","null","","200","1077.8999999994994","yes","356.0999999990454","","target","",""
"","null","html-keyboard-response","202","375562","0.0-17.0-0.44","SS1604588531250","","null","","","","","","","","","","","","<img src=images/blank.png width =""500"" height = ""500"" style=""border:5px solid black"">","","",""
"","415.9999999992433","stimulus-presentation","203","376192","0.0-17.0-1.44","SS1604588531250","<img src='images/complex/8.png' width ='500' height = '500' style='border:5px solid black'>","40","mixed_simple_deviant","images/complex/2.png","images/complex/8.png","images/simple/17.png,images/simple/7.png,images/simple/13.png,images/simple/3.png,images/simple/1.png,images/simple/2.png,images/simple/11.png","1","null","","200","615.9999999992433","","","","background","",""
"","null","html-keyboard-response","204","377308","0.0-17.0-0.45","SS1604588531250","","null","","","","","","","","","","","","<img src=images/blank.png width =""500"" height = ""500"" style=""border:5px solid black"">","","",""
"","244.99999999895226","stimulus-presentation","205","377771","0.0-17.0-1.45","SS1604588531250","<img src='images/complex/8.png' width ='500' height = '500' style='border:5px solid black'>","40","mixed_simple_deviant","images/complex/2.png","images/complex/8.png","images/simple/17.png,images/simple/7.png,images/simple/13.png,images/simple/3.png,images/simple/1.png,images/simple/2.png,images/simple/11.png","1","null","","200","444.99999999895226","","","","background","",""
"","null","html-keyboard-response","206","378632","0.0-17.0-0.46","SS1604588531250","","null","","","","","","","","","","","","<img src=images/blank.png width =""500"" height = ""500"" style=""border:5px solid black"">","","",""
"","5156.500000000931","stimulus-presentation","207","384014","0.0-17.0-1.46","SS1604588531250","<img src='images/complex/8.png' width ='500' height = '500' style='border:5px solid black'>","40","mixed_simple_deviant","images/complex/2.png","images/complex/8.png","images/simple/17.png,images/simple/7.png,images/simple/13.png,images/simple/3.png,images/simple/1.png,images/simple/2.png,images/simple/11.png","1","null","","200","5356.500000000931","","","","background","",""
"","null","html-keyboard-response","208","384947","0.0-17.0-0.47","SS1604588531250","","null","","","","","","","","","","","","<img src=images/blank.png width =""500"" height = ""500"" style=""border:5px solid black"">","","",""
"","930.0999999995693","stimulus-presentation","209","386095","0.0-17.0-1.47","SS1604588531250","<img src='images/complex/2.png' width ='500' height = '500' style='border:5px solid black'>","40","mixed_simple_deviant","images/complex/2.png","images/complex/8.png","images/simple/17.png,images/simple/7.png,images/simple/13.png,images/simple/3.png,images/simple/1.png,images/simple/2.png,images/simple/11.png","1","null","","200","1130.0999999995693","yes","285.4999999999418","","target","",""
"","null","html-keyboard-response","210","386999","0.0-17.0-0.48","SS1604588531250","","null","","","","","","","","","","","","<img src=images/blank.png width =""500"" height = ""500"" style=""border:5px solid black"">","","",""
"","864.3999999985681","stimulus-presentation","211","388086","0.0-17.0-1.48","SS1604588531250","<img src='images/complex/8.png' width ='500' height = '500' style='border:5px solid black'>","40","mixed_simple_deviant","images/complex/2.png","images/complex/8.png","images/simple/17.png,images/simple/7.png,images/simple/13.png,images/simple/3.png,images/simple/1.png,images/simple/2.png,images/simple/11.png","1","null","","200","1064.399999998568","","","","background","",""
"[{""page_index"":0,""viewing_time"":59589}]","59589","task-instructions","212","447687","0.0-18.0","SS1604588531250","","","","","","","","","","","","","","","","",""
"[{""page_index"":0,""viewing_time"":75666.99999999942},{""page_index"":1,""viewing_time"":4793.499999999767},{""page_index"":2,""viewing_time"":6616.400000000838}]","87077.299999999","instructions","213","534777","0.0-19.0","SS1604588531250","","","","","","","","","","","","","","","","",""
"","null","html-keyboard-response","214","535760","0.0-20.0-0.0","SS1604588531250","","null","","","","","","","","","","","","<img src=images/blank.png width =""500"" height = ""500"" style=""border:5px solid black"">","","",""
"","2731.7000000003027","stimulus-presentation","215","538719","0.0-20.0-1.0","SS1604588531250","<img src='images/simple/9.png' width ='500' height = '500' style='border:5px solid black'>","40","all_simple","images/simple/12.png","images/simple/9.png","images/simple/6.png,images/simple/4.png,images/simple/5.png,images/simple/8.png,images/simple/14.png,images/simple/18.png,images/simple/16.png","2","null","","200","2931.7000000003027","","","","background","",""
"","null","html-keyboard-response","216","539585","0.0-20.0-0.1","SS1604588531250","","null","","","","","","","","","","","","<img src=images/blank.png width =""500"" height = ""500"" style=""border:5px solid black"">","","",""
"","292.99999999965075","stimulus-presentation","217","540091","0.0-20.0-1.1","SS1604588531250","<img src='images/simple/9.png' width ='500' height = '500' style='border:5px solid black'>","40","all_simple","images/simple/12.png","images/simple/9.png","images/simple/6.png,images/simple/4.png,images/simple/5.png,images/simple/8.png,images/simple/14.png,images/simple/18.png,images/simple/16.png","2","null","","200","492.99999999965075","","","","background","",""
"","null","html-keyboard-response","218","541024","0.0-20.0-0.2","SS1604588531250","","null","","","","","","","","","","","","<img src=images/blank.png width =""500"" height = ""500"" style=""border:5px solid black"">","","",""
"","87.5000000015134","stimulus-presentation","219","541331","0.0-20.0-1.2","SS1604588531250","<img src='images/simple/9.png' width ='500' height = '500' style='border:5px solid black'>","40","all_simple","images/simple/12.png","images/simple/9.png","images/simple/6.png,images/simple/4.png,images/simple/5.png,images/simple/8.png,images/simple/14.png,images/simple/18.png,images/simple/16.png","2","null","","200","287.5000000015134","","","","background","",""
"","null","html-keyboard-response","220","542343","0.0-20.0-0.3","SS1604588531250","","null","","","","","","","","","","","","<img src=images/blank.png width =""500"" height = ""500"" style=""border:5px solid black"">","","",""
"","81.00000000011642","stimulus-presentation","221","542636","0.0-20.0-1.3","SS1604588531250","<img src='images/simple/9.png' width ='500' height = '500' style='border:5px solid black'>","40","all_simple","images/simple/12.png","images/simple/9.png","images/simple/6.png,images/simple/4.png,images/simple/5.png,images/simple/8.png,images/simple/14.png,images/simple/18.png,images/simple/16.png","2","null","","200","281.0000000001164","","","","background","",""
"","null","html-keyboard-response","222","543596","0.0-20.0-0.4","SS1604588531250","","null","","","","","","","","","","","","<img src=images/blank.png width =""500"" height = ""500"" style=""border:5px solid black"">","","",""
"","95.99999999953434","stimulus-presentation","223","543908","0.0-20.0-1.4","SS1604588531250","<img src='images/simple/9.png' width ='500' height = '500' style='border:5px solid black'>","40","all_simple","images/simple/12.png","images/simple/9.png","images/simple/6.png,images/simple/4.png,images/simple/5.png,images/simple/8.png,images/simple/14.png,images/simple/18.png,images/simple/16.png","2","null","","200","295.99999999953434","","","","background","",""
"","null","html-keyboard-response","224","545083","0.0-20.0-0.5","SS1604588531250","","null","","","","","","","","","","","","<img src=images/blank.png width =""500"" height = ""500"" style=""border:5px solid black"">","","",""
"","64.20000000076834","stimulus-presentation","225","545365","0.0-20.0-1.5","SS1604588531250","<img src='images/simple/9.png' width ='500' height = '500' style='border:5px solid black'>","40","all_simple","images/simple/12.png","images/simple/9.png","images/simple/6.png,images/simple/4.png,images/simple/5.png,images/simple/8.png,images/simple/14.png,images/simple/18.png,images/simple/16.png","2","null","","200","264.20000000076834","","","","background","",""
"","null","html-keyboard-response","226","546295","0.0-20.0-0.6","SS1604588531250","","null","","","","","","","","","","","","<img src=images/blank.png width =""500"" height = ""500"" style=""border:5px solid black"">","","",""
"","121.9000000001397","stimulus-presentation","227","546639","0.0-20.0-1.6","SS1604588531250","<img src='images/simple/9.png' width ='500' height = '500' style='border:5px solid black'>","40","all_simple","images/simple/12.png","images/simple/9.png","images/simple/6.png,images/simple/4.png,images/simple/5.png,images/simple/8.png,images/simple/14.png,images/simple/18.png,images/simple/16.png","2","null","","200","321.9000000001397","","","","background","",""
"","null","html-keyboard-response","228","547808","0.0-20.0-0.7","SS1604588531250","","null","","","","","","","","","","","","<img src=images/blank.png width =""500"" height = ""500"" style=""border:5px solid black"">","","",""
"","175.70000000158325","stimulus-presentation","229","548196","0.0-20.0-1.7","SS1604588531250","<img src='images/simple/9.png' width ='500' height = '500' style='border:5px solid black'>","40","all_simple","images/simple/12.png","images/simple/9.png","images/simple/6.png,images/simple/4.png,images/simple/5.png,images/simple/8.png,images/simple/14.png,images/simple/18.png,images/simple/16.png","2","null","","200","375.70000000158325","","","","background","",""
"","null","html-keyboard-response","230","549360","0.0-20.0-0.8","SS1604588531250","","null","","","","","","","","","","","","<img src=images/blank.png width =""500"" height = ""500"" style=""border:5px solid black"">","","",""
"","476.5999999999767","stimulus-presentation","231","550051","0.0-20.0-1.8","SS1604588531250","<img src='images/simple/18.png' width ='500' height = '500' style='border:5px solid black'>","40","all_simple","images/simple/12.png","images/simple/9.png","images/simple/6.png,images/simple/4.png,images/simple/5.png,images/simple/8.png,images/simple/14.png,images/simple/18.png,images/simple/16.png","2","null","","200","676.5999999999767","","","","deviant","",""
"","null","html-keyboard-response","232","551102","0.0-20.0-0.9","SS1604588531250","","null","","","","","","","","","","","","<img src=images/blank.png width =""500"" height = ""500"" style=""border:5px solid black"">","","",""
"","109.09999999962747","stimulus-presentation","233","551425","0.0-20.0-1.9","SS1604588531250","<img src='images/simple/9.png' width ='500' height = '500' style='border:5px solid black'>","40","all_simple","images/simple/12.png","images/simple/9.png","images/simple/6.png,images/simple/4.png,images/simple/5.png,images/simple/8.png,images/simple/14.png,images/simple/18.png,images/simple/16.png","2","null","","200","309.09999999962747","","","","background","",""
"","null","html-keyboard-response","234","552408","0.0-20.0-0.10","SS1604588531250","","null","","","","","","","","","","","","<img src=images/blank.png width =""500"" height = ""500"" style=""border:5px solid black"">","","",""
"","6748.500000001513","stimulus-presentation","235","559373","0.0-20.0-1.10","SS1604588531250","<img src='images/simple/12.png' width ='500' height = '500' style='border:5px solid black'>","40","all_simple","images/simple/12.png","images/simple/9.png","images/simple/6.png,images/simple/4.png,images/simple/5.png,images/simple/8.png,images/simple/14.png,images/simple/18.png,images/simple/16.png","2","null","","200","6948.500000001513","yes","797.5000000005821","","target","",""
"","null","html-keyboard-response","236","560613","0.0-20.0-0.11","SS1604588531250","","null","","","","","","","","","","","","<img src=images/blank.png width =""500"" height = ""500"" style=""border:5px solid black"">","","",""
"","7931.399999999441","stimulus-presentation","237","568768","0.0-20.0-1.11","SS1604588531250","<img src='images/simple/9.png' width ='500' height = '500' style='border:5px solid black'>","40","all_simple","images/simple/12.png","images/simple/9.png","images/simple/6.png,images/simple/4.png,images/simple/5.png,images/simple/8.png,images/simple/14.png,images/simple/18.png,images/simple/16.png","2","null","","200","8131.399999999441","","","","background","",""
"","null","html-keyboard-response","238","569938","0.0-20.0-0.12","SS1604588531250","","null","","","","","","","","","","","","<img src=images/blank.png width =""500"" height = ""500"" style=""border:5px solid black"">","","",""
"","100.30000000004657","stimulus-presentation","239","570260","0.0-20.0-1.12","SS1604588531250","<img src='images/simple/9.png' width ='500' height = '500' style='border:5px solid black'>","40","all_simple","images/simple/12.png","images/simple/9.png","images/simple/6.png,images/simple/4.png,images/simple/5.png,images/simple/8.png,images/simple/14.png,images/simple/18.png,images/simple/16.png","2","null","","200","300.30000000004657","","","","background","",""
"","null","html-keyboard-response","240","571218","0.0-20.0-0.13","SS1604588531250","","null","","","","","","","","","","","","<img src=images/blank.png width =""500"" height = ""500"" style=""border:5px solid black"">","","",""
"","162.50000000034925","stimulus-presentation","241","571610","0.0-20.0-1.13","SS1604588531250","<img src='images/simple/9.png' width ='500' height = '500' style='border:5px solid black'>","40","all_simple","images/simple/12.png","images/simple/9.png","images/simple/6.png,images/simple/4.png,images/simple/5.png,images/simple/8.png,images/simple/14.png,images/simple/18.png,images/simple/16.png","2","null","","200","362.50000000034925","","","","background","",""
"","null","html-keyboard-response","242","572639","0.0-20.0-0.14","SS1604588531250","","null","","","","","","","","","","","","<img src=images/blank.png width =""500"" height = ""500"" style=""border:5px solid black"">","","",""
"","87.10000000067521","stimulus-presentation","243","572940","0.0-20.0-1.14","SS1604588531250","<img src='images/simple/9.png' width ='500' height = '500' style='border:5px solid black'>","40","all_simple","images/simple/12.png","images/simple/9.png","images/simple/6.png,images/simple/4.png,images/simple/5.png,images/simple/8.png,images/simple/14.png,images/simple/18.png,images/simple/16.png","2","null","","200","287.1000000006752","","","","background","",""
"","null","html-keyboard-response","244","574117","0.0-20.0-0.15","SS1604588531250","","null","","","","","","","","","","","","<img src=images/blank.png width =""500"" height = ""500"" style=""border:5px solid black"">","","",""
"","103.19999999960419","stimulus-presentation","245","574445","0.0-20.0-1.15","SS1604588531250","<img src='images/simple/9.png' width ='500' height = '500' style='border:5px solid black'>","40","all_simple","images/simple/12.png","images/simple/9.png","images/simple/6.png,images/simple/4.png,images/simple/5.png,images/simple/8.png,images/simple/14.png,images/simple/18.png,images/simple/16.png","2","null","","200","303.1999999996042","","","","background","",""
"","null","html-keyboard-response","246","575576","0.0-20.0-0.16","SS1604588531250","","null","","","","","","","","","","","","<img src=images/blank.png width =""500"" height = ""500"" style=""border:5px solid black"">","","",""
"","75.69999999937136","stimulus-presentation","247","575867","0.0-20.0-1.16","SS1604588531250","<img src='images/simple/9.png' width ='500' height = '500' style='border:5px solid black'>","40","all_simple","images/simple/12.png","images/simple/9.png","images/simple/6.png,images/simple/4.png,images/simple/5.png,images/simple/8.png,images/simple/14.png,images/simple/18.png,images/simple/16.png","2","null","","200","275.69999999937136","","","","background","",""
"","null","html-keyboard-response","248","576971","0.0-20.0-0.17","SS1604588531250","","null","","","","","","","","","","","","<img src=images/blank.png width =""500"" height = ""500"" style=""border:5px solid black"">","","",""
"","90.50000000023283","stimulus-presentation","249","577277","0.0-20.0-1.17","SS1604588531250","<img src='images/simple/9.png' width ='500' height = '500' style='border:5px solid black'>","40","all_simple","images/simple/12.png","images/simple/9.png","images/simple/6.png,images/simple/4.png,images/simple/5.png,images/simple/8.png,images/simple/14.png,images/simple/18.png,images/simple/16.png","2","null","","200","290.50000000023283","","","","background","",""
"","null","html-keyboard-response","250","578238","0.0-20.0-0.18","SS1604588531250","","null","","","","","","","","","","","","<img src=images/blank.png width =""500"" height = ""500"" style=""border:5px solid black"">","","",""
"","528.1000000013737","stimulus-presentation","251","578978","0.0-20.0-1.18","SS1604588531250","<img src='images/simple/4.png' width ='500' height = '500' style='border:5px solid black'>","40","all_simple","images/simple/12.png","images/simple/9.png","images/simple/6.png,images/simple/4.png,images/simple/5.png,images/simple/8.png,images/simple/14.png,images/simple/18.png,images/simple/16.png","2","null","","200","728.1000000013737","","","","deviant","",""
"","null","html-keyboard-response","252","579968","0.0-20.0-0.19","SS1604588531250","","null","","","","","","","","","","","","<img src=images/blank.png width =""500"" height = ""500"" style=""border:5px solid black"">","","",""
"","829.100000000908","stimulus-presentation","253","581028","0.0-20.0-1.19","SS1604588531250","<img src='images/simple/12.png' width ='500' height = '500' style='border:5px solid black'>","40","all_simple","images/simple/12.png","images/simple/9.png","images/simple/6.png,images/simple/4.png,images/simple/5.png,images/simple/8.png,images/simple/14.png,images/simple/18.png,images/simple/16.png","2","null","","200","1029.100000000908","yes","269.09999999951106","","target","",""
"","null","html-keyboard-response","254","582340","0.0-20.0-0.20","SS1604588531250","","null","","","","","","","","","","","","<img src=images/blank.png width =""500"" height = ""500"" style=""border:5px solid black"">","","",""
"","411.9000000009546","stimulus-presentation","255","582970","0.0-20.0-1.20","SS1604588531250","<img src='images/simple/9.png' width ='500' height = '500' style='border:5px solid black'>","40","all_simple","images/simple/12.png","images/simple/9.png","images/simple/6.png,images/simple/4.png,images/simple/5.png,images/simple/8.png,images/simple/14.png,images/simple/18.png,images/simple/16.png","2","null","","200","611.9000000009546","","","","background","",""
"","null","html-keyboard-response","256","584036","0.0-20.0-0.21","SS1604588531250","","null","","","","","","","","","","","","<img src=images/blank.png width =""500"" height = ""500"" style=""border:5px solid black"">","","",""
"","545.2999999996973","stimulus-presentation","257","584809","0.0-20.0-1.21","SS1604588531250","<img src='images/simple/16.png' width ='500' height = '500' style='border:5px solid black'>","40","all_simple","images/simple/12.png","images/simple/9.png","images/simple/6.png,images/simple/4.png,images/simple/5.png,images/simple/8.png,images/simple/14.png,images/simple/18.png,images/simple/16.png","2","null","","200","745.2999999996973","","","","deviant","",""
"","null","html-keyboard-response","258","585731","0.0-20.0-0.22","SS1604588531250","","null","","","","","","","","","","","","<img src=images/blank.png width =""500"" height = ""500"" style=""border:5px solid black"">","","",""
"","382.9999999998836","stimulus-presentation","259","586327","0.0-20.0-1.22","SS1604588531250","<img src='images/simple/9.png' width ='500' height = '500' style='border:5px solid black'>","40","all_simple","images/simple/12.png","images/simple/9.png","images/simple/6.png,images/simple/4.png,images/simple/5.png,images/simple/8.png,images/simple/14.png,images/simple/18.png,images/simple/16.png","2","null","","200","582.9999999998836","","","","background","",""
"","null","html-keyboard-response","260","587236","0.0-20.0-0.23","SS1604588531250","","null","","","","","","","","","","","","<img src=images/blank.png width =""500"" height = ""500"" style=""border:5px solid black"">","","",""
"","1553.8999999989755","stimulus-presentation","261","589021","0.0-20.0-1.23","SS1604588531250","<img src='images/simple/12.png' width ='500' height = '500' style='border:5px solid black'>","40","all_simple","images/simple/12.png","images/simple/9.png","images/simple/6.png,images/simple/4.png,images/simple/5.png,images/simple/8.png,images/simple/14.png,images/simple/18.png,images/simple/16.png","2","null","","200","1753.8999999989755","yes","366.89999999909196","","target","",""
"","null","html-keyboard-response","262","590124","0.0-20.0-0.24","SS1604588531250","","null","","","","","","","","","","","","<img src=images/blank.png width =""500"" height = ""500"" style=""border:5px solid black"">","","",""
"","369.89999999967404","stimulus-presentation","263","590708","0.0-20.0-1.24","SS1604588531250","<img src='images/simple/9.png' width ='500' height = '500' style='border:5px solid black'>","40","all_simple","images/simple/12.png","images/simple/9.png","images/simple/6.png,images/simple/4.png,images/simple/5.png,images/simple/8.png,images/simple/14.png,images/simple/18.png,images/simple/16.png","2","null","","200","569.899999999674","","","","background","",""
"","null","html-keyboard-response","264","591624","0.0-20.0-0.25","SS1604588531250","","null","","","","","","","","","","","","<img src=images/blank.png width =""500"" height = ""500"" style=""border:5px solid black"">","","",""
"","699.3999999994412","stimulus-presentation","265","592550","0.0-20.0-1.25","SS1604588531250","<img src='images/simple/14.png' width ='500' height = '500' style='border:5px solid black'>","40","all_simple","images/simple/12.png","images/simple/9.png","images/simple/6.png,images/simple/4.png,images/simple/5.png,images/simple/8.png,images/simple/14.png,images/simple/18.png,images/simple/16.png","2","null","","200","899.3999999994412","","","","deviant","",""
"","null","html-keyboard-response","266","593745","0.0-20.0-0.26","SS1604588531250","","null","","","","","","","","","","","","<img src=images/blank.png width =""500"" height = ""500"" style=""border:5px solid black"">","","",""
"","452.30000000074506","stimulus-presentation","267","594414","0.0-20.0-1.26","SS1604588531250","<img src='images/simple/9.png' width ='500' height = '500' style='border:5px solid black'>","40","all_simple","images/simple/12.png","images/simple/9.png","images/simple/6.png,images/simple/4.png,images/simple/5.png,images/simple/8.png,images/simple/14.png,images/simple/18.png,images/simple/16.png","2","null","","200","652.3000000007451","","","","background","",""
"","null","html-keyboard-response","268","595370","0.0-20.0-0.27","SS1604588531250","","null","","","","","","","","","","","","<img src=images/blank.png width =""500"" height = ""500"" style=""border:5px solid black"">","","",""
"","365.4999999998836","stimulus-presentation","269","595950","0.0-20.0-1.27","SS1604588531250","<img src='images/simple/9.png' width ='500' height = '500' style='border:5px solid black'>","40","all_simple","images/simple/12.png","images/simple/9.png","images/simple/6.png,images/simple/4.png,images/simple/5.png,images/simple/8.png,images/simple/14.png,images/simple/18.png,images/simple/16.png","2","null","","200","565.4999999998836","","","","background","",""
"","null","html-keyboard-response","270","596826","0.0-20.0-0.28","SS1604588531250","","null","","","","","","","","","","","","<img src=images/blank.png width =""500"" height = ""500"" style=""border:5px solid black"">","","",""
"","320.70000000018626","stimulus-presentation","271","597362","0.0-20.0-1.28","SS1604588531250","<img src='images/simple/9.png' width ='500' height = '500' style='border:5px solid black'>","40","all_simple","images/simple/12.png","images/simple/9.png","images/simple/6.png,images/simple/4.png,images/simple/5.png,images/simple/8.png,images/simple/14.png,images/simple/18.png,images/simple/16.png","2","null","","200","520.7000000001863","","","","background","",""
"","null","html-keyboard-response","272","598205","0.0-20.0-0.29","SS1604588531250","","null","","","","","","","","","","","","<img src=images/blank.png width =""500"" height = ""500"" style=""border:5px solid black"">","","",""
"","99.10000000125729","stimulus-presentation","273","598525","0.0-20.0-1.29","SS1604588531250","<img src='images/simple/9.png' width ='500' height = '500' style='border:5px solid black'>","40","all_simple","images/simple/12.png","images/simple/9.png","images/simple/6.png,images/simple/4.png,images/simple/5.png,images/simple/8.png,images/simple/14.png,images/simple/18.png,images/simple/16.png","2","null","","200","299.1000000012573","","","","background","",""
"","null","html-keyboard-response","274","599728","0.0-20.0-0.30","SS1604588531250","","null","","","","","","","","","","","","<img src=images/blank.png width =""500"" height = ""500"" style=""border:5px solid black"">","","",""
"","737.6999999997206","stimulus-presentation","275","600678","0.0-20.0-1.30","SS1604588531250","<img src='images/simple/12.png' width ='500' height = '500' style='border:5px solid black'>","40","all_simple","images/simple/12.png","images/simple/9.png","images/simple/6.png,images/simple/4.png,images/simple/5.png,images/simple/8.png,images/simple/14.png,images/simple/18.png,images/simple/16.png","2","null","","200","937.6999999997206","yes","259.39999999897555","","target","",""
"","null","html-keyboard-response","276","601929","0.0-20.0-0.31","SS1604588531250","","null","","","","","","","","","","","","<img src=images/blank.png width =""500"" height = ""500"" style=""border:5px solid black"">","","",""
"","412.30000000004657","stimulus-presentation","277","602572","0.0-20.0-1.31","SS1604588531250","<img src='images/simple/9.png' width ='500' height = '500' style='border:5px solid black'>","40","all_simple","images/simple/12.png","images/simple/9.png","images/simple/6.png,images/simple/4.png,images/simple/5.png,images/simple/8.png,images/simple/14.png,images/simple/18.png,images/simple/16.png","2","null","","200","612.3000000000466","","","","background","",""
"","null","html-keyboard-response","278","603499","0.0-20.0-0.32","SS1604588531250","","null","","","","","","","","","","","","<img src=images/blank.png width =""500"" height = ""500"" style=""border:5px solid black"">","","",""
"","268","stimulus-presentation","279","603986","0.0-20.0-1.32","SS1604588531250","<img src='images/simple/8.png' width ='500' height = '500' style='border:5px solid black'>","40","all_simple","images/simple/12.png","images/simple/9.png","images/simple/6.png,images/simple/4.png,images/simple/5.png,images/simple/8.png,images/simple/14.png,images/simple/18.png,images/simple/16.png","2","null","","200","468","","","","deviant","",""
"","null","html-keyboard-response","280","605085","0.0-20.0-0.33","SS1604588531250","","null","","","","","","","","","","","","<img src=images/blank.png width =""500"" height = ""500"" style=""border:5px solid black"">","","",""
"","1009.899999999092","stimulus-presentation","281","606309","0.0-20.0-1.33","SS1604588531250","<img src='images/simple/12.png' width ='500' height = '500' style='border:5px solid black'>","40","all_simple","images/simple/12.png","images/simple/9.png","images/simple/6.png,images/simple/4.png,images/simple/5.png,images/simple/8.png,images/simple/14.png,images/simple/18.png,images/simple/16.png","2","null","","200","1209.899999999092","yes","402.09999999939464","","target","",""
"","null","html-keyboard-response","282","607547","0.0-20.0-0.34","SS1604588531250","","null","","","","","","","","","","","","<img src=images/blank.png width =""500"" height = ""500"" style=""border:5px solid black"">","","",""
"","1092.7000000011176","stimulus-presentation","283","608855","0.0-20.0-1.34","SS1604588531250","<img src='images/simple/12.png' width ='500' height = '500' style='border:5px solid black'>","40","all_simple","images/simple/12.png","images/simple/9.png","images/simple/6.png,images/simple/4.png,images/simple/5.png,images/simple/8.png,images/simple/14.png,images/simple/18.png,images/simple/16.png","2","null","","200","1292.7000000011176","yes","402.2000000005355","","target","",""
