"view_history","rt","trial_type","trial_index","time_elapsed","internal_node_id","subject","trial_stimulus","key_press","task_type","task_target_stimulus","task_background_stimulus","task_deviant_stimuli","task_order_number","block_order_number","trial_order_number","minimum_viewing_duration","trial_looking_time","trial_pressed_space_bar","trial_space_bar_rt","stimulus","trial_stimulus_type","responses","question_order"
"[{""page_index"":0,""viewing_time"":3232.354999985546}]","3234.070000005886","instructions","0","3294","0.0-0.0","SS1604513418227","","","","","","","","","","","","","","","","",""
"[{""page_index"":0,""viewing_time"":15008.314999984577},{""page_index"":1,""viewing_time"":5543.774999998277},{""page_index"":2,""viewing_time"":2888.005000015255},{""page_index"":3,""viewing_time"":4859.484999993583},{""page_index"":4,""viewing_time"":2523.8200000021607},{""page_index"":5,""viewing_time"":1601.3099999981932},{""page_index"":4,""viewing_time"":4491.940000007162},{""page_index"":5,""viewing_time"":3468.170000007376},{""page_index"":6,""viewing_time"":1771.294999984093},{""page_index"":7,""viewing_time"":3384.470000019064},{""page_index"":8,""viewing_time"":1351.7449999926612}]","46894.82499999576","instructions","1","50196","0.0-1.0","SS1604513418227","","","","","","","","","","","","","","","","",""
"[{""page_index"":0,""viewing_time"":1528.5349999903701},{""page_index"":1,""viewing_time"":10807.109999994282},{""page_index"":2,""viewing_time"":1296.6450000240002}]","13633.444999984931","instructions","2","63839","0.0-2.0","SS1604513418227","","","","","","","","","","","","","","","","",""
"","701.9199999922421","practice-block","3","64756","0.0-3.0","SS1604513418227","<img src='images/practice/practice_background.jpeg' width ='500' height = '500' style='border:5px solid black'>","40","null","images/practice/practice_target.jpg","null","null","null","null","","200","901.9199999922421","","","","","",""
"","null","html-keyboard-response","4","65737","0.0-4.0","SS1604513418227","","null","","","","","","","","","","","","<img src=images/blank.png width =""500"" height = ""500"" style=""border:5px solid black"">","","",""
"","1062.7950000052806","practice-block","5","67006","0.0-5.0","SS1604513418227","<img src='images/practice/practice_background.jpeg' width ='500' height = '500' style='border:5px solid black'>","40","null","images/practice/practice_target.jpg","null","null","null","null","","200","1262.7950000052806","","","","","",""
"","null","html-keyboard-response","6","68259","0.0-6.0","SS1604513418227","","null","","","","","","","","","","","","<img src=images/blank.png width =""500"" height = ""500"" style=""border:5px solid black"">","","",""
"","194.22500001383014","practice-block","7","68669","0.0-7.0","SS1604513418227","<img src='images/practice/practice_deviant.jpeg' width ='500' height = '500' style='border:5px solid black'>","40","null","images/practice/practice_target.jpg","null","null","null","null","","200","394.22500001383014","","","","","",""
"","null","html-keyboard-response","8","69711","0.0-8.0","SS1604513418227","","null","","","","","","","","","","","","<img src=images/blank.png width =""500"" height = ""500"" style=""border:5px solid black"">","","",""
"","3853.7950000027195","practice-block","9","73774","0.0-9.0-0.0","SS1604513418227","<img src='images/practice/practice_target.jpg' width ='500' height = '500' style='border:5px solid black'>","40","null","images/practice/practice_target.jpg","null","null","null","null","","200","4053.7950000027195","yes","206.36999999987893","","","",""
"","null","html-keyboard-response","10","74838","0.0-10.0","SS1604513418227","","null","","","","","","","","","","","","<img src=images/blank.png width =""500"" height = ""500"" style=""border:5px solid black"">","","",""
"","590.5400000046939","practice-block","11","75643","0.0-11.0","SS1604513418227","<img src='images/practice/practice_background.jpeg' width ='500' height = '500' style='border:5px solid black'>","40","null","images/practice/practice_target.jpg","null","null","null","null","","200","790.5400000046939","","","","","",""
"[{""page_index"":0,""viewing_time"":1862}]","1864","task-instructions","12","77523","0.0-12.0","SS1604513418227","","","","","","","","","","","","","","","","",""
"[{""page_index"":0,""viewing_time"":2971.1399999796413},{""page_index"":1,""viewing_time"":5058.3000000042375},{""page_index"":2,""viewing_time"":1369.6800000034273}]","9399.784999986878","instructions","13","86928","0.0-13.0","SS1604513418227","","","","","","","","","","","","","","","","",""
"","null","html-keyboard-response","14","87982","0.0-14.0-0.0","SS1604513418227","","null","","","","","","","","","","","","<img src=images/blank.png width =""500"" height = ""500"" style=""border:5px solid black"">","","",""
"","1092.4100000120234","stimulus-presentation","15","89295","0.0-14.0-1.0","SS1604513418227","<img src='images/simple/2.png' width ='500' height = '500' style='border:5px solid black'>","40","all_simple","images/simple/14.png","images/simple/8.png","images/simple/2.png,images/simple/3.png,images/simple/1.png,images/simple/5.png,images/simple/16.png,images/simple/12.png,images/simple/4.png","0","null","","200","1292.4100000120234","","","","deviant","",""
"","null","html-keyboard-response","16","90363","0.0-14.0-0.1","SS1604513418227","","null","","","","","","","","","","","","<img src=images/blank.png width =""500"" height = ""500"" style=""border:5px solid black"">","","",""
"","1077.6049999985844","stimulus-presentation","17","91652","0.0-14.0-1.1","SS1604513418227","<img src='images/simple/8.png' width ='500' height = '500' style='border:5px solid black'>","40","all_simple","images/simple/14.png","images/simple/8.png","images/simple/2.png,images/simple/3.png,images/simple/1.png,images/simple/5.png,images/simple/16.png,images/simple/12.png,images/simple/4.png","0","null","","200","1277.6049999985844","","","","background","",""
"","null","html-keyboard-response","18","92521","0.0-14.0-0.2","SS1604513418227","","null","","","","","","","","","","","","<img src=images/blank.png width =""500"" height = ""500"" style=""border:5px solid black"">","","",""
"","1008.7899999925867","stimulus-presentation","19","93744","0.0-14.0-1.2","SS1604513418227","<img src='images/simple/14.png' width ='500' height = '500' style='border:5px solid black'>","40","all_simple","images/simple/14.png","images/simple/8.png","images/simple/2.png,images/simple/3.png,images/simple/1.png,images/simple/5.png,images/simple/16.png,images/simple/12.png,images/simple/4.png","0","null","","200","1208.7899999925867","","","","target","",""
"","null","html-keyboard-response","20","95019","0.0-14.0-0.3","SS1604513418227","","null","","","","","","","","","","","","<img src=images/blank.png width =""500"" height = ""500"" style=""border:5px solid black"">","","",""
"","810.5550000036601","stimulus-presentation","21","96045","0.0-14.0-1.3","SS1604513418227","<img src='images/simple/8.png' width ='500' height = '500' style='border:5px solid black'>","40","all_simple","images/simple/14.png","images/simple/8.png","images/simple/2.png,images/simple/3.png,images/simple/1.png,images/simple/5.png,images/simple/16.png,images/simple/12.png,images/simple/4.png","0","null","","200","1010.5550000036601","","","","background","",""
"","null","html-keyboard-response","22","97184","0.0-14.0-0.4","SS1604513418227","","null","","","","","","","","","","","","<img src=images/blank.png width =""500"" height = ""500"" style=""border:5px solid black"">","","",""
"","955.1599999831524","stimulus-presentation","23","98380","0.0-14.0-1.4","SS1604513418227","<img src='images/simple/8.png' width ='500' height = '500' style='border:5px solid black'>","40","all_simple","images/simple/14.png","images/simple/8.png","images/simple/2.png,images/simple/3.png,images/simple/1.png,images/simple/5.png,images/simple/16.png,images/simple/12.png,images/simple/4.png","0","null","","200","1155.1599999831524","","","","background","",""
"","null","html-keyboard-response","24","99266","0.0-14.0-0.5","SS1604513418227","","null","","","","","","","","","","","","<img src=images/blank.png width =""500"" height = ""500"" style=""border:5px solid black"">","","",""
"","426.3700000010431","stimulus-presentation","25","99905","0.0-14.0-1.5","SS1604513418227","<img src='images/simple/14.png' width ='500' height = '500' style='border:5px solid black'>","40","all_simple","images/simple/14.png","images/simple/8.png","images/simple/2.png,images/simple/3.png,images/simple/1.png,images/simple/5.png,images/simple/16.png,images/simple/12.png,images/simple/4.png","0","null","","200","626.3700000010431","","","","target","",""
"","null","html-keyboard-response","26","100835","0.0-14.0-0.6","SS1604513418227","","null","","","","","","","","","","","","<img src=images/blank.png width =""500"" height = ""500"" style=""border:5px solid black"">","","",""
"","641.3549999997485","stimulus-presentation","27","101687","0.0-14.0-1.6","SS1604513418227","<img src='images/simple/8.png' width ='500' height = '500' style='border:5px solid black'>","40","all_simple","images/simple/14.png","images/simple/8.png","images/simple/2.png,images/simple/3.png,images/simple/1.png,images/simple/5.png,images/simple/16.png,images/simple/12.png,images/simple/4.png","0","null","","200","841.3549999997485","","","","background","",""
"","null","html-keyboard-response","28","102906","0.0-14.0-0.7","SS1604513418227","","null","","","","","","","","","","","","<img src=images/blank.png width =""500"" height = ""500"" style=""border:5px solid black"">","","",""
"","391.5749999869149","stimulus-presentation","29","103513","0.0-14.0-1.7","SS1604513418227","<img src='images/simple/8.png' width ='500' height = '500' style='border:5px solid black'>","40","all_simple","images/simple/14.png","images/simple/8.png","images/simple/2.png,images/simple/3.png,images/simple/1.png,images/simple/5.png,images/simple/16.png,images/simple/12.png,images/simple/4.png","0","null","","200","591.5749999869149","","","","background","",""
"","null","html-keyboard-response","30","104691","0.0-14.0-0.8","SS1604513418227","","null","","","","","","","","","","","","<img src=images/blank.png width =""500"" height = ""500"" style=""border:5px solid black"">","","",""
"","299.910000001546","stimulus-presentation","31","105206","0.0-14.0-1.8","SS1604513418227","<img src='images/simple/8.png' width ='500' height = '500' style='border:5px solid black'>","40","all_simple","images/simple/14.png","images/simple/8.png","images/simple/2.png,images/simple/3.png,images/simple/1.png,images/simple/5.png,images/simple/16.png,images/simple/12.png,images/simple/4.png","0","null","","200","499.910000001546","","","","background","",""
"","null","html-keyboard-response","32","106437","0.0-14.0-0.9","SS1604513418227","","null","","","","","","","","","","","","<img src=images/blank.png width =""500"" height = ""500"" style=""border:5px solid black"">","","",""
"","493.0549999990035","stimulus-presentation","33","107150","0.0-14.0-1.9","SS1604513418227","<img src='images/simple/1.png' width ='500' height = '500' style='border:5px solid black'>","40","all_simple","images/simple/14.png","images/simple/8.png","images/simple/2.png,images/simple/3.png,images/simple/1.png,images/simple/5.png,images/simple/16.png,images/simple/12.png,images/simple/4.png","0","null","","200","693.0549999990035","","","","deviant","",""
"","null","html-keyboard-response","34","108089","0.0-14.0-0.10","SS1604513418227","","null","","","","","","","","","","","","<img src=images/blank.png width =""500"" height = ""500"" style=""border:5px solid black"">","","",""
"","486.05000000679865","stimulus-presentation","35","108783","0.0-14.0-1.10","SS1604513418227","<img src='images/simple/8.png' width ='500' height = '500' style='border:5px solid black'>","40","all_simple","images/simple/14.png","images/simple/8.png","images/simple/2.png,images/simple/3.png,images/simple/1.png,images/simple/5.png,images/simple/16.png,images/simple/12.png,images/simple/4.png","0","null","","200","686.0500000067987","","","","background","",""
"","null","html-keyboard-response","36","110024","0.0-14.0-0.11","SS1604513418227","","null","","","","","","","","","","","","<img src=images/blank.png width =""500"" height = ""500"" style=""border:5px solid black"">","","",""
"","375.77000001329","stimulus-presentation","37","110610","0.0-14.0-1.11","SS1604513418227","<img src='images/simple/14.png' width ='500' height = '500' style='border:5px solid black'>","40","all_simple","images/simple/14.png","images/simple/8.png","images/simple/2.png,images/simple/3.png,images/simple/1.png,images/simple/5.png,images/simple/16.png,images/simple/12.png,images/simple/4.png","0","null","","200","575.77000001329","","","","target","",""
"","null","html-keyboard-response","38","111523","0.0-14.0-0.12","SS1604513418227","","null","","","","","","","","","","","","<img src=images/blank.png width =""500"" height = ""500"" style=""border:5px solid black"">","","",""
"","322.5700000184588","stimulus-presentation","39","112060","0.0-14.0-1.12","SS1604513418227","<img src='images/simple/8.png' width ='500' height = '500' style='border:5px solid black'>","40","all_simple","images/simple/14.png","images/simple/8.png","images/simple/2.png,images/simple/3.png,images/simple/1.png,images/simple/5.png,images/simple/16.png,images/simple/12.png,images/simple/4.png","0","null","","200","522.5700000184588","","","","background","",""
"","null","html-keyboard-response","40","113069","0.0-14.0-0.13","SS1604513418227","","null","","","","","","","","","","","","<img src=images/blank.png width =""500"" height = ""500"" style=""border:5px solid black"">","","",""
"","296.25000001396984","stimulus-presentation","41","113589","0.0-14.0-1.13","SS1604513418227","<img src='images/simple/3.png' width ='500' height = '500' style='border:5px solid black'>","40","all_simple","images/simple/14.png","images/simple/8.png","images/simple/2.png,images/simple/3.png,images/simple/1.png,images/simple/5.png,images/simple/16.png,images/simple/12.png,images/simple/4.png","0","null","","200","496.25000001396984","","","","deviant","",""
"","null","html-keyboard-response","42","114546","0.0-14.0-0.14","SS1604513418227","","null","","","","","","","","","","","","<img src=images/blank.png width =""500"" height = ""500"" style=""border:5px solid black"">","","",""
"","330.2900000126101","stimulus-presentation","43","115100","0.0-14.0-1.14","SS1604513418227","<img src='images/simple/8.png' width ='500' height = '500' style='border:5px solid black'>","40","all_simple","images/simple/14.png","images/simple/8.png","images/simple/2.png,images/simple/3.png,images/simple/1.png,images/simple/5.png,images/simple/16.png,images/simple/12.png,images/simple/4.png","0","null","","200","530.2900000126101","","","","background","",""
"","null","html-keyboard-response","44","116082","0.0-14.0-0.15","SS1604513418227","","null","","","","","","","","","","","","<img src=images/blank.png width =""500"" height = ""500"" style=""border:5px solid black"">","","",""
"","327.13999997940846","stimulus-presentation","45","116625","0.0-14.0-1.15","SS1604513418227","<img src='images/simple/8.png' width ='500' height = '500' style='border:5px solid black'>","40","all_simple","images/simple/14.png","images/simple/8.png","images/simple/2.png,images/simple/3.png,images/simple/1.png,images/simple/5.png,images/simple/16.png,images/simple/12.png,images/simple/4.png","0","null","","200","527.1399999794085","","","","background","",""
"","null","html-keyboard-response","46","117463","0.0-14.0-0.16","SS1604513418227","","null","","","","","","","","","","","","<img src=images/blank.png width =""500"" height = ""500"" style=""border:5px solid black"">","","",""
"","386.07500001671724","stimulus-presentation","47","118070","0.0-14.0-1.16","SS1604513418227","<img src='images/simple/8.png' width ='500' height = '500' style='border:5px solid black'>","40","all_simple","images/simple/14.png","images/simple/8.png","images/simple/2.png,images/simple/3.png,images/simple/1.png,images/simple/5.png,images/simple/16.png,images/simple/12.png,images/simple/4.png","0","null","","200","586.0750000167172","","","","background","",""
"","null","html-keyboard-response","48","118999","0.0-14.0-0.17","SS1604513418227","","null","","","","","","","","","","","","<img src=images/blank.png width =""500"" height = ""500"" style=""border:5px solid black"">","","",""
"","363.4199999796692","stimulus-presentation","49","119580","0.0-14.0-1.17","SS1604513418227","<img src='images/simple/5.png' width ='500' height = '500' style='border:5px solid black'>","40","all_simple","images/simple/14.png","images/simple/8.png","images/simple/2.png,images/simple/3.png,images/simple/1.png,images/simple/5.png,images/simple/16.png,images/simple/12.png,images/simple/4.png","0","null","","200","563.4199999796692","","","","deviant","",""
"","null","html-keyboard-response","50","120754","0.0-14.0-0.18","SS1604513418227","","null","","","","","","","","","","","","<img src=images/blank.png width =""500"" height = ""500"" style=""border:5px solid black"">","","",""
"","521.5100000204984","stimulus-presentation","51","121498","0.0-14.0-1.18","SS1604513418227","<img src='images/simple/8.png' width ='500' height = '500' style='border:5px solid black'>","40","all_simple","images/simple/14.png","images/simple/8.png","images/simple/2.png,images/simple/3.png,images/simple/1.png,images/simple/5.png,images/simple/16.png,images/simple/12.png,images/simple/4.png","0","null","","200","721.5100000204984","","","","background","",""
"","null","html-keyboard-response","52","122648","0.0-14.0-0.19","SS1604513418227","","null","","","","","","","","","","","","<img src=images/blank.png width =""500"" height = ""500"" style=""border:5px solid black"">","","",""
"","334.275000001071","stimulus-presentation","53","123198","0.0-14.0-1.19","SS1604513418227","<img src='images/simple/8.png' width ='500' height = '500' style='border:5px solid black'>","40","all_simple","images/simple/14.png","images/simple/8.png","images/simple/2.png,images/simple/3.png,images/simple/1.png,images/simple/5.png,images/simple/16.png,images/simple/12.png,images/simple/4.png","0","null","","200","534.275000001071","","","","background","",""
"","null","html-keyboard-response","54","124417","0.0-14.0-0.20","SS1604513418227","","null","","","","","","","","","","","","<img src=images/blank.png width =""500"" height = ""500"" style=""border:5px solid black"">","","",""
"","223.29999998328276","stimulus-presentation","55","124858","0.0-14.0-1.20","SS1604513418227","<img src='images/simple/8.png' width ='500' height = '500' style='border:5px solid black'>","40","all_simple","images/simple/14.png","images/simple/8.png","images/simple/2.png,images/simple/3.png,images/simple/1.png,images/simple/5.png,images/simple/16.png,images/simple/12.png,images/simple/4.png","0","null","","200","423.29999998328276","","","","background","",""
"","null","html-keyboard-response","56","125750","0.0-14.0-0.21","SS1604513418227","","null","","","","","","","","","","","","<img src=images/blank.png width =""500"" height = ""500"" style=""border:5px solid black"">","","",""
"","781.2949999934062","stimulus-presentation","57","126755","0.0-14.0-1.21","SS1604513418227","<img src='images/simple/8.png' width ='500' height = '500' style='border:5px solid black'>","40","all_simple","images/simple/14.png","images/simple/8.png","images/simple/2.png,images/simple/3.png,images/simple/1.png,images/simple/5.png,images/simple/16.png,images/simple/12.png,images/simple/4.png","0","null","","200","981.2949999934062","","","","background","",""
"","null","html-keyboard-response","58","127857","0.0-14.0-0.22","SS1604513418227","","null","","","","","","","","","","","","<img src=images/blank.png width =""500"" height = ""500"" style=""border:5px solid black"">","","",""
"","485.5800000077579","stimulus-presentation","59","128554","0.0-14.0-1.22","SS1604513418227","<img src='images/simple/14.png' width ='500' height = '500' style='border:5px solid black'>","40","all_simple","images/simple/14.png","images/simple/8.png","images/simple/2.png,images/simple/3.png,images/simple/1.png,images/simple/5.png,images/simple/16.png,images/simple/12.png,images/simple/4.png","0","null","","200","685.5800000077579","","","","target","",""
"","null","html-keyboard-response","60","129482","0.0-14.0-0.23","SS1604513418227","","null","","","","","","","","","","","","<img src=images/blank.png width =""500"" height = ""500"" style=""border:5px solid black"">","","",""
"","263.73000000603497","stimulus-presentation","61","129962","0.0-14.0-1.23","SS1604513418227","<img src='images/simple/8.png' width ='500' height = '500' style='border:5px solid black'>","40","all_simple","images/simple/14.png","images/simple/8.png","images/simple/2.png,images/simple/3.png,images/simple/1.png,images/simple/5.png,images/simple/16.png,images/simple/12.png,images/simple/4.png","0","null","","200","463.73000000603497","","","","background","",""
"","null","html-keyboard-response","62","130824","0.0-14.0-0.24","SS1604513418227","","null","","","","","","","","","","","","<img src=images/blank.png width =""500"" height = ""500"" style=""border:5px solid black"">","","",""
"","481.2450000026729","stimulus-presentation","63","131513","0.0-14.0-1.24","SS1604513418227","<img src='images/simple/16.png' width ='500' height = '500' style='border:5px solid black'>","40","all_simple","images/simple/14.png","images/simple/8.png","images/simple/2.png,images/simple/3.png,images/simple/1.png,images/simple/5.png,images/simple/16.png,images/simple/12.png,images/simple/4.png","0","null","","200","681.2450000026729","","","","deviant","",""
"","null","html-keyboard-response","64","132353","0.0-14.0-0.25","SS1604513418227","","null","","","","","","","","","","","","<img src=images/blank.png width =""500"" height = ""500"" style=""border:5px solid black"">","","",""
"","317.1450000081677","stimulus-presentation","65","132885","0.0-14.0-1.25","SS1604513418227","<img src='images/simple/8.png' width ='500' height = '500' style='border:5px solid black'>","40","all_simple","images/simple/14.png","images/simple/8.png","images/simple/2.png,images/simple/3.png,images/simple/1.png,images/simple/5.png,images/simple/16.png,images/simple/12.png,images/simple/4.png","0","null","","200","517.1450000081677","","","","background","",""
"","null","html-keyboard-response","66","133714","0.0-14.0-0.26","SS1604513418227","","null","","","","","","","","","","","","<img src=images/blank.png width =""500"" height = ""500"" style=""border:5px solid black"">","","",""
"","269.38500002142973","stimulus-presentation","67","134202","0.0-14.0-1.26","SS1604513418227","<img src='images/simple/8.png' width ='500' height = '500' style='border:5px solid black'>","40","all_simple","images/simple/14.png","images/simple/8.png","images/simple/2.png,images/simple/3.png,images/simple/1.png,images/simple/5.png,images/simple/16.png,images/simple/12.png,images/simple/4.png","0","null","","200","469.38500002142973","","","","background","",""
"","null","html-keyboard-response","68","135264","0.0-14.0-0.27","SS1604513418227","","null","","","","","","","","","","","","<img src=images/blank.png width =""500"" height = ""500"" style=""border:5px solid black"">","","",""
"","148.36999998078682","stimulus-presentation","69","135635","0.0-14.0-1.27","SS1604513418227","<img src='images/simple/8.png' width ='500' height = '500' style='border:5px solid black'>","40","all_simple","images/simple/14.png","images/simple/8.png","images/simple/2.png,images/simple/3.png,images/simple/1.png,images/simple/5.png,images/simple/16.png,images/simple/12.png,images/simple/4.png","0","null","","200","348.3699999807868","","","","background","",""
"","null","html-keyboard-response","70","136784","0.0-14.0-0.28","SS1604513418227","","null","","","","","","","","","","","","<img src=images/blank.png width =""500"" height = ""500"" style=""border:5px solid black"">","","",""
"","97.11000000243075","stimulus-presentation","71","137101","0.0-14.0-1.28","SS1604513418227","<img src='images/simple/8.png' width ='500' height = '500' style='border:5px solid black'>","40","all_simple","images/simple/14.png","images/simple/8.png","images/simple/2.png,images/simple/3.png,images/simple/1.png,images/simple/5.png,images/simple/16.png,images/simple/12.png,images/simple/4.png","0","null","","200","297.11000000243075","","","","background","",""
"","null","html-keyboard-response","72","138246","0.0-14.0-0.29","SS1604513418227","","null","","","","","","","","","","","","<img src=images/blank.png width =""500"" height = ""500"" style=""border:5px solid black"">","","",""
"","234.8799999745097","stimulus-presentation","73","138708","0.0-14.0-1.29","SS1604513418227","<img src='images/simple/8.png' width ='500' height = '500' style='border:5px solid black'>","40","all_simple","images/simple/14.png","images/simple/8.png","images/simple/2.png,images/simple/3.png,images/simple/1.png,images/simple/5.png,images/simple/16.png,images/simple/12.png,images/simple/4.png","0","null","","200","434.8799999745097","","","","background","",""
"","null","html-keyboard-response","74","139542","0.0-14.0-0.30","SS1604513418227","","null","","","","","","","","","","","","<img src=images/blank.png width =""500"" height = ""500"" style=""border:5px solid black"">","","",""
"","228.1749999965541","stimulus-presentation","75","139990","0.0-14.0-1.30","SS1604513418227","<img src='images/simple/8.png' width ='500' height = '500' style='border:5px solid black'>","40","all_simple","images/simple/14.png","images/simple/8.png","images/simple/2.png,images/simple/3.png,images/simple/1.png,images/simple/5.png,images/simple/16.png,images/simple/12.png,images/simple/4.png","0","null","","200","428.1749999965541","","","","background","",""
"","null","html-keyboard-response","76","141111","0.0-14.0-0.31","SS1604513418227","","null","","","","","","","","","","","","<img src=images/blank.png width =""500"" height = ""500"" style=""border:5px solid black"">","","",""
"","171.49999999674037","stimulus-presentation","77","141503","0.0-14.0-1.31","SS1604513418227","<img src='images/simple/8.png' width ='500' height = '500' style='border:5px solid black'>","40","all_simple","images/simple/14.png","images/simple/8.png","images/simple/2.png,images/simple/3.png,images/simple/1.png,images/simple/5.png,images/simple/16.png,images/simple/12.png,images/simple/4.png","0","null","","200","371.49999999674037","","","","background","",""
"","null","html-keyboard-response","78","142365","0.0-14.0-0.32","SS1604513418227","","null","","","","","","","","","","","","<img src=images/blank.png width =""500"" height = ""500"" style=""border:5px solid black"">","","",""
"","250.94499997794628","stimulus-presentation","79","142830","0.0-14.0-1.32","SS1604513418227","<img src='images/simple/8.png' width ='500' height = '500' style='border:5px solid black'>","40","all_simple","images/simple/14.png","images/simple/8.png","images/simple/2.png,images/simple/3.png,images/simple/1.png,images/simple/5.png,images/simple/16.png,images/simple/12.png,images/simple/4.png","0","null","","200","450.9449999779463","","","","background","",""
"","null","html-keyboard-response","80","143917","0.0-14.0-0.33","SS1604513418227","","null","","","","","","","","","","","","<img src=images/blank.png width =""500"" height = ""500"" style=""border:5px solid black"">","","",""
"","582.7350000035949","stimulus-presentation","81","144711","0.0-14.0-1.33","SS1604513418227","<img src='images/simple/14.png' width ='500' height = '500' style='border:5px solid black'>","40","all_simple","images/simple/14.png","images/simple/8.png","images/simple/2.png,images/simple/3.png,images/simple/1.png,images/simple/5.png,images/simple/16.png,images/simple/12.png,images/simple/4.png","0","null","","200","782.7350000035949","","","","target","",""
"","null","html-keyboard-response","82","145616","0.0-14.0-0.34","SS1604513418227","","null","","","","","","","","","","","","<img src=images/blank.png width =""500"" height = ""500"" style=""border:5px solid black"">","","",""
"","386.9750000012573","stimulus-presentation","83","146233","0.0-14.0-1.34","SS1604513418227","<img src='images/simple/12.png' width ='500' height = '500' style='border:5px solid black'>","40","all_simple","images/simple/14.png","images/simple/8.png","images/simple/2.png,images/simple/3.png,images/simple/1.png,images/simple/5.png,images/simple/16.png,images/simple/12.png,images/simple/4.png","0","null","","200","586.9750000012573","","","","deviant","",""
"","null","html-keyboard-response","84","147333","0.0-14.0-0.35","SS1604513418227","","null","","","","","","","","","","","","<img src=images/blank.png width =""500"" height = ""500"" style=""border:5px solid black"">","","",""
"","303.54500000248663","stimulus-presentation","85","147861","0.0-14.0-1.35","SS1604513418227","<img src='images/simple/8.png' width ='500' height = '500' style='border:5px solid black'>","40","all_simple","images/simple/14.png","images/simple/8.png","images/simple/2.png,images/simple/3.png,images/simple/1.png,images/simple/5.png,images/simple/16.png,images/simple/12.png,images/simple/4.png","0","null","","200","503.54500000248663","","","","background","",""
"","null","html-keyboard-response","86","149055","0.0-14.0-0.36","SS1604513418227","","null","","","","","","","","","","","","<img src=images/blank.png width =""500"" height = ""500"" style=""border:5px solid black"">","","",""
"","262.98500000848435","stimulus-presentation","87","149533","0.0-14.0-1.36","SS1604513418227","<img src='images/simple/14.png' width ='500' height = '500' style='border:5px solid black'>","40","all_simple","images/simple/14.png","images/simple/8.png","images/simple/2.png,images/simple/3.png,images/simple/1.png,images/simple/5.png,images/simple/16.png,images/simple/12.png,images/simple/4.png","0","null","","200","462.98500000848435","","","","target","",""
"","null","html-keyboard-response","88","150814","0.0-14.0-0.37","SS1604513418227","","null","","","","","","","","","","","","<img src=images/blank.png width =""500"" height = ""500"" style=""border:5px solid black"">","","",""
"","120.01499999314547","stimulus-presentation","89","151151","0.0-14.0-1.37","SS1604513418227","<img src='images/simple/8.png' width ='500' height = '500' style='border:5px solid black'>","40","all_simple","images/simple/14.png","images/simple/8.png","images/simple/2.png,images/simple/3.png,images/simple/1.png,images/simple/5.png,images/simple/16.png,images/simple/12.png,images/simple/4.png","0","null","","200","320.01499999314547","","","","background","",""
"","null","html-keyboard-response","90","152140","0.0-14.0-0.38","SS1604513418227","","null","","","","","","","","","","","","<img src=images/blank.png width =""500"" height = ""500"" style=""border:5px solid black"">","","",""
"","282.9550000024028","stimulus-presentation","91","152642","0.0-14.0-1.38","SS1604513418227","<img src='images/simple/8.png' width ='500' height = '500' style='border:5px solid black'>","40","all_simple","images/simple/14.png","images/simple/8.png","images/simple/2.png,images/simple/3.png,images/simple/1.png,images/simple/5.png,images/simple/16.png,images/simple/12.png,images/simple/4.png","0","null","","200","482.9550000024028","","","","background","",""
"","null","html-keyboard-response","92","153590","0.0-14.0-0.39","SS1604513418227","","null","","","","","","","","","","","","<img src=images/blank.png width =""500"" height = ""500"" style=""border:5px solid black"">","","",""
"","122.75000000954606","stimulus-presentation","93","153925","0.0-14.0-1.39","SS1604513418227","<img src='images/simple/8.png' width ='500' height = '500' style='border:5px solid black'>","40","all_simple","images/simple/14.png","images/simple/8.png","images/simple/2.png,images/simple/3.png,images/simple/1.png,images/simple/5.png,images/simple/16.png,images/simple/12.png,images/simple/4.png","0","null","","200","322.75000000954606","","","","background","",""
"","null","html-keyboard-response","94","155230","0.0-14.0-0.40","SS1604513418227","","null","","","","","","","","","","","","<img src=images/blank.png width =""500"" height = ""500"" style=""border:5px solid black"">","","",""
"","203.5850000102073","stimulus-presentation","95","155648","0.0-14.0-1.40","SS1604513418227","<img src='images/simple/14.png' width ='500' height = '500' style='border:5px solid black'>","40","all_simple","images/simple/14.png","images/simple/8.png","images/simple/2.png,images/simple/3.png,images/simple/1.png,images/simple/5.png,images/simple/16.png,images/simple/12.png,images/simple/4.png","0","null","","200","403.5850000102073","","","","target","",""
"","null","html-keyboard-response","96","156515","0.0-14.0-0.41","SS1604513418227","","null","","","","","","","","","","","","<img src=images/blank.png width =""500"" height = ""500"" style=""border:5px solid black"">","","",""
"","116.58999999053776","stimulus-presentation","97","156849","0.0-14.0-1.41","SS1604513418227","<img src='images/simple/8.png' width ='500' height = '500' style='border:5px solid black'>","40","all_simple","images/simple/14.png","images/simple/8.png","images/simple/2.png,images/simple/3.png,images/simple/1.png,images/simple/5.png,images/simple/16.png,images/simple/12.png,images/simple/4.png","0","null","","200","316.58999999053776","","","","background","",""
"","null","html-keyboard-response","98","157788","0.0-14.0-0.42","SS1604513418227","","null","","","","","","","","","","","","<img src=images/blank.png width =""500"" height = ""500"" style=""border:5px solid black"">","","",""
"","112.56999999750406","stimulus-presentation","99","158124","0.0-14.0-1.42","SS1604513418227","<img src='images/simple/8.png' width ='500' height = '500' style='border:5px solid black'>","40","all_simple","images/simple/14.png","images/simple/8.png","images/simple/2.png,images/simple/3.png,images/simple/1.png,images/simple/5.png,images/simple/16.png,images/simple/12.png,images/simple/4.png","0","null","","200","312.56999999750406","","","","background","",""
"","null","html-keyboard-response","100","159268","0.0-14.0-0.43","SS1604513418227","","null","","","","","","","","","","","","<img src=images/blank.png width =""500"" height = ""500"" style=""border:5px solid black"">","","",""
"","318.794999999227","stimulus-presentation","101","159803","0.0-14.0-1.43","SS1604513418227","<img src='images/simple/4.png' width ='500' height = '500' style='border:5px solid black'>","40","all_simple","images/simple/14.png","images/simple/8.png","images/simple/2.png,images/simple/3.png,images/simple/1.png,images/simple/5.png,images/simple/16.png,images/simple/12.png,images/simple/4.png","0","null","","200","518.794999999227","","","","deviant","",""
"","null","html-keyboard-response","102","160820","0.0-14.0-0.44","SS1604513418227","","null","","","","","","","","","","","","<img src=images/blank.png width =""500"" height = ""500"" style=""border:5px solid black"">","","",""
"","248.77000000560656","stimulus-presentation","103","161281","0.0-14.0-1.44","SS1604513418227","<img src='images/simple/8.png' width ='500' height = '500' style='border:5px solid black'>","40","all_simple","images/simple/14.png","images/simple/8.png","images/simple/2.png,images/simple/3.png,images/simple/1.png,images/simple/5.png,images/simple/16.png,images/simple/12.png,images/simple/4.png","0","null","","200","448.77000000560656","","","","background","",""
"","null","html-keyboard-response","104","162389","0.0-14.0-0.45","SS1604513418227","","null","","","","","","","","","","","","<img src=images/blank.png width =""500"" height = ""500"" style=""border:5px solid black"">","","",""
"","261.9849999900907","stimulus-presentation","105","162872","0.0-14.0-1.45","SS1604513418227","<img src='images/simple/8.png' width ='500' height = '500' style='border:5px solid black'>","40","all_simple","images/simple/14.png","images/simple/8.png","images/simple/2.png,images/simple/3.png,images/simple/1.png,images/simple/5.png,images/simple/16.png,images/simple/12.png,images/simple/4.png","0","null","","200","461.9849999900907","","","","background","",""
"","null","html-keyboard-response","106","163777","0.0-14.0-0.46","SS1604513418227","","null","","","","","","","","","","","","<img src=images/blank.png width =""500"" height = ""500"" style=""border:5px solid black"">","","",""
"","367.35500002396293","stimulus-presentation","107","164371","0.0-14.0-1.46","SS1604513418227","<img src='images/simple/8.png' width ='500' height = '500' style='border:5px solid black'>","40","all_simple","images/simple/14.png","images/simple/8.png","images/simple/2.png,images/simple/3.png,images/simple/1.png,images/simple/5.png,images/simple/16.png,images/simple/12.png,images/simple/4.png","0","null","","200","567.3550000239629","","","","background","",""
"","null","html-keyboard-response","108","165527","0.0-14.0-0.47","SS1604513418227","","null","","","","","","","","","","","","<img src=images/blank.png width =""500"" height = ""500"" style=""border:5px solid black"">","","",""
"","98.98000000976026","stimulus-presentation","109","165843","0.0-14.0-1.47","SS1604513418227","<img src='images/simple/8.png' width ='500' height = '500' style='border:5px solid black'>","40","all_simple","images/simple/14.png","images/simple/8.png","images/simple/2.png,images/simple/3.png,images/simple/1.png,images/simple/5.png,images/simple/16.png,images/simple/12.png,images/simple/4.png","0","null","","200","298.98000000976026","","","","background","",""
"","null","html-keyboard-response","110","166687","0.0-14.0-0.48","SS1604513418227","","null","","","","","","","","","","","","<img src=images/blank.png width =""500"" height = ""500"" style=""border:5px solid black"">","","",""
"","685.4450000100769","stimulus-presentation","111","167596","0.0-14.0-1.48","SS1604513418227","<img src='images/simple/8.png' width ='500' height = '500' style='border:5px solid black'>","40","all_simple","images/simple/14.png","images/simple/8.png","images/simple/2.png,images/simple/3.png,images/simple/1.png,images/simple/5.png,images/simple/16.png,images/simple/12.png,images/simple/4.png","0","null","","200","885.4450000100769","","","","background","",""
"[{""page_index"":0,""viewing_time"":7324}]","7325","task-instructions","112","174931","0.0-15.0","SS1604513418227","","","","","","","","","","","","","","","","",""
"[{""page_index"":0,""viewing_time"":2753.519999998389},{""page_index"":1,""viewing_time"":5720.545000018319},{""page_index"":2,""viewing_time"":1731.774999992922}]","10207.900000008522","instructions","113","185171","0.0-16.0","SS1604513418227","","","","","","","","","","","","","","","","",""
"","null","html-keyboard-response","114","186130","0.0-17.0-0.0","SS1604513418227","","null","","","","","","","","","","","","<img src=images/blank.png width =""500"" height = ""500"" style=""border:5px solid black"">","","",""
"","254.48999999207444","stimulus-presentation","115","186606","0.0-17.0-1.0","SS1604513418227","<img src='images/complex/3.png' width ='500' height = '500' style='border:5px solid black'>","40","all_complex","images/complex/2.png","images/complex/3.png","images/complex/7.png,images/complex/13.png,images/complex/5.png,images/complex/11.png,images/complex/4.png,images/complex/15.png,images/complex/9.png","1","null","","200","454.48999999207444","","","","background","",""
"","null","html-keyboard-response","116","187865","0.0-17.0-0.1","SS1604513418227","","null","","","","","","","","","","","","<img src=images/blank.png width =""500"" height = ""500"" style=""border:5px solid black"">","","",""
"","297.97499999403954","stimulus-presentation","117","188387","0.0-17.0-1.1","SS1604513418227","<img src='images/complex/3.png' width ='500' height = '500' style='border:5px solid black'>","40","all_complex","images/complex/2.png","images/complex/3.png","images/complex/7.png,images/complex/13.png,images/complex/5.png,images/complex/11.png,images/complex/4.png,images/complex/15.png,images/complex/9.png","1","null","","200","497.97499999403954","","","","background","",""
"","null","html-keyboard-response","118","189607","0.0-17.0-0.2","SS1604513418227","","null","","","","","","","","","","","","<img src=images/blank.png width =""500"" height = ""500"" style=""border:5px solid black"">","","",""
"","131.87000001198612","stimulus-presentation","119","189952","0.0-17.0-1.2","SS1604513418227","<img src='images/complex/15.png' width ='500' height = '500' style='border:5px solid black'>","40","all_complex","images/complex/2.png","images/complex/3.png","images/complex/7.png,images/complex/13.png,images/complex/5.png,images/complex/11.png,images/complex/4.png,images/complex/15.png,images/complex/9.png","1","null","","200","331.8700000119861","","","","deviant","",""
"","null","html-keyboard-response","120","190838","0.0-17.0-0.3","SS1604513418227","","null","","","","","","","","","","","","<img src=images/blank.png width =""500"" height = ""500"" style=""border:5px solid black"">","","",""
"","168.64499999792315","stimulus-presentation","121","191228","0.0-17.0-1.3","SS1604513418227","<img src='images/complex/3.png' width ='500' height = '500' style='border:5px solid black'>","40","all_complex","images/complex/2.png","images/complex/3.png","images/complex/7.png,images/complex/13.png,images/complex/5.png,images/complex/11.png,images/complex/4.png,images/complex/15.png,images/complex/9.png","1","null","","200","368.64499999792315","","","","background","",""
"","null","html-keyboard-response","122","192439","0.0-17.0-0.4","SS1604513418227","","null","","","","","","","","","","","","<img src=images/blank.png width =""500"" height = ""500"" style=""border:5px solid black"">","","",""
"","137.66999999643303","stimulus-presentation","123","192802","0.0-17.0-1.4","SS1604513418227","<img src='images/complex/3.png' width ='500' height = '500' style='border:5px solid black'>","40","all_complex","images/complex/2.png","images/complex/3.png","images/complex/7.png,images/complex/13.png,images/complex/5.png,images/complex/11.png,images/complex/4.png,images/complex/15.png,images/complex/9.png","1","null","","200","337.66999999643303","","","","background","",""
"","null","html-keyboard-response","124","193878","0.0-17.0-0.5","SS1604513418227","","null","","","","","","","","","","","","<img src=images/blank.png width =""500"" height = ""500"" style=""border:5px solid black"">","","",""
"","296.23999999603257","stimulus-presentation","125","194393","0.0-17.0-1.5","SS1604513418227","<img src='images/complex/11.png' width ='500' height = '500' style='border:5px solid black'>","40","all_complex","images/complex/2.png","images/complex/3.png","images/complex/7.png,images/complex/13.png,images/complex/5.png,images/complex/11.png,images/complex/4.png,images/complex/15.png,images/complex/9.png","1","null","","200","496.23999999603257","","","","deviant","",""
"","null","html-keyboard-response","126","195302","0.0-17.0-0.6","SS1604513418227","","null","","","","","","","","","","","","<img src=images/blank.png width =""500"" height = ""500"" style=""border:5px solid black"">","","",""
"","435.23000000277534","stimulus-presentation","127","195967","0.0-17.0-1.6","SS1604513418227","<img src='images/complex/3.png' width ='500' height = '500' style='border:5px solid black'>","40","all_complex","images/complex/2.png","images/complex/3.png","images/complex/7.png,images/complex/13.png,images/complex/5.png,images/complex/11.png,images/complex/4.png,images/complex/15.png,images/complex/9.png","1","null","","200","635.2300000027753","","","","background","",""
"","null","html-keyboard-response","128","196791","0.0-17.0-0.7","SS1604513418227","","null","","","","","","","","","","","","<img src=images/blank.png width =""500"" height = ""500"" style=""border:5px solid black"">","","",""
"","377.95999998343177","stimulus-presentation","129","197387","0.0-17.0-1.7","SS1604513418227","<img src='images/complex/3.png' width ='500' height = '500' style='border:5px solid black'>","40","all_complex","images/complex/2.png","images/complex/3.png","images/complex/7.png,images/complex/13.png,images/complex/5.png,images/complex/11.png,images/complex/4.png,images/complex/15.png,images/complex/9.png","1","null","","200","577.9599999834318","","","","background","",""
"","null","html-keyboard-response","130","198344","0.0-17.0-0.8","SS1604513418227","","null","","","","","","","","","","","","<img src=images/blank.png width =""500"" height = ""500"" style=""border:5px solid black"">","","",""
"","2748.1400000106078","stimulus-presentation","131","201323","0.0-17.0-1.8","SS1604513418227","<img src='images/complex/2.png' width ='500' height = '500' style='border:5px solid black'>","40","all_complex","images/complex/2.png","images/complex/3.png","images/complex/7.png,images/complex/13.png,images/complex/5.png,images/complex/11.png,images/complex/4.png,images/complex/15.png,images/complex/9.png","1","null","","200","2948.1400000106078","yes","1735.979999997653","","target","",""
"","null","html-keyboard-response","132","202528","0.0-17.0-0.9","SS1604513418227","","null","","","","","","","","","","","","<img src=images/blank.png width =""500"" height = ""500"" style=""border:5px solid black"">","","",""
"","212.29999998467974","stimulus-presentation","133","202969","0.0-17.0-1.9","SS1604513418227","<img src='images/complex/3.png' width ='500' height = '500' style='border:5px solid black'>","40","all_complex","images/complex/2.png","images/complex/3.png","images/complex/7.png,images/complex/13.png,images/complex/5.png,images/complex/11.png,images/complex/4.png,images/complex/15.png,images/complex/9.png","1","null","","200","412.29999998467974","","","","background","",""
"","null","html-keyboard-response","134","204160","0.0-17.0-0.10","SS1604513418227","","null","","","","","","","","","","","","<img src=images/blank.png width =""500"" height = ""500"" style=""border:5px solid black"">","","",""
"","158.4549999970477","stimulus-presentation","135","204543","0.0-17.0-1.10","SS1604513418227","<img src='images/complex/3.png' width ='500' height = '500' style='border:5px solid black'>","40","all_complex","images/complex/2.png","images/complex/3.png","images/complex/7.png,images/complex/13.png,images/complex/5.png,images/complex/11.png,images/complex/4.png,images/complex/15.png,images/complex/9.png","1","null","","200","358.4549999970477","","","","background","",""
"","null","html-keyboard-response","136","205669","0.0-17.0-0.11","SS1604513418227","","null","","","","","","","","","","","","<img src=images/blank.png width =""500"" height = ""500"" style=""border:5px solid black"">","","",""
"","516.894999978831","stimulus-presentation","137","206403","0.0-17.0-1.11","SS1604513418227","<img src='images/complex/3.png' width ='500' height = '500' style='border:5px solid black'>","40","all_complex","images/complex/2.png","images/complex/3.png","images/complex/7.png,images/complex/13.png,images/complex/5.png,images/complex/11.png,images/complex/4.png,images/complex/15.png,images/complex/9.png","1","null","","200","716.894999978831","","","","background","",""
"","null","html-keyboard-response","138","207486","0.0-17.0-0.12","SS1604513418227","","null","","","","","","","","","","","","<img src=images/blank.png width =""500"" height = ""500"" style=""border:5px solid black"">","","",""
"","795.589999994263","stimulus-presentation","139","208502","0.0-17.0-1.12","SS1604513418227","<img src='images/complex/3.png' width ='500' height = '500' style='border:5px solid black'>","40","all_complex","images/complex/2.png","images/complex/3.png","images/complex/7.png,images/complex/13.png,images/complex/5.png,images/complex/11.png,images/complex/4.png,images/complex/15.png,images/complex/9.png","1","null","","200","995.589999994263","","","","background","",""
"","null","html-keyboard-response","140","209624","0.0-17.0-0.13","SS1604513418227","","null","","","","","","","","","","","","<img src=images/blank.png width =""500"" height = ""500"" style=""border:5px solid black"">","","",""
"","573.7199999857694","stimulus-presentation","141","210419","0.0-17.0-1.13","SS1604513418227","<img src='images/complex/3.png' width ='500' height = '500' style='border:5px solid black'>","40","all_complex","images/complex/2.png","images/complex/3.png","images/complex/7.png,images/complex/13.png,images/complex/5.png,images/complex/11.png,images/complex/4.png,images/complex/15.png,images/complex/9.png","1","null","","200","773.7199999857694","","","","background","",""
"","null","html-keyboard-response","142","211400","0.0-17.0-0.14","SS1604513418227","","null","","","","","","","","","","","","<img src=images/blank.png width =""500"" height = ""500"" style=""border:5px solid black"">","","",""
"","465.4750000045169","stimulus-presentation","143","212093","0.0-17.0-1.14","SS1604513418227","<img src='images/complex/4.png' width ='500' height = '500' style='border:5px solid black'>","40","all_complex","images/complex/2.png","images/complex/3.png","images/complex/7.png,images/complex/13.png,images/complex/5.png,images/complex/11.png,images/complex/4.png,images/complex/15.png,images/complex/9.png","1","null","","200","665.4750000045169","","","","deviant","",""
"","null","html-keyboard-response","144","213230","0.0-17.0-0.15","SS1604513418227","","null","","","","","","","","","","","","<img src=images/blank.png width =""500"" height = ""500"" style=""border:5px solid black"">","","",""
"","236.3900000054855","stimulus-presentation","145","213685","0.0-17.0-1.15","SS1604513418227","<img src='images/complex/3.png' width ='500' height = '500' style='border:5px solid black'>","40","all_complex","images/complex/2.png","images/complex/3.png","images/complex/7.png,images/complex/13.png,images/complex/5.png,images/complex/11.png,images/complex/4.png,images/complex/15.png,images/complex/9.png","1","null","","200","436.3900000054855","","","","background","",""
"","null","html-keyboard-response","146","214828","0.0-17.0-0.16","SS1604513418227","","null","","","","","","","","","","","","<img src=images/blank.png width =""500"" height = ""500"" style=""border:5px solid black"">","","",""
"","399.62999999988824","stimulus-presentation","147","215442","0.0-17.0-1.16","SS1604513418227","<img src='images/complex/3.png' width ='500' height = '500' style='border:5px solid black'>","40","all_complex","images/complex/2.png","images/complex/3.png","images/complex/7.png,images/complex/13.png,images/complex/5.png,images/complex/11.png,images/complex/4.png,images/complex/15.png,images/complex/9.png","1","null","","200","599.6299999998882","","","","background","",""
"","null","html-keyboard-response","148","216307","0.0-17.0-0.17","SS1604513418227","","null","","","","","","","","","","","","<img src=images/blank.png width =""500"" height = ""500"" style=""border:5px solid black"">","","",""
"","1657.5149999989662","stimulus-presentation","149","218185","0.0-17.0-1.17","SS1604513418227","<img src='images/complex/3.png' width ='500' height = '500' style='border:5px solid black'>","40","all_complex","images/complex/2.png","images/complex/3.png","images/complex/7.png,images/complex/13.png,images/complex/5.png,images/complex/11.png,images/complex/4.png,images/complex/15.png,images/complex/9.png","1","null","","200","1857.5149999989662","","","","background","",""
"","null","html-keyboard-response","150","219075","0.0-17.0-0.18","SS1604513418227","","null","","","","","","","","","","","","<img src=images/blank.png width =""500"" height = ""500"" style=""border:5px solid black"">","","",""
"","377.2049999970477","stimulus-presentation","151","219675","0.0-17.0-1.18","SS1604513418227","<img src='images/complex/9.png' width ='500' height = '500' style='border:5px solid black'>","40","all_complex","images/complex/2.png","images/complex/3.png","images/complex/7.png,images/complex/13.png,images/complex/5.png,images/complex/11.png,images/complex/4.png,images/complex/15.png,images/complex/9.png","1","null","","200","577.2049999970477","","","","deviant","",""
"","null","html-keyboard-response","152","220665","0.0-17.0-0.19","SS1604513418227","","null","","","","","","","","","","","","<img src=images/blank.png width =""500"" height = ""500"" style=""border:5px solid black"">","","",""
"","1467.720000015106","stimulus-presentation","153","222351","0.0-17.0-1.19","SS1604513418227","<img src='images/complex/2.png' width ='500' height = '500' style='border:5px solid black'>","40","all_complex","images/complex/2.png","images/complex/3.png","images/complex/7.png,images/complex/13.png,images/complex/5.png,images/complex/11.png,images/complex/4.png,images/complex/15.png,images/complex/9.png","1","null","","200","1667.720000015106","yes","840.7099999894854","","target","",""
"","null","html-keyboard-response","154","223186","0.0-17.0-0.20","SS1604513418227","","null","","","","","","","","","","","","<img src=images/blank.png width =""500"" height = ""500"" style=""border:5px solid black"">","","",""
"","744.1749999998137","stimulus-presentation","155","224150","0.0-17.0-1.20","SS1604513418227","<img src='images/complex/3.png' width ='500' height = '500' style='border:5px solid black'>","40","all_complex","images/complex/2.png","images/complex/3.png","images/complex/7.png,images/complex/13.png,images/complex/5.png,images/complex/11.png,images/complex/4.png,images/complex/15.png,images/complex/9.png","1","null","","200","944.1749999998137","","","","background","",""
"","null","html-keyboard-response","156","225100","0.0-17.0-0.21","SS1604513418227","","null","","","","","","","","","","","","<img src=images/blank.png width =""500"" height = ""500"" style=""border:5px solid black"">","","",""
"","864.4950000161771","stimulus-presentation","157","226187","0.0-17.0-1.21","SS1604513418227","<img src='images/complex/3.png' width ='500' height = '500' style='border:5px solid black'>","40","all_complex","images/complex/2.png","images/complex/3.png","images/complex/7.png,images/complex/13.png,images/complex/5.png,images/complex/11.png,images/complex/4.png,images/complex/15.png,images/complex/9.png","1","null","","200","1064.495000016177","","","","background","",""
"","null","html-keyboard-response","158","227285","0.0-17.0-0.22","SS1604513418227","","null","","","","","","","","","","","","<img src=images/blank.png width =""500"" height = ""500"" style=""border:5px solid black"">","","",""
"","547.64500001329","stimulus-presentation","159","228046","0.0-17.0-1.22","SS1604513418227","<img src='images/complex/3.png' width ='500' height = '500' style='border:5px solid black'>","40","all_complex","images/complex/2.png","images/complex/3.png","images/complex/7.png,images/complex/13.png,images/complex/5.png,images/complex/11.png,images/complex/4.png,images/complex/15.png,images/complex/9.png","1","null","","200","747.64500001329","","","","background","",""
"","null","html-keyboard-response","160","229249","0.0-17.0-0.23","SS1604513418227","","null","","","","","","","","","","","","<img src=images/blank.png width =""500"" height = ""500"" style=""border:5px solid black"">","","",""
"","2402.1650000067893","stimulus-presentation","161","231868","0.0-17.0-1.23","SS1604513418227","<img src='images/complex/2.png' width ='500' height = '500' style='border:5px solid black'>","40","all_complex","images/complex/2.png","images/complex/3.png","images/complex/7.png,images/complex/13.png,images/complex/5.png,images/complex/11.png,images/complex/4.png,images/complex/15.png,images/complex/9.png","1","null","","200","2602.1650000067893","yes","556.27000000095","","target","",""
"","null","html-keyboard-response","162","232879","0.0-17.0-0.24","SS1604513418227","","null","","","","","","","","","","","","<img src=images/blank.png width =""500"" height = ""500"" style=""border:5px solid black"">","","",""
"","853.0349999782629","stimulus-presentation","163","233953","0.0-17.0-1.24","SS1604513418227","<img src='images/complex/7.png' width ='500' height = '500' style='border:5px solid black'>","40","all_complex","images/complex/2.png","images/complex/3.png","images/complex/7.png,images/complex/13.png,images/complex/5.png,images/complex/11.png,images/complex/4.png,images/complex/15.png,images/complex/9.png","1","null","","200","1053.034999978263","yes","92.00499998405576","","deviant","",""
"","null","html-keyboard-response","164","235158","0.0-17.0-0.25","SS1604513418227","","null","","","","","","","","","","","","<img src=images/blank.png width =""500"" height = ""500"" style=""border:5px solid black"">","","",""
"","1398.5000000102445","stimulus-presentation","165","236783","0.0-17.0-1.25","SS1604513418227","<img src='images/complex/3.png' width ='500' height = '500' style='border:5px solid black'>","40","all_complex","images/complex/2.png","images/complex/3.png","images/complex/7.png,images/complex/13.png,images/complex/5.png,images/complex/11.png,images/complex/4.png,images/complex/15.png,images/complex/9.png","1","null","","200","1598.5000000102445","","","","background","",""
"","null","html-keyboard-response","166","238090","0.0-17.0-0.26","SS1604513418227","","null","","","","","","","","","","","","<img src=images/blank.png width =""500"" height = ""500"" style=""border:5px solid black"">","","",""
"","434.7649999835994","stimulus-presentation","167","238744","0.0-17.0-1.26","SS1604513418227","<img src='images/complex/3.png' width ='500' height = '500' style='border:5px solid black'>","40","all_complex","images/complex/2.png","images/complex/3.png","images/complex/7.png,images/complex/13.png,images/complex/5.png,images/complex/11.png,images/complex/4.png,images/complex/15.png,images/complex/9.png","1","null","","200","634.7649999835994","","","","background","",""
"","null","html-keyboard-response","168","240028","0.0-17.0-0.27","SS1604513418227","","null","","","","","","","","","","","","<img src=images/blank.png width =""500"" height = ""500"" style=""border:5px solid black"">","","",""
"","385.405000008177","stimulus-presentation","169","240643","0.0-17.0-1.27","SS1604513418227","<img src='images/complex/3.png' width ='500' height = '500' style='border:5px solid black'>","40","all_complex","images/complex/2.png","images/complex/3.png","images/complex/7.png,images/complex/13.png,images/complex/5.png,images/complex/11.png,images/complex/4.png,images/complex/15.png,images/complex/9.png","1","null","","200","585.405000008177","","","","background","",""
"","null","html-keyboard-response","170","241548","0.0-17.0-0.28","SS1604513418227","","null","","","","","","","","","","","","<img src=images/blank.png width =""500"" height = ""500"" style=""border:5px solid black"">","","",""
"","480.5049999849871","stimulus-presentation","171","242243","0.0-17.0-1.28","SS1604513418227","<img src='images/complex/3.png' width ='500' height = '500' style='border:5px solid black'>","40","all_complex","images/complex/2.png","images/complex/3.png","images/complex/7.png,images/complex/13.png,images/complex/5.png,images/complex/11.png,images/complex/4.png,images/complex/15.png,images/complex/9.png","1","null","","200","680.5049999849871","","","","background","",""
"","null","html-keyboard-response","172","243262","0.0-17.0-0.29","SS1604513418227","","null","","","","","","","","","","","","<img src=images/blank.png width =""500"" height = ""500"" style=""border:5px solid black"">","","",""
"","2506.554999999935","stimulus-presentation","173","245987","0.0-17.0-1.29","SS1604513418227","<img src='images/complex/3.png' width ='500' height = '500' style='border:5px solid black'>","40","all_complex","images/complex/2.png","images/complex/3.png","images/complex/7.png,images/complex/13.png,images/complex/5.png,images/complex/11.png,images/complex/4.png,images/complex/15.png,images/complex/9.png","1","null","","200","2706.554999999935","","","","background","",""
"","null","html-keyboard-response","174","247255","0.0-17.0-0.30","SS1604513418227","","null","","","","","","","","","","","","<img src=images/blank.png width =""500"" height = ""500"" style=""border:5px solid black"">","","",""
"","1066.3599999970756","stimulus-presentation","175","248551","0.0-17.0-1.30","SS1604513418227","<img src='images/complex/3.png' width ='500' height = '500' style='border:5px solid black'>","40","all_complex","images/complex/2.png","images/complex/3.png","images/complex/7.png,images/complex/13.png,images/complex/5.png,images/complex/11.png,images/complex/4.png,images/complex/15.png,images/complex/9.png","1","null","","200","1266.3599999970756","","","","background","",""
"","null","html-keyboard-response","176","249689","0.0-17.0-0.31","SS1604513418227","","null","","","","","","","","","","","","<img src=images/blank.png width =""500"" height = ""500"" style=""border:5px solid black"">","","",""
"","3033.8750000228174","stimulus-presentation","177","252942","0.0-17.0-1.31","SS1604513418227","<img src='images/complex/2.png' width ='500' height = '500' style='border:5px solid black'>","40","all_complex","images/complex/2.png","images/complex/3.png","images/complex/7.png,images/complex/13.png,images/complex/5.png,images/complex/11.png,images/complex/4.png,images/complex/15.png,images/complex/9.png","1","null","","200","3233.8750000228174","yes","542.875000013737","","target","",""
"","null","html-keyboard-response","178","253824","0.0-17.0-0.32","SS1604513418227","","null","","","","","","","","","","","","<img src=images/blank.png width =""500"" height = ""500"" style=""border:5px solid black"">","","",""
"","825.154999998631","stimulus-presentation","179","254871","0.0-17.0-1.32","SS1604513418227","<img src='images/complex/13.png' width ='500' height = '500' style='border:5px solid black'>","40","all_complex","images/complex/2.png","images/complex/3.png","images/complex/7.png,images/complex/13.png,images/complex/5.png,images/complex/11.png,images/complex/4.png,images/complex/15.png,images/complex/9.png","1","null","","200","1025.154999998631","","","","deviant","",""
"","null","html-keyboard-response","180","256092","0.0-17.0-0.33","SS1604513418227","","null","","","","","","","","","","","","<img src=images/blank.png width =""500"" height = ""500"" style=""border:5px solid black"">","","",""
"","1055.354999989504","stimulus-presentation","181","257370","0.0-17.0-1.33","SS1604513418227","<img src='images/complex/3.png' width ='500' height = '500' style='border:5px solid black'>","40","all_complex","images/complex/2.png","images/complex/3.png","images/complex/7.png,images/complex/13.png,images/complex/5.png,images/complex/11.png,images/complex/4.png,images/complex/15.png,images/complex/9.png","1","null","","200","1255.354999989504","","","","background","",""
"","null","html-keyboard-response","182","258533","0.0-17.0-0.34","SS1604513418227","","null","","","","","","","","","","","","<img src=images/blank.png width =""500"" height = ""500"" style=""border:5px solid black"">","","",""
"","477.084999991348","stimulus-presentation","183","259232","0.0-17.0-1.34","SS1604513418227","<img src='images/complex/3.png' width ='500' height = '500' style='border:5px solid black'>","40","all_complex","images/complex/2.png","images/complex/3.png","images/complex/7.png,images/complex/13.png,images/complex/5.png,images/complex/11.png,images/complex/4.png,images/complex/15.png,images/complex/9.png","1","null","","200","677.084999991348","","","","background","",""
"","null","html-keyboard-response","184","260311","0.0-17.0-0.35","SS1604513418227","","null","","","","","","","","","","","","<img src=images/blank.png width =""500"" height = ""500"" style=""border:5px solid black"">","","",""
"","252.69500000285916","stimulus-presentation","185","260798","0.0-17.0-1.35","SS1604513418227","<img src='images/complex/3.png' width ='500' height = '500' style='border:5px solid black'>","40","all_complex","images/complex/2.png","images/complex/3.png","images/complex/7.png,images/complex/13.png,images/complex/5.png,images/complex/11.png,images/complex/4.png,images/complex/15.png,images/complex/9.png","1","null","","200","452.69500000285916","","","","background","",""
"","null","html-keyboard-response","186","261913","0.0-17.0-0.36","SS1604513418227","","null","","","","","","","","","","","","<img src=images/blank.png width =""500"" height = ""500"" style=""border:5px solid black"">","","",""
"","417.01999999349937","stimulus-presentation","187","262552","0.0-17.0-1.36","SS1604513418227","<img src='images/complex/3.png' width ='500' height = '500' style='border:5px solid black'>","40","all_complex","images/complex/2.png","images/complex/3.png","images/complex/7.png,images/complex/13.png,images/complex/5.png,images/complex/11.png,images/complex/4.png,images/complex/15.png,images/complex/9.png","1","null","","200","617.0199999934994","","","","background","",""
"","null","html-keyboard-response","188","263396","0.0-17.0-0.37","SS1604513418227","","null","","","","","","","","","","","","<img src=images/blank.png width =""500"" height = ""500"" style=""border:5px solid black"">","","",""
"","1758.8350000150967","stimulus-presentation","189","265383","0.0-17.0-1.37","SS1604513418227","<img src='images/complex/2.png' width ='500' height = '500' style='border:5px solid black'>","40","all_complex","images/complex/2.png","images/complex/3.png","images/complex/7.png,images/complex/13.png,images/complex/5.png,images/complex/11.png,images/complex/4.png,images/complex/15.png,images/complex/9.png","1","null","","200","1958.8350000150967","yes","537.3299999919254","","target","",""
"","null","html-keyboard-response","190","266636","0.0-17.0-0.38","SS1604513418227","","null","","","","","","","","","","","","<img src=images/blank.png width =""500"" height = ""500"" style=""border:5px solid black"">","","",""
"","2429.4499999959953","stimulus-presentation","191","269298","0.0-17.0-1.38","SS1604513418227","<img src='images/complex/2.png' width ='500' height = '500' style='border:5px solid black'>","40","all_complex","images/complex/2.png","images/complex/3.png","images/complex/7.png,images/complex/13.png,images/complex/5.png,images/complex/11.png,images/complex/4.png,images/complex/15.png,images/complex/9.png","1","null","","200","2629.4499999959953","yes","632.964999997057","","target","",""
"","null","html-keyboard-response","192","270548","0.0-17.0-0.39","SS1604513418227","","null","","","","","","","","","","","","<img src=images/blank.png width =""500"" height = ""500"" style=""border:5px solid black"">","","",""
"","1851.8350000085775","stimulus-presentation","193","272620","0.0-17.0-1.39","SS1604513418227","<img src='images/complex/3.png' width ='500' height = '500' style='border:5px solid black'>","40","all_complex","images/complex/2.png","images/complex/3.png","images/complex/7.png,images/complex/13.png,images/complex/5.png,images/complex/11.png,images/complex/4.png,images/complex/15.png,images/complex/9.png","1","null","","200","2051.8350000085775","","","","background","",""
"","null","html-keyboard-response","194","273548","0.0-17.0-0.40","SS1604513418227","","null","","","","","","","","","","","","<img src=images/blank.png width =""500"" height = ""500"" style=""border:5px solid black"">","","",""
"","475.33000001567416","stimulus-presentation","195","274237","0.0-17.0-1.40","SS1604513418227","<img src='images/complex/3.png' width ='500' height = '500' style='border:5px solid black'>","40","all_complex","images/complex/2.png","images/complex/3.png","images/complex/7.png,images/complex/13.png,images/complex/5.png,images/complex/11.png,images/complex/4.png,images/complex/15.png,images/complex/9.png","1","null","","200","675.3300000156742","","","","background","",""
"","null","html-keyboard-response","196","275398","0.0-17.0-0.41","SS1604513418227","","null","","","","","","","","","","","","<img src=images/blank.png width =""500"" height = ""500"" style=""border:5px solid black"">","","",""
"","191.48999999742955","stimulus-presentation","197","275813","0.0-17.0-1.41","SS1604513418227","<img src='images/complex/3.png' width ='500' height = '500' style='border:5px solid black'>","40","all_complex","images/complex/2.png","images/complex/3.png","images/complex/7.png,images/complex/13.png,images/complex/5.png,images/complex/11.png,images/complex/4.png,images/complex/15.png,images/complex/9.png","1","null","","200","391.48999999742955","","","","background","",""
"","null","html-keyboard-response","198","277014","0.0-17.0-0.42","SS1604513418227","","null","","","","","","","","","","","","<img src=images/blank.png width =""500"" height = ""500"" style=""border:5px solid black"">","","",""
"","255.2950000099372","stimulus-presentation","199","277494","0.0-17.0-1.42","SS1604513418227","<img src='images/complex/3.png' width ='500' height = '500' style='border:5px solid black'>","40","all_complex","images/complex/2.png","images/complex/3.png","images/complex/7.png,images/complex/13.png,images/complex/5.png,images/complex/11.png,images/complex/4.png,images/complex/15.png,images/complex/9.png","1","null","","200","455.2950000099372","","","","background","",""
"","null","html-keyboard-response","200","278665","0.0-17.0-0.43","SS1604513418227","","null","","","","","","","","","","","","<img src=images/blank.png width =""500"" height = ""500"" style=""border:5px solid black"">","","",""
"","268.65499999257736","stimulus-presentation","201","279157","0.0-17.0-1.43","SS1604513418227","<img src='images/complex/3.png' width ='500' height = '500' style='border:5px solid black'>","40","all_complex","images/complex/2.png","images/complex/3.png","images/complex/7.png,images/complex/13.png,images/complex/5.png,images/complex/11.png,images/complex/4.png,images/complex/15.png,images/complex/9.png","1","null","","200","468.65499999257736","","","","background","",""
"","null","html-keyboard-response","202","279988","0.0-17.0-0.44","SS1604513418227","","null","","","","","","","","","","","","<img src=images/blank.png width =""500"" height = ""500"" style=""border:5px solid black"">","","",""
"","129.86499999533407","stimulus-presentation","203","280339","0.0-17.0-1.44","SS1604513418227","<img src='images/complex/3.png' width ='500' height = '500' style='border:5px solid black'>","40","all_complex","images/complex/2.png","images/complex/3.png","images/complex/7.png,images/complex/13.png,images/complex/5.png,images/complex/11.png,images/complex/4.png,images/complex/15.png,images/complex/9.png","1","null","","200","329.8649999953341","","","","background","",""
"","null","html-keyboard-response","204","281545","0.0-17.0-0.45","SS1604513418227","","null","","","","","","","","","","","","<img src=images/blank.png width =""500"" height = ""500"" style=""border:5px solid black"">","","",""
"","723.2450000010431","stimulus-presentation","205","282486","0.0-17.0-1.45","SS1604513418227","<img src='images/complex/5.png' width ='500' height = '500' style='border:5px solid black'>","40","all_complex","images/complex/2.png","images/complex/3.png","images/complex/7.png,images/complex/13.png,images/complex/5.png,images/complex/11.png,images/complex/4.png,images/complex/15.png,images/complex/9.png","1","null","","200","923.2450000010431","","","","deviant","",""
"","null","html-keyboard-response","206","283737","0.0-17.0-0.46","SS1604513418227","","null","","","","","","","","","","","","<img src=images/blank.png width =""500"" height = ""500"" style=""border:5px solid black"">","","",""
"","365.1900000113528","stimulus-presentation","207","284350","0.0-17.0-1.46","SS1604513418227","<img src='images/complex/3.png' width ='500' height = '500' style='border:5px solid black'>","40","all_complex","images/complex/2.png","images/complex/3.png","images/complex/7.png,images/complex/13.png,images/complex/5.png,images/complex/11.png,images/complex/4.png,images/complex/15.png,images/complex/9.png","1","null","","200","565.1900000113528","","","","background","",""
"","null","html-keyboard-response","208","285440","0.0-17.0-0.47","SS1604513418227","","null","","","","","","","","","","","","<img src=images/blank.png width =""500"" height = ""500"" style=""border:5px solid black"">","","",""
"","1060.0450000201818","stimulus-presentation","209","286724","0.0-17.0-1.47","SS1604513418227","<img src='images/complex/2.png' width ='500' height = '500' style='border:5px solid black'>","40","all_complex","images/complex/2.png","images/complex/3.png","images/complex/7.png,images/complex/13.png,images/complex/5.png,images/complex/11.png,images/complex/4.png,images/complex/15.png,images/complex/9.png","1","null","","200","1260.0450000201818","yes","369.69000002136454","","target","",""
"","null","html-keyboard-response","210","287922","0.0-17.0-0.48","SS1604513418227","","null","","","","","","","","","","","","<img src=images/blank.png width =""500"" height = ""500"" style=""border:5px solid black"">","","",""
"","458.90500000678","stimulus-presentation","211","288603","0.0-17.0-1.48","SS1604513418227","<img src='images/complex/3.png' width ='500' height = '500' style='border:5px solid black'>","40","all_complex","images/complex/2.png","images/complex/3.png","images/complex/7.png,images/complex/13.png,images/complex/5.png,images/complex/11.png,images/complex/4.png,images/complex/15.png,images/complex/9.png","1","null","","200","658.90500000678","","","","background","",""
"[{""page_index"":0,""viewing_time"":1804}]","1807","task-instructions","212","290427","0.0-18.0","SS1604513418227","","","","","","","","","","","","","","","","",""
"[{""page_index"":0,""viewing_time"":1501.4899999951012},{""page_index"":1,""viewing_time"":4608.795000007376},{""page_index"":2,""viewing_time"":1439.7549999994226}]","7550.745000015013","instructions","213","298000","0.0-19.0","SS1604513418227","","","","","","","","","","","","","","","","",""
"","null","html-keyboard-response","214","299157","0.0-20.0-0.0","SS1604513418227","","null","","","","","","","","","","","","<img src=images/blank.png width =""500"" height = ""500"" style=""border:5px solid black"">","","",""
"","410.70000000763685","stimulus-presentation","215","299798","0.0-20.0-1.0","SS1604513418227","<img src='images/simple/17.png' width ='500' height = '500' style='border:5px solid black'>","40","mixed_complex_deviant","images/simple/11.png","images/simple/17.png","images/complex/6.png,images/complex/14.png,images/complex/8.png,images/complex/12.png,images/complex/17.png,images/complex/1.png,images/complex/10.png","2","null","","200","610.7000000076368","","","","background","",""
"","null","html-keyboard-response","216","301051","0.0-20.0-0.1","SS1604513418227","","null","","","","","","","","","","","","<img src=images/blank.png width =""500"" height = ""500"" style=""border:5px solid black"">","","",""
"","207.52500000526197","stimulus-presentation","217","301481","0.0-20.0-1.1","SS1604513418227","<img src='images/simple/17.png' width ='500' height = '500' style='border:5px solid black'>","40","mixed_complex_deviant","images/simple/11.png","images/simple/17.png","images/complex/6.png,images/complex/14.png,images/complex/8.png,images/complex/12.png,images/complex/17.png,images/complex/1.png,images/complex/10.png","2","null","","200","407.525000005262","","","","background","",""
"","null","html-keyboard-response","218","302327","0.0-20.0-0.2","SS1604513418227","","null","","","","","","","","","","","","<img src=images/blank.png width =""500"" height = ""500"" style=""border:5px solid black"">","","",""
"","213.64500001072884","stimulus-presentation","219","302764","0.0-20.0-1.2","SS1604513418227","<img src='images/simple/17.png' width ='500' height = '500' style='border:5px solid black'>","40","mixed_complex_deviant","images/simple/11.png","images/simple/17.png","images/complex/6.png,images/complex/14.png,images/complex/8.png,images/complex/12.png,images/complex/17.png,images/complex/1.png,images/complex/10.png","2","null","","200","413.64500001072884","","","","background","",""
"","null","html-keyboard-response","220","304058","0.0-20.0-0.3","SS1604513418227","","null","","","","","","","","","","","","<img src=images/blank.png width =""500"" height = ""500"" style=""border:5px solid black"">","","",""
"","189.46999998297542","stimulus-presentation","221","304466","0.0-20.0-1.3","SS1604513418227","<img src='images/simple/17.png' width ='500' height = '500' style='border:5px solid black'>","40","mixed_complex_deviant","images/simple/11.png","images/simple/17.png","images/complex/6.png,images/complex/14.png,images/complex/8.png,images/complex/12.png,images/complex/17.png,images/complex/1.png,images/complex/10.png","2","null","","200","389.4699999829754","","","","background","",""
"","null","html-keyboard-response","222","305468","0.0-20.0-0.4","SS1604513418227","","null","","","","","","","","","","","","<img src=images/blank.png width =""500"" height = ""500"" style=""border:5px solid black"">","","",""
"","364.9999999906868","stimulus-presentation","223","306053","0.0-20.0-1.4","SS1604513418227","<img src='images/simple/17.png' width ='500' height = '500' style='border:5px solid black'>","40","mixed_complex_deviant","images/simple/11.png","images/simple/17.png","images/complex/6.png,images/complex/14.png,images/complex/8.png,images/complex/12.png,images/complex/17.png,images/complex/1.png,images/complex/10.png","2","null","","200","564.9999999906868","","","","background","",""
"","null","html-keyboard-response","224","306912","0.0-20.0-0.5","SS1604513418227","","null","","","","","","","","","","","","<img src=images/blank.png width =""500"" height = ""500"" style=""border:5px solid black"">","","",""
"","368.87999999453314","stimulus-presentation","225","307501","0.0-20.0-1.5","SS1604513418227","<img src='images/simple/17.png' width ='500' height = '500' style='border:5px solid black'>","40","mixed_complex_deviant","images/simple/11.png","images/simple/17.png","images/complex/6.png,images/complex/14.png,images/complex/8.png,images/complex/12.png,images/complex/17.png,images/complex/1.png,images/complex/10.png","2","null","","200","568.8799999945331","","","","background","",""
"","null","html-keyboard-response","226","308687","0.0-20.0-0.6","SS1604513418227","","null","","","","","","","","","","","","<img src=images/blank.png width =""500"" height = ""500"" style=""border:5px solid black"">","","",""
"","1223.2349999831058","stimulus-presentation","227","310132","0.0-20.0-1.6","SS1604513418227","<img src='images/simple/11.png' width ='500' height = '500' style='border:5px solid black'>","40","mixed_complex_deviant","images/simple/11.png","images/simple/17.png","images/complex/6.png,images/complex/14.png,images/complex/8.png,images/complex/12.png,images/complex/17.png,images/complex/1.png,images/complex/10.png","2","null","","200","1423.2349999831058","yes","434.4799999962561","","target","",""
"","null","html-keyboard-response","228","311401","0.0-20.0-0.7","SS1604513418227","","null","","","","","","","","","","","","<img src=images/blank.png width =""500"" height = ""500"" style=""border:5px solid black"">","","",""
"","4.755000001750886","stimulus-presentation","229","311633","0.0-20.0-1.7","SS1604513418227","<img src='images/simple/17.png' width ='500' height = '500' style='border:5px solid black'>","40","mixed_complex_deviant","images/simple/11.png","images/simple/17.png","images/complex/6.png,images/complex/14.png,images/complex/8.png,images/complex/12.png,images/complex/17.png,images/complex/1.png,images/complex/10.png","2","null","","200","204.7550000017509","","","","background","",""
"","null","html-keyboard-response","230","312608","0.0-20.0-0.8","SS1604513418227","","null","","","","","","","","","","","","<img src=images/blank.png width =""500"" height = ""500"" style=""border:5px solid black"">","","",""
"","295.2950000180863","stimulus-presentation","231","313128","0.0-20.0-1.8","SS1604513418227","<img src='images/simple/17.png' width ='500' height = '500' style='border:5px solid black'>","40","mixed_complex_deviant","images/simple/11.png","images/simple/17.png","images/complex/6.png,images/complex/14.png,images/complex/8.png,images/complex/12.png,images/complex/17.png,images/complex/1.png,images/complex/10.png","2","null","","200","495.2950000180863","","","","background","",""
"","null","html-keyboard-response","232","313955","0.0-20.0-0.9","SS1604513418227","","null","","","","","","","","","","","","<img src=images/blank.png width =""500"" height = ""500"" style=""border:5px solid black"">","","",""
"","267.22499998868443","stimulus-presentation","233","314443","0.0-20.0-1.9","SS1604513418227","<img src='images/simple/17.png' width ='500' height = '500' style='border:5px solid black'>","40","mixed_complex_deviant","images/simple/11.png","images/simple/17.png","images/complex/6.png,images/complex/14.png,images/complex/8.png,images/complex/12.png,images/complex/17.png,images/complex/1.png,images/complex/10.png","2","null","","200","467.22499998868443","","","","background","",""
"","null","html-keyboard-response","234","315575","0.0-20.0-0.10","SS1604513418227","","null","","","","","","","","","","","","<img src=images/blank.png width =""500"" height = ""500"" style=""border:5px solid black"">","","",""
"","321.2249999924097","stimulus-presentation","235","316123","0.0-20.0-1.10","SS1604513418227","<img src='images/simple/17.png' width ='500' height = '500' style='border:5px solid black'>","40","mixed_complex_deviant","images/simple/11.png","images/simple/17.png","images/complex/6.png,images/complex/14.png,images/complex/8.png,images/complex/12.png,images/complex/17.png,images/complex/1.png,images/complex/10.png","2","null","","200","521.2249999924097","","","","background","",""
"","null","html-keyboard-response","236","317009","0.0-20.0-0.11","SS1604513418227","","null","","","","","","","","","","","","<img src=images/blank.png width =""500"" height = ""500"" style=""border:5px solid black"">","","",""
"","227.48000000137836","stimulus-presentation","237","317461","0.0-20.0-1.11","SS1604513418227","<img src='images/complex/1.png' width ='500' height = '500' style='border:5px solid black'>","40","mixed_complex_deviant","images/simple/11.png","images/simple/17.png","images/complex/6.png,images/complex/14.png,images/complex/8.png,images/complex/12.png,images/complex/17.png,images/complex/1.png,images/complex/10.png","2","null","","200","427.48000000137836","","","","deviant","",""
"","null","html-keyboard-response","238","318552","0.0-20.0-0.12","SS1604513418227","","null","","","","","","","","","","","","<img src=images/blank.png width =""500"" height = ""500"" style=""border:5px solid black"">","","",""
"","294.8750000214204","stimulus-presentation","239","319074","0.0-20.0-1.12","SS1604513418227","<img src='images/simple/17.png' width ='500' height = '500' style='border:5px solid black'>","40","mixed_complex_deviant","images/simple/11.png","images/simple/17.png","images/complex/6.png,images/complex/14.png,images/complex/8.png,images/complex/12.png,images/complex/17.png,images/complex/1.png,images/complex/10.png","2","null","","200","494.8750000214204","","","","background","",""
"","null","html-keyboard-response","240","319920","0.0-20.0-0.13","SS1604513418227","","null","","","","","","","","","","","","<img src=images/blank.png width =""500"" height = ""500"" style=""border:5px solid black"">","","",""
"","519.5200000016484","stimulus-presentation","241","320663","0.0-20.0-1.13","SS1604513418227","<img src='images/simple/17.png' width ='500' height = '500' style='border:5px solid black'>","40","mixed_complex_deviant","images/simple/11.png","images/simple/17.png","images/complex/6.png,images/complex/14.png,images/complex/8.png,images/complex/12.png,images/complex/17.png,images/complex/1.png,images/complex/10.png","2","null","","200","719.5200000016484","","","","background","",""
"","null","html-keyboard-response","242","321549","0.0-20.0-0.14","SS1604513418227","","null","","","","","","","","","","","","<img src=images/blank.png width =""500"" height = ""500"" style=""border:5px solid black"">","","",""
"","415.12500002863817","stimulus-presentation","243","322188","0.0-20.0-1.14","SS1604513418227","<img src='images/complex/8.png' width ='500' height = '500' style='border:5px solid black'>","40","mixed_complex_deviant","images/simple/11.png","images/simple/17.png","images/complex/6.png,images/complex/14.png,images/complex/8.png,images/complex/12.png,images/complex/17.png,images/complex/1.png,images/complex/10.png","2","null","","200","615.1250000286382","","","","deviant","",""
"","null","html-keyboard-response","244","323036","0.0-20.0-0.15","SS1604513418227","","null","","","","","","","","","","","","<img src=images/blank.png width =""500"" height = ""500"" style=""border:5px solid black"">","","",""
"","450.55500001762994","stimulus-presentation","245","323715","0.0-20.0-1.15","SS1604513418227","<img src='images/simple/17.png' width ='500' height = '500' style='border:5px solid black'>","40","mixed_complex_deviant","images/simple/11.png","images/simple/17.png","images/complex/6.png,images/complex/14.png,images/complex/8.png,images/complex/12.png,images/complex/17.png,images/complex/1.png,images/complex/10.png","2","null","","200","650.5550000176299","","","","background","",""
"","null","html-keyboard-response","246","324941","0.0-20.0-0.16","SS1604513418227","","null","","","","","","","","","","","","<img src=images/blank.png width =""500"" height = ""500"" style=""border:5px solid black"">","","",""
"","620.005000004312","stimulus-presentation","247","325797","0.0-20.0-1.16","SS1604513418227","<img src='images/simple/17.png' width ='500' height = '500' style='border:5px solid black'>","40","mixed_complex_deviant","images/simple/11.png","images/simple/17.png","images/complex/6.png,images/complex/14.png,images/complex/8.png,images/complex/12.png,images/complex/17.png,images/complex/1.png,images/complex/10.png","2","null","","200","820.005000004312","","","","background","",""
"","null","html-keyboard-response","248","327104","0.0-20.0-0.17","SS1604513418227","","null","","","","","","","","","","","","<img src=images/blank.png width =""500"" height = ""500"" style=""border:5px solid black"">","","",""
"","632.2749999817461","stimulus-presentation","249","327959","0.0-20.0-1.17","SS1604513418227","<img src='images/simple/17.png' width ='500' height = '500' style='border:5px solid black'>","40","mixed_complex_deviant","images/simple/11.png","images/simple/17.png","images/complex/6.png,images/complex/14.png,images/complex/8.png,images/complex/12.png,images/complex/17.png,images/complex/1.png,images/complex/10.png","2","null","","200","832.2749999817461","","","","background","",""
"","null","html-keyboard-response","250","328970","0.0-20.0-0.18","SS1604513418227","","null","","","","","","","","","","","","<img src=images/blank.png width =""500"" height = ""500"" style=""border:5px solid black"">","","",""
"","523.8699999754317","stimulus-presentation","251","329731","0.0-20.0-1.18","SS1604513418227","<img src='images/simple/17.png' width ='500' height = '500' style='border:5px solid black'>","40","mixed_complex_deviant","images/simple/11.png","images/simple/17.png","images/complex/6.png,images/complex/14.png,images/complex/8.png,images/complex/12.png,images/complex/17.png,images/complex/1.png,images/complex/10.png","2","null","","200","723.8699999754317","","","","background","",""
"","null","html-keyboard-response","252","330706","0.0-20.0-0.19","SS1604513418227","","null","","","","","","","","","","","","<img src=images/blank.png width =""500"" height = ""500"" style=""border:5px solid black"">","","",""
"","1148.5549999924842","stimulus-presentation","253","332071","0.0-20.0-1.19","SS1604513418227","<img src='images/simple/11.png' width ='500' height = '500' style='border:5px solid black'>","40","mixed_complex_deviant","images/simple/11.png","images/simple/17.png","images/complex/6.png,images/complex/14.png,images/complex/8.png,images/complex/12.png,images/complex/17.png,images/complex/1.png,images/complex/10.png","2","null","","200","1348.5549999924842","yes","421.4399999764282","","target","",""
"","null","html-keyboard-response","254","333134","0.0-20.0-0.20","SS1604513418227","","null","","","","","","","","","","","","<img src=images/blank.png width =""500"" height = ""500"" style=""border:5px solid black"">","","",""
"","408.915000007255","stimulus-presentation","255","333766","0.0-20.0-1.20","SS1604513418227","<img src='images/complex/14.png' width ='500' height = '500' style='border:5px solid black'>","40","mixed_complex_deviant","images/simple/11.png","images/simple/17.png","images/complex/6.png,images/complex/14.png,images/complex/8.png,images/complex/12.png,images/complex/17.png,images/complex/1.png,images/complex/10.png","2","null","","200","608.915000007255","","","","deviant","",""
"","null","html-keyboard-response","256","335075","0.0-20.0-0.21","SS1604513418227","","null","","","","","","","","","","","","<img src=images/blank.png width =""500"" height = ""500"" style=""border:5px solid black"">","","",""
"","3695.275000005495","stimulus-presentation","257","339004","0.0-20.0-1.21","SS1604513418227","<img src='images/simple/11.png' width ='500' height = '500' style='border:5px solid black'>","40","mixed_complex_deviant","images/simple/11.png","images/simple/17.png","images/complex/6.png,images/complex/14.png,images/complex/8.png,images/complex/12.png,images/complex/17.png,images/complex/1.png,images/complex/10.png","2","null","","200","3895.275000005495","yes","332.20999999321066","","target","",""
"","null","html-keyboard-response","258","339867","0.0-20.0-0.22","SS1604513418227","","null","","","","","","","","","","","","<img src=images/blank.png width =""500"" height = ""500"" style=""border:5px solid black"">","","",""
"","439.78000001516193","stimulus-presentation","259","340531","0.0-20.0-1.22","SS1604513418227","<img src='images/simple/17.png' width ='500' height = '500' style='border:5px solid black'>","40","mixed_complex_deviant","images/simple/11.png","images/simple/17.png","images/complex/6.png,images/complex/14.png,images/complex/8.png,images/complex/12.png,images/complex/17.png,images/complex/1.png,images/complex/10.png","2","null","","200","639.7800000151619","","","","background","",""
"","null","html-keyboard-response","260","341780","0.0-20.0-0.23","SS1604513418227","","null","","","","","","","","","","","","<img src=images/blank.png width =""500"" height = ""500"" style=""border:5px solid black"">","","",""
"","98.46999999717809","stimulus-presentation","261","342114","0.0-20.0-1.23","SS1604513418227","<img src='images/simple/17.png' width ='500' height = '500' style='border:5px solid black'>","40","mixed_complex_deviant","images/simple/11.png","images/simple/17.png","images/complex/6.png,images/complex/14.png,images/complex/8.png,images/complex/12.png,images/complex/17.png,images/complex/1.png,images/complex/10.png","2","null","","200","298.4699999971781","","","","background","",""
"","null","html-keyboard-response","262","343017","0.0-20.0-0.24","SS1604513418227","","null","","","","","","","","","","","","<img src=images/blank.png width =""500"" height = ""500"" style=""border:5px solid black"">","","",""
"","179.67499999213032","stimulus-presentation","263","343421","0.0-20.0-1.24","SS1604513418227","<img src='images/simple/17.png' width ='500' height = '500' style='border:5px solid black'>","40","mixed_complex_deviant","images/simple/11.png","images/simple/17.png","images/complex/6.png,images/complex/14.png,images/complex/8.png,images/complex/12.png,images/complex/17.png,images/complex/1.png,images/complex/10.png","2","null","","200","379.6749999921303","","","","background","",""
"","null","html-keyboard-response","264","344320","0.0-20.0-0.25","SS1604513418227","","null","","","","","","","","","","","","<img src=images/blank.png width =""500"" height = ""500"" style=""border:5px solid black"">","","",""
"","149.6950000000652","stimulus-presentation","265","344706","0.0-20.0-1.25","SS1604513418227","<img src='images/simple/17.png' width ='500' height = '500' style='border:5px solid black'>","40","mixed_complex_deviant","images/simple/11.png","images/simple/17.png","images/complex/6.png,images/complex/14.png,images/complex/8.png,images/complex/12.png,images/complex/17.png,images/complex/1.png,images/complex/10.png","2","null","","200","349.6950000000652","","","","background","",""
"","null","html-keyboard-response","266","345801","0.0-20.0-0.26","SS1604513418227","","null","","","","","","","","","","","","<img src=images/blank.png width =""500"" height = ""500"" style=""border:5px solid black"">","","",""
"","57.01499999850057","stimulus-presentation","267","346077","0.0-20.0-1.26","SS1604513418227","<img src='images/simple/11.png' width ='500' height = '500' style='border:5px solid black'>","40","mixed_complex_deviant","images/simple/11.png","images/simple/17.png","images/complex/6.png,images/complex/14.png,images/complex/8.png,images/complex/12.png,images/complex/17.png,images/complex/1.png,images/complex/10.png","2","null","","200","257.01499999850057","","","","target","",""
"","null","html-keyboard-response","268","346931","0.0-20.0-0.27","SS1604513418227","","null","","","","","","","","","","","","<img src=images/blank.png width =""500"" height = ""500"" style=""border:5px solid black"">","","",""
"","341.0250000015367","stimulus-presentation","269","347501","0.0-20.0-1.27","SS1604513418227","<img src='images/complex/17.png' width ='500' height = '500' style='border:5px solid black'>","40","mixed_complex_deviant","images/simple/11.png","images/simple/17.png","images/complex/6.png,images/complex/14.png,images/complex/8.png,images/complex/12.png,images/complex/17.png,images/complex/1.png,images/complex/10.png","2","null","","200","541.0250000015367","","","","deviant","",""
"","null","html-keyboard-response","270","348403","0.0-20.0-0.28","SS1604513418227","","null","","","","","","","","","","","","<img src=images/blank.png width =""500"" height = ""500"" style=""border:5px solid black"">","","",""
"","393.20999998017214","stimulus-presentation","271","349027","0.0-20.0-1.28","SS1604513418227","<img src='images/simple/17.png' width ='500' height = '500' style='border:5px solid black'>","40","mixed_complex_deviant","images/simple/11.png","images/simple/17.png","images/complex/6.png,images/complex/14.png,images/complex/8.png,images/complex/12.png,images/complex/17.png,images/complex/1.png,images/complex/10.png","2","null","","200","593.2099999801721","","","","background","",""
"","null","html-keyboard-response","272","350193","0.0-20.0-0.29","SS1604513418227","","null","","","","","","","","","","","","<img src=images/blank.png width =""500"" height = ""500"" style=""border:5px solid black"">","","",""
"","293.44499998842366","stimulus-presentation","273","350705","0.0-20.0-1.29","SS1604513418227","<img src='images/simple/17.png' width ='500' height = '500' style='border:5px solid black'>","40","mixed_complex_deviant","images/simple/11.png","images/simple/17.png","images/complex/6.png,images/complex/14.png,images/complex/8.png,images/complex/12.png,images/complex/17.png,images/complex/1.png,images/complex/10.png","2","null","","200","493.44499998842366","","","","background","",""
"","null","html-keyboard-response","274","351633","0.0-20.0-0.30","SS1604513418227","","null","","","","","","","","","","","","<img src=images/blank.png width =""500"" height = ""500"" style=""border:5px solid black"">","","",""
"","330.24499999010004","stimulus-presentation","275","352190","0.0-20.0-1.30","SS1604513418227","<img src='images/simple/17.png' width ='500' height = '500' style='border:5px solid black'>","40","mixed_complex_deviant","images/simple/11.png","images/simple/17.png","images/complex/6.png,images/complex/14.png,images/complex/8.png,images/complex/12.png,images/complex/17.png,images/complex/1.png,images/complex/10.png","2","null","","200","530.2449999901","","","","background","",""
"","null","html-keyboard-response","276","353340","0.0-20.0-0.31","SS1604513418227","","null","","","","","","","","","","","","<img src=images/blank.png width =""500"" height = ""500"" style=""border:5px solid black"">","","",""
"","430.7599999883678","stimulus-presentation","277","354007","0.0-20.0-1.31","SS1604513418227","<img src='images/simple/17.png' width ='500' height = '500' style='border:5px solid black'>","40","mixed_complex_deviant","images/simple/11.png","images/simple/17.png","images/complex/6.png,images/complex/14.png,images/complex/8.png,images/complex/12.png,images/complex/17.png,images/complex/1.png,images/complex/10.png","2","null","","200","630.7599999883678","","","","background","",""
"","null","html-keyboard-response","278","355220","0.0-20.0-0.32","SS1604513418227","","null","","","","","","","","","","","","<img src=images/blank.png width =""500"" height = ""500"" style=""border:5px solid black"">","","",""
"","346.62500000558794","stimulus-presentation","279","355795","0.0-20.0-1.32","SS1604513418227","<img src='images/complex/12.png' width ='500' height = '500' style='border:5px solid black'>","40","mixed_complex_deviant","images/simple/11.png","images/simple/17.png","images/complex/6.png,images/complex/14.png,images/complex/8.png,images/complex/12.png,images/complex/17.png,images/complex/1.png,images/complex/10.png","2","null","","200","546.6250000055879","","","","deviant","",""
"","null","html-keyboard-response","280","356853","0.0-20.0-0.33","SS1604513418227","","null","","","","","","","","","","","","<img src=images/blank.png width =""500"" height = ""500"" style=""border:5px solid black"">","","",""
"","948.0099999927916","stimulus-presentation","281","358031","0.0-20.0-1.33","SS1604513418227","<img src='images/simple/17.png' width ='500' height = '500' style='border:5px solid black'>","40","mixed_complex_deviant","images/simple/11.png","images/simple/17.png","images/complex/6.png,images/complex/14.png,images/complex/8.png,images/complex/12.png,images/complex/17.png,images/complex/1.png,images/complex/10.png","2","null","","200","1148.0099999927916","","","","background","",""
"","null","html-keyboard-response","282","359298","0.0-20.0-0.34","SS1604513418227","","null","","","","","","","","","","","","<img src=images/blank.png width =""500"" height = ""500"" style=""border:5px solid black"">","","",""
"","9.015000017825514","stimulus-presentation","283","359536","0.0-20.0-1.34","SS1604513418227","<img src='images/simple/11.png' width ='500' height = '500' style='border:5px solid black'>","40","mixed_complex_deviant","images/simple/11.png","images/simple/17.png","images/complex/6.png,images/complex/14.png,images/complex/8.png,images/complex/12.png,images/complex/17.png,images/complex/1.png,images/complex/10.png","2","null","","200","209.0150000178255","","","","target","",""
"","null","html-keyboard-response","284","360725","0.0-20.0-0.35","SS1604513418227","","null","","","","","","","","","","","","<img src=images/blank.png width =""500"" height = ""500"" style=""border:5px solid black"">","","",""
