"view_history","rt","trial_type","trial_index","time_elapsed","internal_node_id","subject","trial_stimulus","key_press","task_type","task_target_stimulus","task_background_stimulus","task_deviant_stimuli","task_order_number","block_order_number","trial_order_number","minimum_viewing_duration","trial_looking_time","trial_pressed_space_bar","trial_space_bar_rt","stimulus","trial_stimulus_type","responses","question_order"
"[{""page_index"":0,""viewing_time"":6971.950000006473}]","6972.565000003669","instructions","0","6997","0.0-0.0","SS1604609538444","","","","","","","","","","","","","","","","",""
"[{""page_index"":0,""viewing_time"":1690.999999998894},{""page_index"":1,""viewing_time"":1442.3949999982142},{""page_index"":2,""viewing_time"":17215.935000000172},{""page_index"":3,""viewing_time"":4953.509999999369},{""page_index"":4,""viewing_time"":1950.940000002447},{""page_index"":5,""viewing_time"":7005.304999998771},{""page_index"":6,""viewing_time"":2048.220000004221},{""page_index"":7,""viewing_time"":4251.474999997299},{""page_index"":8,""viewing_time"":1724.6149999991758}]","42283.66499999538","instructions","1","49283","0.0-1.0","SS1604609538444","","","","","","","","","","","","","","","","",""
"[{""page_index"":0,""viewing_time"":3351.1650000000373},{""page_index"":1,""viewing_time"":3787.225000000035},{""page_index"":2,""viewing_time"":1003.6199999958626}]","8142.2399999937625","instructions","2","57427","0.0-2.0","SS1604609538444","","","","","","","","","","","","","","","","",""
"","1211.8100000006962","practice-block","3","58842","0.0-3.0","SS1604609538444","<img src='images/practice/practice_background.jpeg' width ='500' height = '500' style='border:5px solid black'>","40","null","images/practice/practice_target.jpg","null","null","null","null","","200","1411.8100000006962","","","","","",""
"","null","html-keyboard-response","4","60047","0.0-4.0","SS1604609538444","","null","","","","","","","","","","","","<img src=images/blank.png width =""500"" height = ""500"" style=""border:5px solid black"">","","",""
"","423.34500000288244","practice-block","5","60678","0.0-5.0","SS1604609538444","<img src='images/practice/practice_background.jpeg' width ='500' height = '500' style='border:5px solid black'>","40","null","images/practice/practice_target.jpg","null","null","null","null","","200","623.3450000028824","","","","","",""
"","null","html-keyboard-response","6","61616","0.0-6.0","SS1604609538444","","null","","","","","","","","","","","","<img src=images/blank.png width =""500"" height = ""500"" style=""border:5px solid black"">","","",""
"","564.1749999995227","practice-block","7","62387","0.0-7.0","SS1604609538444","<img src='images/practice/practice_deviant.jpeg' width ='500' height = '500' style='border:5px solid black'>","40","null","images/practice/practice_target.jpg","null","null","null","null","","200","764.1749999995227","","","","","",""
"","null","html-keyboard-response","8","63358","0.0-8.0","SS1604609538444","","null","","","","","","","","","","","","<img src=images/blank.png width =""500"" height = ""500"" style=""border:5px solid black"">","","",""
"","9264.139999999315","practice-block","9","72830","0.0-9.0-0.0","SS1604609538444","<img src='images/practice/practice_target.jpg' width ='500' height = '500' style='border:5px solid black'>","40","null","images/practice/practice_target.jpg","null","null","null","null","","200","9464.139999999315","yes","286.11999999702675","","","",""
"","null","html-keyboard-response","10","74013","0.0-10.0","SS1604609538444","","null","","","","","","","","","","","","<img src=images/blank.png width =""500"" height = ""500"" style=""border:5px solid black"">","","",""
"","368.2750000007218","practice-block","11","74589","0.0-11.0","SS1604609538444","<img src='images/practice/practice_background.jpeg' width ='500' height = '500' style='border:5px solid black'>","40","null","images/practice/practice_target.jpg","null","null","null","null","","200","568.2750000007218","","","","","",""
"[{""page_index"":0,""viewing_time"":1637}]","1637","task-instructions","12","76227","0.0-12.0","SS1604609538444","","","","","","","","","","","","","","","","",""
"[{""page_index"":0,""viewing_time"":3601.505000006},{""page_index"":1,""viewing_time"":3263.309999994817},{""page_index"":2,""viewing_time"":1675.9250000031898}]","8540.95000000234","instructions","13","84770","0.0-13.0","SS1604609538444","","","","","","","","","","","","","","","","",""
"","null","html-keyboard-response","14","85573","0.0-14.0-0.0","SS1604609538444","","null","","","","","","","","","","","","<img src=images/blank.png width =""500"" height = ""500"" style=""border:5px solid black"">","","",""
"","718.5549999994691","stimulus-presentation","15","86497","0.0-14.0-1.0","SS1604609538444","<img src='images/complex/1.png' width ='500' height = '500' style='border:5px solid black'>","40","all_complex","images/complex/9.png","images/complex/3.png","images/complex/16.png,images/complex/17.png,images/complex/15.png,images/complex/5.png,images/complex/1.png,images/complex/6.png,images/complex/4.png","0","null","","200","918.5549999994691","","","","deviant","",""
"","null","html-keyboard-response","16","87567","0.0-14.0-0.1","SS1604609538444","","null","","","","","","","","","","","","<img src=images/blank.png width =""500"" height = ""500"" style=""border:5px solid black"">","","",""
"","2025.8150000008754","stimulus-presentation","17","89798","0.0-14.0-1.1","SS1604609538444","<img src='images/complex/9.png' width ='500' height = '500' style='border:5px solid black'>","40","all_complex","images/complex/9.png","images/complex/3.png","images/complex/16.png,images/complex/17.png,images/complex/15.png,images/complex/5.png,images/complex/1.png,images/complex/6.png,images/complex/4.png","0","null","","200","2225.8150000008754","yes","294.8900000046706","","target","",""
"","null","html-keyboard-response","18","90808","0.0-14.0-0.2","SS1604609538444","","null","","","","","","","","","","","","<img src=images/blank.png width =""500"" height = ""500"" style=""border:5px solid black"">","","",""
"","447.9300000020885","stimulus-presentation","19","91458","0.0-14.0-1.2","SS1604609538444","<img src='images/complex/3.png' width ='500' height = '500' style='border:5px solid black'>","40","all_complex","images/complex/9.png","images/complex/3.png","images/complex/16.png,images/complex/17.png,images/complex/15.png,images/complex/5.png,images/complex/1.png,images/complex/6.png,images/complex/4.png","0","null","","200","647.9300000020885","","","","background","",""
"","null","html-keyboard-response","20","92752","0.0-14.0-0.3","SS1604609538444","","null","","","","","","","","","","","","<img src=images/blank.png width =""500"" height = ""500"" style=""border:5px solid black"">","","",""
"","405.9049999996205","stimulus-presentation","21","93361","0.0-14.0-1.3","SS1604609538444","<img src='images/complex/3.png' width ='500' height = '500' style='border:5px solid black'>","40","all_complex","images/complex/9.png","images/complex/3.png","images/complex/16.png,images/complex/17.png,images/complex/15.png,images/complex/5.png,images/complex/1.png,images/complex/6.png,images/complex/4.png","0","null","","200","605.9049999996205","","","","background","",""
"","null","html-keyboard-response","22","94542","0.0-14.0-0.4","SS1604609538444","","null","","","","","","","","","","","","<img src=images/blank.png width =""500"" height = ""500"" style=""border:5px solid black"">","","",""
"","257.37500000104774","stimulus-presentation","23","95003","0.0-14.0-1.4","SS1604609538444","<img src='images/complex/3.png' width ='500' height = '500' style='border:5px solid black'>","40","all_complex","images/complex/9.png","images/complex/3.png","images/complex/16.png,images/complex/17.png,images/complex/15.png,images/complex/5.png,images/complex/1.png,images/complex/6.png,images/complex/4.png","0","null","","200","457.37500000104774","","","","background","",""
"","null","html-keyboard-response","24","96094","0.0-14.0-0.5","SS1604609538444","","null","","","","","","","","","","","","<img src=images/blank.png width =""500"" height = ""500"" style=""border:5px solid black"">","","",""
"","208.4499999982654","stimulus-presentation","25","96508","0.0-14.0-1.5","SS1604609538444","<img src='images/complex/3.png' width ='500' height = '500' style='border:5px solid black'>","40","all_complex","images/complex/9.png","images/complex/3.png","images/complex/16.png,images/complex/17.png,images/complex/15.png,images/complex/5.png,images/complex/1.png,images/complex/6.png,images/complex/4.png","0","null","","200","408.4499999982654","","","","background","",""
"","null","html-keyboard-response","26","97666","0.0-14.0-0.6","SS1604609538444","","null","","","","","","","","","","","","<img src=images/blank.png width =""500"" height = ""500"" style=""border:5px solid black"">","","",""
"","248.1499999994412","stimulus-presentation","27","98116","0.0-14.0-1.6","SS1604609538444","<img src='images/complex/3.png' width ='500' height = '500' style='border:5px solid black'>","40","all_complex","images/complex/9.png","images/complex/3.png","images/complex/16.png,images/complex/17.png,images/complex/15.png,images/complex/5.png,images/complex/1.png,images/complex/6.png,images/complex/4.png","0","null","","200","448.1499999994412","","","","background","",""
"","null","html-keyboard-response","28","99360","0.0-14.0-0.7","SS1604609538444","","null","","","","","","","","","","","","<img src=images/blank.png width =""500"" height = ""500"" style=""border:5px solid black"">","","",""
"","1253.0599999954575","stimulus-presentation","29","100820","0.0-14.0-1.7","SS1604609538444","<img src='images/complex/9.png' width ='500' height = '500' style='border:5px solid black'>","40","all_complex","images/complex/9.png","images/complex/3.png","images/complex/16.png,images/complex/17.png,images/complex/15.png,images/complex/5.png,images/complex/1.png,images/complex/6.png,images/complex/4.png","0","null","","200","1453.0599999954575","yes","322.970000001078","","target","",""
"","null","html-keyboard-response","30","101783","0.0-14.0-0.8","SS1604609538444","","null","","","","","","","","","","","","<img src=images/blank.png width =""500"" height = ""500"" style=""border:5px solid black"">","","",""
"","370.7499999945867","stimulus-presentation","31","102357","0.0-14.0-1.8","SS1604609538444","<img src='images/complex/4.png' width ='500' height = '500' style='border:5px solid black'>","40","all_complex","images/complex/9.png","images/complex/3.png","images/complex/16.png,images/complex/17.png,images/complex/15.png,images/complex/5.png,images/complex/1.png,images/complex/6.png,images/complex/4.png","0","null","","200","570.7499999945867","","","","deviant","",""
"","null","html-keyboard-response","32","103178","0.0-14.0-0.9","SS1604609538444","","null","","","","","","","","","","","","<img src=images/blank.png width =""500"" height = ""500"" style=""border:5px solid black"">","","",""
"","1114.7500000006403","stimulus-presentation","33","104496","0.0-14.0-1.9","SS1604609538444","<img src='images/complex/9.png' width ='500' height = '500' style='border:5px solid black'>","40","all_complex","images/complex/9.png","images/complex/3.png","images/complex/16.png,images/complex/17.png,images/complex/15.png,images/complex/5.png,images/complex/1.png,images/complex/6.png,images/complex/4.png","0","null","","200","1314.7500000006403","yes","374.7349999975995","","target","",""
"","null","html-keyboard-response","34","105644","0.0-14.0-0.10","SS1604609538444","","null","","","","","","","","","","","","<img src=images/blank.png width =""500"" height = ""500"" style=""border:5px solid black"">","","",""
"","258.92000000021653","stimulus-presentation","35","106107","0.0-14.0-1.10","SS1604609538444","<img src='images/complex/3.png' width ='500' height = '500' style='border:5px solid black'>","40","all_complex","images/complex/9.png","images/complex/3.png","images/complex/16.png,images/complex/17.png,images/complex/15.png,images/complex/5.png,images/complex/1.png,images/complex/6.png,images/complex/4.png","0","null","","200","458.92000000021653","","","","background","",""
"","null","html-keyboard-response","36","107030","0.0-14.0-0.11","SS1604609538444","","null","","","","","","","","","","","","<img src=images/blank.png width =""500"" height = ""500"" style=""border:5px solid black"">","","",""
"","218.03000000363681","stimulus-presentation","37","107456","0.0-14.0-1.11","SS1604609538444","<img src='images/complex/3.png' width ='500' height = '500' style='border:5px solid black'>","40","all_complex","images/complex/9.png","images/complex/3.png","images/complex/16.png,images/complex/17.png,images/complex/15.png,images/complex/5.png,images/complex/1.png,images/complex/6.png,images/complex/4.png","0","null","","200","418.0300000036368","","","","background","",""
"","null","html-keyboard-response","38","108600","0.0-14.0-0.12","SS1604609538444","","null","","","","","","","","","","","","<img src=images/blank.png width =""500"" height = ""500"" style=""border:5px solid black"">","","",""
"","949.9149999974179","stimulus-presentation","39","109757","0.0-14.0-1.12","SS1604609538444","<img src='images/complex/9.png' width ='500' height = '500' style='border:5px solid black'>","40","all_complex","images/complex/9.png","images/complex/3.png","images/complex/16.png,images/complex/17.png,images/complex/15.png,images/complex/5.png,images/complex/1.png,images/complex/6.png,images/complex/4.png","0","null","","200","1149.914999997418","yes","373.78000000171596","","target","",""
"","null","html-keyboard-response","40","110913","0.0-14.0-0.13","SS1604609538444","","null","","","","","","","","","","","","<img src=images/blank.png width =""500"" height = ""500"" style=""border:5px solid black"">","","",""
"","353.0400000017835","stimulus-presentation","41","111468","0.0-14.0-1.13","SS1604609538444","<img src='images/complex/15.png' width ='500' height = '500' style='border:5px solid black'>","40","all_complex","images/complex/9.png","images/complex/3.png","images/complex/16.png,images/complex/17.png,images/complex/15.png,images/complex/5.png,images/complex/1.png,images/complex/6.png,images/complex/4.png","0","null","","200","553.0400000017835","","","","deviant","",""
"","null","html-keyboard-response","42","112663","0.0-14.0-0.14","SS1604609538444","","null","","","","","","","","","","","","<img src=images/blank.png width =""500"" height = ""500"" style=""border:5px solid black"">","","",""
"","338.1599999993341","stimulus-presentation","43","113205","0.0-14.0-1.14","SS1604609538444","<img src='images/complex/3.png' width ='500' height = '500' style='border:5px solid black'>","40","all_complex","images/complex/9.png","images/complex/3.png","images/complex/16.png,images/complex/17.png,images/complex/15.png,images/complex/5.png,images/complex/1.png,images/complex/6.png,images/complex/4.png","0","null","","200","538.1599999993341","","","","background","",""
"","null","html-keyboard-response","44","114152","0.0-14.0-0.15","SS1604609538444","","null","","","","","","","","","","","","<img src=images/blank.png width =""500"" height = ""500"" style=""border:5px solid black"">","","",""
"","264.8399999961839","stimulus-presentation","45","114625","0.0-14.0-1.15","SS1604609538444","<img src='images/complex/3.png' width ='500' height = '500' style='border:5px solid black'>","40","all_complex","images/complex/9.png","images/complex/3.png","images/complex/16.png,images/complex/17.png,images/complex/15.png,images/complex/5.png,images/complex/1.png,images/complex/6.png,images/complex/4.png","0","null","","200","464.8399999961839","","","","background","",""
"","null","html-keyboard-response","46","115531","0.0-14.0-0.16","SS1604609538444","","null","","","","","","","","","","","","<img src=images/blank.png width =""500"" height = ""500"" style=""border:5px solid black"">","","",""
"","200.94499999686377","stimulus-presentation","47","115935","0.0-14.0-1.16","SS1604609538444","<img src='images/complex/3.png' width ='500' height = '500' style='border:5px solid black'>","40","all_complex","images/complex/9.png","images/complex/3.png","images/complex/16.png,images/complex/17.png,images/complex/15.png,images/complex/5.png,images/complex/1.png,images/complex/6.png,images/complex/4.png","0","null","","200","400.94499999686377","","","","background","",""
"","null","html-keyboard-response","48","116962","0.0-14.0-0.17","SS1604609538444","","null","","","","","","","","","","","","<img src=images/blank.png width =""500"" height = ""500"" style=""border:5px solid black"">","","",""
"","1053.395000002638","stimulus-presentation","49","118218","0.0-14.0-1.17","SS1604609538444","<img src='images/complex/9.png' width ='500' height = '500' style='border:5px solid black'>","40","all_complex","images/complex/9.png","images/complex/3.png","images/complex/16.png,images/complex/17.png,images/complex/15.png,images/complex/5.png,images/complex/1.png,images/complex/6.png,images/complex/4.png","0","null","","200","1253.395000002638","yes","296.3900000031572","","target","",""
"","null","html-keyboard-response","50","119188","0.0-14.0-0.18","SS1604609538444","","null","","","","","","","","","","","","<img src=images/blank.png width =""500"" height = ""500"" style=""border:5px solid black"">","","",""
"","320.17500000074506","stimulus-presentation","51","119716","0.0-14.0-1.18","SS1604609538444","<img src='images/complex/3.png' width ='500' height = '500' style='border:5px solid black'>","40","all_complex","images/complex/9.png","images/complex/3.png","images/complex/16.png,images/complex/17.png,images/complex/15.png,images/complex/5.png,images/complex/1.png,images/complex/6.png,images/complex/4.png","0","null","","200","520.1750000007451","","","","background","",""
"","null","html-keyboard-response","52","120754","0.0-14.0-0.19","SS1604609538444","","null","","","","","","","","","","","","<img src=images/blank.png width =""500"" height = ""500"" style=""border:5px solid black"">","","",""
"","266.88499999727355","stimulus-presentation","53","121224","0.0-14.0-1.19","SS1604609538444","<img src='images/complex/3.png' width ='500' height = '500' style='border:5px solid black'>","40","all_complex","images/complex/9.png","images/complex/3.png","images/complex/16.png,images/complex/17.png,images/complex/15.png,images/complex/5.png,images/complex/1.png,images/complex/6.png,images/complex/4.png","0","null","","200","466.88499999727355","","","","background","",""
"","null","html-keyboard-response","54","122303","0.0-14.0-0.20","SS1604609538444","","null","","","","","","","","","","","","<img src=images/blank.png width =""500"" height = ""500"" style=""border:5px solid black"">","","",""
"","296.58999999810476","stimulus-presentation","55","122808","0.0-14.0-1.20","SS1604609538444","<img src='images/complex/6.png' width ='500' height = '500' style='border:5px solid black'>","40","all_complex","images/complex/9.png","images/complex/3.png","images/complex/16.png,images/complex/17.png,images/complex/15.png,images/complex/5.png,images/complex/1.png,images/complex/6.png,images/complex/4.png","0","null","","200","496.58999999810476","","","","deviant","",""
"","null","html-keyboard-response","56","123711","0.0-14.0-0.21","SS1604609538444","","null","","","","","","","","","","","","<img src=images/blank.png width =""500"" height = ""500"" style=""border:5px solid black"">","","",""
"","285.50999999424675","stimulus-presentation","57","124199","0.0-14.0-1.21","SS1604609538444","<img src='images/complex/3.png' width ='500' height = '500' style='border:5px solid black'>","40","all_complex","images/complex/9.png","images/complex/3.png","images/complex/16.png,images/complex/17.png,images/complex/15.png,images/complex/5.png,images/complex/1.png,images/complex/6.png,images/complex/4.png","0","null","","200","485.50999999424675","","","","background","",""
"","null","html-keyboard-response","58","125213","0.0-14.0-0.22","SS1604609538444","","null","","","","","","","","","","","","<img src=images/blank.png width =""500"" height = ""500"" style=""border:5px solid black"">","","",""
"","203.15999999729684","stimulus-presentation","59","125624","0.0-14.0-1.22","SS1604609538444","<img src='images/complex/3.png' width ='500' height = '500' style='border:5px solid black'>","40","all_complex","images/complex/9.png","images/complex/3.png","images/complex/16.png,images/complex/17.png,images/complex/15.png,images/complex/5.png,images/complex/1.png,images/complex/6.png,images/complex/4.png","0","null","","200","403.15999999729684","","","","background","",""
"","null","html-keyboard-response","60","126905","0.0-14.0-0.23","SS1604609538444","","null","","","","","","","","","","","","<img src=images/blank.png width =""500"" height = ""500"" style=""border:5px solid black"">","","",""
"","254.58500000240747","stimulus-presentation","61","127365","0.0-14.0-1.23","SS1604609538444","<img src='images/complex/3.png' width ='500' height = '500' style='border:5px solid black'>","40","all_complex","images/complex/9.png","images/complex/3.png","images/complex/16.png,images/complex/17.png,images/complex/15.png,images/complex/5.png,images/complex/1.png,images/complex/6.png,images/complex/4.png","0","null","","200","454.58500000240747","","","","background","",""
"","null","html-keyboard-response","62","128569","0.0-14.0-0.24","SS1604609538444","","null","","","","","","","","","","","","<img src=images/blank.png width =""500"" height = ""500"" style=""border:5px solid black"">","","",""
"","272.7299999969546","stimulus-presentation","63","129044","0.0-14.0-1.24","SS1604609538444","<img src='images/complex/3.png' width ='500' height = '500' style='border:5px solid black'>","40","all_complex","images/complex/9.png","images/complex/3.png","images/complex/16.png,images/complex/17.png,images/complex/15.png,images/complex/5.png,images/complex/1.png,images/complex/6.png,images/complex/4.png","0","null","","200","472.7299999969546","","","","background","",""
"","null","html-keyboard-response","64","129982","0.0-14.0-0.25","SS1604609538444","","null","","","","","","","","","","","","<img src=images/blank.png width =""500"" height = ""500"" style=""border:5px solid black"">","","",""
"","205.9399999998277","stimulus-presentation","65","130391","0.0-14.0-1.25","SS1604609538444","<img src='images/complex/3.png' width ='500' height = '500' style='border:5px solid black'>","40","all_complex","images/complex/9.png","images/complex/3.png","images/complex/16.png,images/complex/17.png,images/complex/15.png,images/complex/5.png,images/complex/1.png,images/complex/6.png,images/complex/4.png","0","null","","200","405.9399999998277","","","","background","",""
"","null","html-keyboard-response","66","131643","0.0-14.0-0.26","SS1604609538444","","null","","","","","","","","","","","","<img src=images/blank.png width =""500"" height = ""500"" style=""border:5px solid black"">","","",""
"","158.75500000402099","stimulus-presentation","67","132009","0.0-14.0-1.26","SS1604609538444","<img src='images/complex/3.png' width ='500' height = '500' style='border:5px solid black'>","40","all_complex","images/complex/9.png","images/complex/3.png","images/complex/16.png,images/complex/17.png,images/complex/15.png,images/complex/5.png,images/complex/1.png,images/complex/6.png,images/complex/4.png","0","null","","200","358.755000004021","","","","background","",""
"","null","html-keyboard-response","68","133158","0.0-14.0-0.27","SS1604609538444","","null","","","","","","","","","","","","<img src=images/blank.png width =""500"" height = ""500"" style=""border:5px solid black"">","","",""
"","156.57500000088476","stimulus-presentation","69","133524","0.0-14.0-1.27","SS1604609538444","<img src='images/complex/3.png' width ='500' height = '500' style='border:5px solid black'>","40","all_complex","images/complex/9.png","images/complex/3.png","images/complex/16.png,images/complex/17.png,images/complex/15.png,images/complex/5.png,images/complex/1.png,images/complex/6.png,images/complex/4.png","0","null","","200","356.57500000088476","","","","background","",""
"","null","html-keyboard-response","70","134610","0.0-14.0-0.28","SS1604609538444","","null","","","","","","","","","","","","<img src=images/blank.png width =""500"" height = ""500"" style=""border:5px solid black"">","","",""
"","140.8450000017183","stimulus-presentation","71","134958","0.0-14.0-1.28","SS1604609538444","<img src='images/complex/3.png' width ='500' height = '500' style='border:5px solid black'>","40","all_complex","images/complex/9.png","images/complex/3.png","images/complex/16.png,images/complex/17.png,images/complex/15.png,images/complex/5.png,images/complex/1.png,images/complex/6.png,images/complex/4.png","0","null","","200","340.8450000017183","","","","background","",""
"","null","html-keyboard-response","72","136245","0.0-14.0-0.29","SS1604609538444","","null","","","","","","","","","","","","<img src=images/blank.png width =""500"" height = ""500"" style=""border:5px solid black"">","","",""
"","148.75000000029104","stimulus-presentation","73","136596","0.0-14.0-1.29","SS1604609538444","<img src='images/complex/3.png' width ='500' height = '500' style='border:5px solid black'>","40","all_complex","images/complex/9.png","images/complex/3.png","images/complex/16.png,images/complex/17.png,images/complex/15.png,images/complex/5.png,images/complex/1.png,images/complex/6.png,images/complex/4.png","0","null","","200","348.75000000029104","","","","background","",""
"","null","html-keyboard-response","74","137710","0.0-14.0-0.30","SS1604609538444","","null","","","","","","","","","","","","<img src=images/blank.png width =""500"" height = ""500"" style=""border:5px solid black"">","","",""
"","134.9499999996624","stimulus-presentation","75","138053","0.0-14.0-1.30","SS1604609538444","<img src='images/complex/3.png' width ='500' height = '500' style='border:5px solid black'>","40","all_complex","images/complex/9.png","images/complex/3.png","images/complex/16.png,images/complex/17.png,images/complex/15.png,images/complex/5.png,images/complex/1.png,images/complex/6.png,images/complex/4.png","0","null","","200","334.9499999996624","","","","background","",""
"","null","html-keyboard-response","76","139143","0.0-14.0-0.31","SS1604609538444","","null","","","","","","","","","","","","<img src=images/blank.png width =""500"" height = ""500"" style=""border:5px solid black"">","","",""
"","336.4000000001397","stimulus-presentation","77","139683","0.0-14.0-1.31","SS1604609538444","<img src='images/complex/16.png' width ='500' height = '500' style='border:5px solid black'>","40","all_complex","images/complex/9.png","images/complex/3.png","images/complex/16.png,images/complex/17.png,images/complex/15.png,images/complex/5.png,images/complex/1.png,images/complex/6.png,images/complex/4.png","0","null","","200","536.4000000001397","","","","deviant","",""
"","null","html-keyboard-response","78","140927","0.0-14.0-0.32","SS1604609538444","","null","","","","","","","","","","","","<img src=images/blank.png width =""500"" height = ""500"" style=""border:5px solid black"">","","",""
"","396.469999999681","stimulus-presentation","79","141526","0.0-14.0-1.32","SS1604609538444","<img src='images/complex/3.png' width ='500' height = '500' style='border:5px solid black'>","40","all_complex","images/complex/9.png","images/complex/3.png","images/complex/16.png,images/complex/17.png,images/complex/15.png,images/complex/5.png,images/complex/1.png,images/complex/6.png,images/complex/4.png","0","null","","200","596.469999999681","","","","background","",""
"","null","html-keyboard-response","80","142737","0.0-14.0-0.33","SS1604609538444","","null","","","","","","","","","","","","<img src=images/blank.png width =""500"" height = ""500"" style=""border:5px solid black"">","","",""
"","393.355000000156","stimulus-presentation","81","143338","0.0-14.0-1.33","SS1604609538444","<img src='images/complex/3.png' width ='500' height = '500' style='border:5px solid black'>","40","all_complex","images/complex/9.png","images/complex/3.png","images/complex/16.png,images/complex/17.png,images/complex/15.png,images/complex/5.png,images/complex/1.png,images/complex/6.png,images/complex/4.png","0","null","","200","593.355000000156","","","","background","",""
"","null","html-keyboard-response","82","144624","0.0-14.0-0.34","SS1604609538444","","null","","","","","","","","","","","","<img src=images/blank.png width =""500"" height = ""500"" style=""border:5px solid black"">","","",""
"","204.81000000290805","stimulus-presentation","83","145035","0.0-14.0-1.34","SS1604609538444","<img src='images/complex/3.png' width ='500' height = '500' style='border:5px solid black'>","40","all_complex","images/complex/9.png","images/complex/3.png","images/complex/16.png,images/complex/17.png,images/complex/15.png,images/complex/5.png,images/complex/1.png,images/complex/6.png,images/complex/4.png","0","null","","200","404.81000000290805","","","","background","",""
"","null","html-keyboard-response","84","146122","0.0-14.0-0.35","SS1604609538444","","null","","","","","","","","","","","","<img src=images/blank.png width =""500"" height = ""500"" style=""border:5px solid black"">","","",""
"","1500.3599999981816","stimulus-presentation","85","147830","0.0-14.0-1.35","SS1604609538444","<img src='images/complex/9.png' width ='500' height = '500' style='border:5px solid black'>","40","all_complex","images/complex/9.png","images/complex/3.png","images/complex/16.png,images/complex/17.png,images/complex/15.png,images/complex/5.png,images/complex/1.png,images/complex/6.png,images/complex/4.png","0","null","","200","1700.3599999981816","yes","557.1249999993597","","target","",""
"","null","html-keyboard-response","86","149042","0.0-14.0-0.36","SS1604609538444","","null","","","","","","","","","","","","<img src=images/blank.png width =""500"" height = ""500"" style=""border:5px solid black"">","","",""
"","246.55499999789754","stimulus-presentation","87","149496","0.0-14.0-1.36","SS1604609538444","<img src='images/complex/3.png' width ='500' height = '500' style='border:5px solid black'>","40","all_complex","images/complex/9.png","images/complex/3.png","images/complex/16.png,images/complex/17.png,images/complex/15.png,images/complex/5.png,images/complex/1.png,images/complex/6.png,images/complex/4.png","0","null","","200","446.55499999789754","","","","background","",""
"","null","html-keyboard-response","88","150452","0.0-14.0-0.37","SS1604609538444","","null","","","","","","","","","","","","<img src=images/blank.png width =""500"" height = ""500"" style=""border:5px solid black"">","","",""
"","375.52499999583233","stimulus-presentation","89","151035","0.0-14.0-1.37","SS1604609538444","<img src='images/complex/17.png' width ='500' height = '500' style='border:5px solid black'>","40","all_complex","images/complex/9.png","images/complex/3.png","images/complex/16.png,images/complex/17.png,images/complex/15.png,images/complex/5.png,images/complex/1.png,images/complex/6.png,images/complex/4.png","0","null","","200","575.5249999958323","","","","deviant","",""
"","null","html-keyboard-response","90","152275","0.0-14.0-0.38","SS1604609538444","","null","","","","","","","","","","","","<img src=images/blank.png width =""500"" height = ""500"" style=""border:5px solid black"">","","",""
"","284.83499999856576","stimulus-presentation","91","152765","0.0-14.0-1.38","SS1604609538444","<img src='images/complex/3.png' width ='500' height = '500' style='border:5px solid black'>","40","all_complex","images/complex/9.png","images/complex/3.png","images/complex/16.png,images/complex/17.png,images/complex/15.png,images/complex/5.png,images/complex/1.png,images/complex/6.png,images/complex/4.png","0","null","","200","484.83499999856576","","","","background","",""
"","null","html-keyboard-response","92","153630","0.0-14.0-0.39","SS1604609538444","","null","","","","","","","","","","","","<img src=images/blank.png width =""500"" height = ""500"" style=""border:5px solid black"">","","",""
"","300.2000000051339","stimulus-presentation","93","154141","0.0-14.0-1.39","SS1604609538444","<img src='images/complex/3.png' width ='500' height = '500' style='border:5px solid black'>","40","all_complex","images/complex/9.png","images/complex/3.png","images/complex/16.png,images/complex/17.png,images/complex/15.png,images/complex/5.png,images/complex/1.png,images/complex/6.png,images/complex/4.png","0","null","","200","500.2000000051339","","","","background","",""
"","null","html-keyboard-response","94","155084","0.0-14.0-0.40","SS1604609538444","","null","","","","","","","","","","","","<img src=images/blank.png width =""500"" height = ""500"" style=""border:5px solid black"">","","",""
"","177.53999999695225","stimulus-presentation","95","155467","0.0-14.0-1.40","SS1604609538444","<img src='images/complex/3.png' width ='500' height = '500' style='border:5px solid black'>","40","all_complex","images/complex/9.png","images/complex/3.png","images/complex/16.png,images/complex/17.png,images/complex/15.png,images/complex/5.png,images/complex/1.png,images/complex/6.png,images/complex/4.png","0","null","","200","377.53999999695225","","","","background","",""
"","null","html-keyboard-response","96","156379","0.0-14.0-0.41","SS1604609538444","","null","","","","","","","","","","","","<img src=images/blank.png width =""500"" height = ""500"" style=""border:5px solid black"">","","",""
"","153.76499999547377","stimulus-presentation","97","156741","0.0-14.0-1.41","SS1604609538444","<img src='images/complex/3.png' width ='500' height = '500' style='border:5px solid black'>","40","all_complex","images/complex/9.png","images/complex/3.png","images/complex/16.png,images/complex/17.png,images/complex/15.png,images/complex/5.png,images/complex/1.png,images/complex/6.png,images/complex/4.png","0","null","","200","353.7649999954738","","","","background","",""
"","null","html-keyboard-response","98","157937","0.0-14.0-0.42","SS1604609538444","","null","","","","","","","","","","","","<img src=images/blank.png width =""500"" height = ""500"" style=""border:5px solid black"">","","",""
"","183.86499999905936","stimulus-presentation","99","158326","0.0-14.0-1.42","SS1604609538444","<img src='images/complex/3.png' width ='500' height = '500' style='border:5px solid black'>","40","all_complex","images/complex/9.png","images/complex/3.png","images/complex/16.png,images/complex/17.png,images/complex/15.png,images/complex/5.png,images/complex/1.png,images/complex/6.png,images/complex/4.png","0","null","","200","383.86499999905936","","","","background","",""
"","null","html-keyboard-response","100","159414","0.0-14.0-0.43","SS1604609538444","","null","","","","","","","","","","","","<img src=images/blank.png width =""500"" height = ""500"" style=""border:5px solid black"">","","",""
"","203.09000000270316","stimulus-presentation","101","159821","0.0-14.0-1.43","SS1604609538444","<img src='images/complex/3.png' width ='500' height = '500' style='border:5px solid black'>","40","all_complex","images/complex/9.png","images/complex/3.png","images/complex/16.png,images/complex/17.png,images/complex/15.png,images/complex/5.png,images/complex/1.png,images/complex/6.png,images/complex/4.png","0","null","","200","403.09000000270316","","","","background","",""
"","null","html-keyboard-response","102","160924","0.0-14.0-0.44","SS1604609538444","","null","","","","","","","","","","","","<img src=images/blank.png width =""500"" height = ""500"" style=""border:5px solid black"">","","",""
"","455.1500000015949","stimulus-presentation","103","161585","0.0-14.0-1.44","SS1604609538444","<img src='images/complex/3.png' width ='500' height = '500' style='border:5px solid black'>","40","all_complex","images/complex/9.png","images/complex/3.png","images/complex/16.png,images/complex/17.png,images/complex/15.png,images/complex/5.png,images/complex/1.png,images/complex/6.png,images/complex/4.png","0","null","","200","655.1500000015949","","","","background","",""
"","null","html-keyboard-response","104","162744","0.0-14.0-0.45","SS1604609538444","","null","","","","","","","","","","","","<img src=images/blank.png width =""500"" height = ""500"" style=""border:5px solid black"">","","",""
"","373.8050000029034","stimulus-presentation","105","163326","0.0-14.0-1.45","SS1604609538444","<img src='images/complex/5.png' width ='500' height = '500' style='border:5px solid black'>","40","all_complex","images/complex/9.png","images/complex/3.png","images/complex/16.png,images/complex/17.png,images/complex/15.png,images/complex/5.png,images/complex/1.png,images/complex/6.png,images/complex/4.png","0","null","","200","573.8050000029034","","","","deviant","",""
"","null","html-keyboard-response","106","164541","0.0-14.0-0.46","SS1604609538444","","null","","","","","","","","","","","","<img src=images/blank.png width =""500"" height = ""500"" style=""border:5px solid black"">","","",""
"","275.4899999999907","stimulus-presentation","107","165020","0.0-14.0-1.46","SS1604609538444","<img src='images/complex/3.png' width ='500' height = '500' style='border:5px solid black'>","40","all_complex","images/complex/9.png","images/complex/3.png","images/complex/16.png,images/complex/17.png,images/complex/15.png,images/complex/5.png,images/complex/1.png,images/complex/6.png,images/complex/4.png","0","null","","200","475.4899999999907","","","","background","",""
"","null","html-keyboard-response","108","165924","0.0-14.0-0.47","SS1604609538444","","null","","","","","","","","","","","","<img src=images/blank.png width =""500"" height = ""500"" style=""border:5px solid black"">","","",""
"","176.4550000007148","stimulus-presentation","109","166304","0.0-14.0-1.47","SS1604609538444","<img src='images/complex/3.png' width ='500' height = '500' style='border:5px solid black'>","40","all_complex","images/complex/9.png","images/complex/3.png","images/complex/16.png,images/complex/17.png,images/complex/15.png,images/complex/5.png,images/complex/1.png,images/complex/6.png,images/complex/4.png","0","null","","200","376.4550000007148","","","","background","",""
"","null","html-keyboard-response","110","167464","0.0-14.0-0.48","SS1604609538444","","null","","","","","","","","","","","","<img src=images/blank.png width =""500"" height = ""500"" style=""border:5px solid black"">","","",""
"","690.5049999986659","stimulus-presentation","111","168359","0.0-14.0-1.48","SS1604609538444","<img src='images/complex/9.png' width ='500' height = '500' style='border:5px solid black'>","40","all_complex","images/complex/9.png","images/complex/3.png","images/complex/16.png,images/complex/17.png,images/complex/15.png,images/complex/5.png,images/complex/1.png,images/complex/6.png,images/complex/4.png","0","null","","200","890.5049999986659","yes","201.1350000029779","","target","",""
"[{""page_index"":0,""viewing_time"":2773}]","2774","task-instructions","112","171135","0.0-15.0","SS1604609538444","","","","","","","","","","","","","","","","",""
"[{""page_index"":0,""viewing_time"":2757.919999996375},{""page_index"":1,""viewing_time"":2728.510000000824},{""page_index"":2,""viewing_time"":1716.8349999992643}]","7203.489999999874","instructions","113","178340","0.0-16.0","SS1604609538444","","","","","","","","","","","","","","","","",""
"","null","html-keyboard-response","114","179299","0.0-17.0-0.0","SS1604609538444","","null","","","","","","","","","","","","<img src=images/blank.png width =""500"" height = ""500"" style=""border:5px solid black"">","","",""
"","1202.6049999985844","stimulus-presentation","115","180707","0.0-17.0-1.0","SS1604609538444","<img src='images/simple/4.png' width ='500' height = '500' style='border:5px solid black'>","40","all_simple","images/simple/11.png","images/simple/4.png","images/simple/7.png,images/simple/1.png,images/simple/18.png,images/simple/10.png,images/simple/8.png,images/simple/9.png,images/simple/12.png","1","null","","200","1402.6049999985844","","","","background","",""
"","null","html-keyboard-response","116","181914","0.0-17.0-0.1","SS1604609538444","","null","","","","","","","","","","","","<img src=images/blank.png width =""500"" height = ""500"" style=""border:5px solid black"">","","",""
"","229.6249999999418","stimulus-presentation","117","182352","0.0-17.0-1.1","SS1604609538444","<img src='images/simple/18.png' width ='500' height = '500' style='border:5px solid black'>","40","all_simple","images/simple/11.png","images/simple/4.png","images/simple/7.png,images/simple/1.png,images/simple/18.png,images/simple/10.png,images/simple/8.png,images/simple/9.png,images/simple/12.png","1","null","","200","429.6249999999418","","","","deviant","",""
"","null","html-keyboard-response","118","183422","0.0-17.0-0.2","SS1604609538444","","null","","","","","","","","","","","","<img src=images/blank.png width =""500"" height = ""500"" style=""border:5px solid black"">","","",""
"","213.9949999982491","stimulus-presentation","119","183845","0.0-17.0-1.2","SS1604609538444","<img src='images/simple/4.png' width ='500' height = '500' style='border:5px solid black'>","40","all_simple","images/simple/11.png","images/simple/4.png","images/simple/7.png,images/simple/1.png,images/simple/18.png,images/simple/10.png,images/simple/8.png,images/simple/9.png,images/simple/12.png","1","null","","200","413.9949999982491","","","","background","",""
"","null","html-keyboard-response","120","184758","0.0-17.0-0.3","SS1604609538444","","null","","","","","","","","","","","","<img src=images/blank.png width =""500"" height = ""500"" style=""border:5px solid black"">","","",""
"","192.81000000046333","stimulus-presentation","121","185160","0.0-17.0-1.3","SS1604609538444","<img src='images/simple/4.png' width ='500' height = '500' style='border:5px solid black'>","40","all_simple","images/simple/11.png","images/simple/4.png","images/simple/7.png,images/simple/1.png,images/simple/18.png,images/simple/10.png,images/simple/8.png,images/simple/9.png,images/simple/12.png","1","null","","200","392.81000000046333","","","","background","",""
"","null","html-keyboard-response","122","186297","0.0-17.0-0.4","SS1604609538444","","null","","","","","","","","","","","","<img src=images/blank.png width =""500"" height = ""500"" style=""border:5px solid black"">","","",""
"","154.6550000057323","stimulus-presentation","123","186661","0.0-17.0-1.4","SS1604609538444","<img src='images/simple/4.png' width ='500' height = '500' style='border:5px solid black'>","40","all_simple","images/simple/11.png","images/simple/4.png","images/simple/7.png,images/simple/1.png,images/simple/18.png,images/simple/10.png,images/simple/8.png,images/simple/9.png,images/simple/12.png","1","null","","200","354.6550000057323","","","","background","",""
"","null","html-keyboard-response","124","187845","0.0-17.0-0.5","SS1604609538444","","null","","","","","","","","","","","","<img src=images/blank.png width =""500"" height = ""500"" style=""border:5px solid black"">","","",""
"","124.39499999891268","stimulus-presentation","125","188179","0.0-17.0-1.5","SS1604609538444","<img src='images/simple/4.png' width ='500' height = '500' style='border:5px solid black'>","40","all_simple","images/simple/11.png","images/simple/4.png","images/simple/7.png,images/simple/1.png,images/simple/18.png,images/simple/10.png,images/simple/8.png,images/simple/9.png,images/simple/12.png","1","null","","200","324.3949999989127","","","","background","",""
"","null","html-keyboard-response","126","189002","0.0-17.0-0.6","SS1604609538444","","null","","","","","","","","","","","","<img src=images/blank.png width =""500"" height = ""500"" style=""border:5px solid black"">","","",""
"","873.0399999985821","stimulus-presentation","127","190079","0.0-17.0-1.6","SS1604609538444","<img src='images/simple/11.png' width ='500' height = '500' style='border:5px solid black'>","40","all_simple","images/simple/11.png","images/simple/4.png","images/simple/7.png,images/simple/1.png,images/simple/18.png,images/simple/10.png,images/simple/8.png,images/simple/9.png,images/simple/12.png","1","null","","200","1073.039999998582","yes","344.584999998915","","target","",""
"","null","html-keyboard-response","128","191005","0.0-17.0-0.7","SS1604609538444","","null","","","","","","","","","","","","<img src=images/blank.png width =""500"" height = ""500"" style=""border:5px solid black"">","","",""
"","120.71499999728985","stimulus-presentation","129","191330","0.0-17.0-1.7","SS1604609538444","<img src='images/simple/4.png' width ='500' height = '500' style='border:5px solid black'>","40","all_simple","images/simple/11.png","images/simple/4.png","images/simple/7.png,images/simple/1.png,images/simple/18.png,images/simple/10.png,images/simple/8.png,images/simple/9.png,images/simple/12.png","1","null","","200","320.71499999728985","","","","background","",""
"","null","html-keyboard-response","130","192417","0.0-17.0-0.8","SS1604609538444","","null","","","","","","","","","","","","<img src=images/blank.png width =""500"" height = ""500"" style=""border:5px solid black"">","","",""
"","220.08500000083586","stimulus-presentation","131","192843","0.0-17.0-1.8","SS1604609538444","<img src='images/simple/7.png' width ='500' height = '500' style='border:5px solid black'>","40","all_simple","images/simple/11.png","images/simple/4.png","images/simple/7.png,images/simple/1.png,images/simple/18.png,images/simple/10.png,images/simple/8.png,images/simple/9.png,images/simple/12.png","1","null","","200","420.08500000083586","","","","deviant","",""
"","null","html-keyboard-response","132","193742","0.0-17.0-0.9","SS1604609538444","","null","","","","","","","","","","","","<img src=images/blank.png width =""500"" height = ""500"" style=""border:5px solid black"">","","",""
"","641.4249999943422","stimulus-presentation","133","194592","0.0-17.0-1.9","SS1604609538444","<img src='images/simple/11.png' width ='500' height = '500' style='border:5px solid black'>","40","all_simple","images/simple/11.png","images/simple/4.png","images/simple/7.png,images/simple/1.png,images/simple/18.png,images/simple/10.png,images/simple/8.png,images/simple/9.png,images/simple/12.png","1","null","","200","841.4249999943422","yes","287.8999999957159","","target","",""
"","null","html-keyboard-response","134","195881","0.0-17.0-0.10","SS1604609538444","","null","","","","","","","","","","","","<img src=images/blank.png width =""500"" height = ""500"" style=""border:5px solid black"">","","",""
"","208.96999999968102","stimulus-presentation","135","196299","0.0-17.0-1.10","SS1604609538444","<img src='images/simple/4.png' width ='500' height = '500' style='border:5px solid black'>","40","all_simple","images/simple/11.png","images/simple/4.png","images/simple/7.png,images/simple/1.png,images/simple/18.png,images/simple/10.png,images/simple/8.png,images/simple/9.png,images/simple/12.png","1","null","","200","408.969999999681","","","","background","",""
"","null","html-keyboard-response","136","197262","0.0-17.0-0.11","SS1604609538444","","null","","","","","","","","","","","","<img src=images/blank.png width =""500"" height = ""500"" style=""border:5px solid black"">","","",""
"","177.85499999445165","stimulus-presentation","137","197646","0.0-17.0-1.11","SS1604609538444","<img src='images/simple/4.png' width ='500' height = '500' style='border:5px solid black'>","40","all_simple","images/simple/11.png","images/simple/4.png","images/simple/7.png,images/simple/1.png,images/simple/18.png,images/simple/10.png,images/simple/8.png,images/simple/9.png,images/simple/12.png","1","null","","200","377.85499999445165","","","","background","",""
"","null","html-keyboard-response","138","198727","0.0-17.0-0.12","SS1604609538444","","null","","","","","","","","","","","","<img src=images/blank.png width =""500"" height = ""500"" style=""border:5px solid black"">","","",""
"","203.58999999734806","stimulus-presentation","139","199135","0.0-17.0-1.12","SS1604609538444","<img src='images/simple/4.png' width ='500' height = '500' style='border:5px solid black'>","40","all_simple","images/simple/11.png","images/simple/4.png","images/simple/7.png,images/simple/1.png,images/simple/18.png,images/simple/10.png,images/simple/8.png,images/simple/9.png,images/simple/12.png","1","null","","200","403.58999999734806","","","","background","",""
"","null","html-keyboard-response","140","200067","0.0-17.0-0.13","SS1604609538444","","null","","","","","","","","","","","","<img src=images/blank.png width =""500"" height = ""500"" style=""border:5px solid black"">","","",""
"","235.81500000000233","stimulus-presentation","141","200508","0.0-17.0-1.13","SS1604609538444","<img src='images/simple/4.png' width ='500' height = '500' style='border:5px solid black'>","40","all_simple","images/simple/11.png","images/simple/4.png","images/simple/7.png,images/simple/1.png,images/simple/18.png,images/simple/10.png,images/simple/8.png,images/simple/9.png,images/simple/12.png","1","null","","200","435.8150000000023","","","","background","",""
"","null","html-keyboard-response","142","201684","0.0-17.0-0.14","SS1604609538444","","null","","","","","","","","","","","","<img src=images/blank.png width =""500"" height = ""500"" style=""border:5px solid black"">","","",""
"","276.4850000021397","stimulus-presentation","143","202164","0.0-17.0-1.14","SS1604609538444","<img src='images/simple/4.png' width ='500' height = '500' style='border:5px solid black'>","40","all_simple","images/simple/11.png","images/simple/4.png","images/simple/7.png,images/simple/1.png,images/simple/18.png,images/simple/10.png,images/simple/8.png,images/simple/9.png,images/simple/12.png","1","null","","200","476.4850000021397","","","","background","",""
"","null","html-keyboard-response","144","202995","0.0-17.0-0.15","SS1604609538444","","null","","","","","","","","","","","","<img src=images/blank.png width =""500"" height = ""500"" style=""border:5px solid black"">","","",""
"","218.54000000166707","stimulus-presentation","145","203423","0.0-17.0-1.15","SS1604609538444","<img src='images/simple/4.png' width ='500' height = '500' style='border:5px solid black'>","40","all_simple","images/simple/11.png","images/simple/4.png","images/simple/7.png,images/simple/1.png,images/simple/18.png,images/simple/10.png,images/simple/8.png,images/simple/9.png,images/simple/12.png","1","null","","200","418.54000000166707","","","","background","",""
"","null","html-keyboard-response","146","204304","0.0-17.0-0.16","SS1604609538444","","null","","","","","","","","","","","","<img src=images/blank.png width =""500"" height = ""500"" style=""border:5px solid black"">","","",""
"","156.6549999988638","stimulus-presentation","147","204668","0.0-17.0-1.16","SS1604609538444","<img src='images/simple/12.png' width ='500' height = '500' style='border:5px solid black'>","40","all_simple","images/simple/11.png","images/simple/4.png","images/simple/7.png,images/simple/1.png,images/simple/18.png,images/simple/10.png,images/simple/8.png,images/simple/9.png,images/simple/12.png","1","null","","200","356.6549999988638","","","","deviant","",""
"","null","html-keyboard-response","148","205863","0.0-17.0-0.17","SS1604609538444","","null","","","","","","","","","","","","<img src=images/blank.png width =""500"" height = ""500"" style=""border:5px solid black"">","","",""
"","126.90499999735039","stimulus-presentation","149","206199","0.0-17.0-1.17","SS1604609538444","<img src='images/simple/4.png' width ='500' height = '500' style='border:5px solid black'>","40","all_simple","images/simple/11.png","images/simple/4.png","images/simple/7.png,images/simple/1.png,images/simple/18.png,images/simple/10.png,images/simple/8.png,images/simple/9.png,images/simple/12.png","1","null","","200","326.9049999973504","","","","background","",""
"","null","html-keyboard-response","150","207049","0.0-17.0-0.18","SS1604609538444","","null","","","","","","","","","","","","<img src=images/blank.png width =""500"" height = ""500"" style=""border:5px solid black"">","","",""
"","252.5099999984377","stimulus-presentation","151","207511","0.0-17.0-1.18","SS1604609538444","<img src='images/simple/4.png' width ='500' height = '500' style='border:5px solid black'>","40","all_simple","images/simple/11.png","images/simple/4.png","images/simple/7.png,images/simple/1.png,images/simple/18.png,images/simple/10.png,images/simple/8.png,images/simple/9.png,images/simple/12.png","1","null","","200","452.5099999984377","","","","background","",""
"","null","html-keyboard-response","152","208705","0.0-17.0-0.19","SS1604609538444","","null","","","","","","","","","","","","<img src=images/blank.png width =""500"" height = ""500"" style=""border:5px solid black"">","","",""
"","220.74499999871477","stimulus-presentation","153","209133","0.0-17.0-1.19","SS1604609538444","<img src='images/simple/4.png' width ='500' height = '500' style='border:5px solid black'>","40","all_simple","images/simple/11.png","images/simple/4.png","images/simple/7.png,images/simple/1.png,images/simple/18.png,images/simple/10.png,images/simple/8.png,images/simple/9.png,images/simple/12.png","1","null","","200","420.7449999987148","","","","background","",""
"","null","html-keyboard-response","154","210391","0.0-17.0-0.20","SS1604609538444","","null","","","","","","","","","","","","<img src=images/blank.png width =""500"" height = ""500"" style=""border:5px solid black"">","","",""
"","145.97000000503613","stimulus-presentation","155","210746","0.0-17.0-1.20","SS1604609538444","<img src='images/simple/1.png' width ='500' height = '500' style='border:5px solid black'>","40","all_simple","images/simple/11.png","images/simple/4.png","images/simple/7.png,images/simple/1.png,images/simple/18.png,images/simple/10.png,images/simple/8.png,images/simple/9.png,images/simple/12.png","1","null","","200","345.9700000050361","","","","deviant","",""
"","null","html-keyboard-response","156","211711","0.0-17.0-0.21","SS1604609538444","","null","","","","","","","","","","","","<img src=images/blank.png width =""500"" height = ""500"" style=""border:5px solid black"">","","",""
"","335.865000000922","stimulus-presentation","157","212249","0.0-17.0-1.21","SS1604609538444","<img src='images/simple/4.png' width ='500' height = '500' style='border:5px solid black'>","40","all_simple","images/simple/11.png","images/simple/4.png","images/simple/7.png,images/simple/1.png,images/simple/18.png,images/simple/10.png,images/simple/8.png,images/simple/9.png,images/simple/12.png","1","null","","200","535.865000000922","","","","background","",""
"","null","html-keyboard-response","158","213063","0.0-17.0-0.22","SS1604609538444","","null","","","","","","","","","","","","<img src=images/blank.png width =""500"" height = ""500"" style=""border:5px solid black"">","","",""
"","203.58999999734806","stimulus-presentation","159","213476","0.0-17.0-1.22","SS1604609538444","<img src='images/simple/4.png' width ='500' height = '500' style='border:5px solid black'>","40","all_simple","images/simple/11.png","images/simple/4.png","images/simple/7.png,images/simple/1.png,images/simple/18.png,images/simple/10.png,images/simple/8.png,images/simple/9.png,images/simple/12.png","1","null","","200","403.58999999734806","","","","background","",""
"","null","html-keyboard-response","160","214333","0.0-17.0-0.23","SS1604609538444","","null","","","","","","","","","","","","<img src=images/blank.png width =""500"" height = ""500"" style=""border:5px solid black"">","","",""
"","138.1699999983539","stimulus-presentation","161","214680","0.0-17.0-1.23","SS1604609538444","<img src='images/simple/4.png' width ='500' height = '500' style='border:5px solid black'>","40","all_simple","images/simple/11.png","images/simple/4.png","images/simple/7.png,images/simple/1.png,images/simple/18.png,images/simple/10.png,images/simple/8.png,images/simple/9.png,images/simple/12.png","1","null","","200","338.1699999983539","","","","background","",""
"","null","html-keyboard-response","162","215947","0.0-17.0-0.24","SS1604609538444","","null","","","","","","","","","","","","<img src=images/blank.png width =""500"" height = ""500"" style=""border:5px solid black"">","","",""
"","135.52000000345288","stimulus-presentation","163","216291","0.0-17.0-1.24","SS1604609538444","<img src='images/simple/4.png' width ='500' height = '500' style='border:5px solid black'>","40","all_simple","images/simple/11.png","images/simple/4.png","images/simple/7.png,images/simple/1.png,images/simple/18.png,images/simple/10.png,images/simple/8.png,images/simple/9.png,images/simple/12.png","1","null","","200","335.5200000034529","","","","background","",""
"","null","html-keyboard-response","164","217322","0.0-17.0-0.25","SS1604609538444","","null","","","","","","","","","","","","<img src=images/blank.png width =""500"" height = ""500"" style=""border:5px solid black"">","","",""
"","115.25499999697786","stimulus-presentation","165","217643","0.0-17.0-1.25","SS1604609538444","<img src='images/simple/4.png' width ='500' height = '500' style='border:5px solid black'>","40","all_simple","images/simple/11.png","images/simple/4.png","images/simple/7.png,images/simple/1.png,images/simple/18.png,images/simple/10.png,images/simple/8.png,images/simple/9.png,images/simple/12.png","1","null","","200","315.25499999697786","","","","background","",""
"","null","html-keyboard-response","166","218731","0.0-17.0-0.26","SS1604609538444","","null","","","","","","","","","","","","<img src=images/blank.png width =""500"" height = ""500"" style=""border:5px solid black"">","","",""
"","111.16999999649124","stimulus-presentation","167","219049","0.0-17.0-1.26","SS1604609538444","<img src='images/simple/4.png' width ='500' height = '500' style='border:5px solid black'>","40","all_simple","images/simple/11.png","images/simple/4.png","images/simple/7.png,images/simple/1.png,images/simple/18.png,images/simple/10.png,images/simple/8.png,images/simple/9.png,images/simple/12.png","1","null","","200","311.16999999649124","","","","background","",""
"","null","html-keyboard-response","168","220348","0.0-17.0-0.27","SS1604609538444","","null","","","","","","","","","","","","<img src=images/blank.png width =""500"" height = ""500"" style=""border:5px solid black"">","","",""
"","262.60500000353204","stimulus-presentation","169","220817","0.0-17.0-1.27","SS1604609538444","<img src='images/simple/8.png' width ='500' height = '500' style='border:5px solid black'>","40","all_simple","images/simple/11.png","images/simple/4.png","images/simple/7.png,images/simple/1.png,images/simple/18.png,images/simple/10.png,images/simple/8.png,images/simple/9.png,images/simple/12.png","1","null","","200","462.60500000353204","","","","deviant","",""
"","null","html-keyboard-response","170","222013","0.0-17.0-0.28","SS1604609538444","","null","","","","","","","","","","","","<img src=images/blank.png width =""500"" height = ""500"" style=""border:5px solid black"">","","",""
"","128.9600000018254","stimulus-presentation","171","222352","0.0-17.0-1.28","SS1604609538444","<img src='images/simple/4.png' width ='500' height = '500' style='border:5px solid black'>","40","all_simple","images/simple/11.png","images/simple/4.png","images/simple/7.png,images/simple/1.png,images/simple/18.png,images/simple/10.png,images/simple/8.png,images/simple/9.png,images/simple/12.png","1","null","","200","328.9600000018254","","","","background","",""
"","null","html-keyboard-response","172","223582","0.0-17.0-0.29","SS1604609538444","","null","","","","","","","","","","","","<img src=images/blank.png width =""500"" height = ""500"" style=""border:5px solid black"">","","",""
"","108.76499999722","stimulus-presentation","173","223896","0.0-17.0-1.29","SS1604609538444","<img src='images/simple/4.png' width ='500' height = '500' style='border:5px solid black'>","40","all_simple","images/simple/11.png","images/simple/4.png","images/simple/7.png,images/simple/1.png,images/simple/18.png,images/simple/10.png,images/simple/8.png,images/simple/9.png,images/simple/12.png","1","null","","200","308.76499999722","","","","background","",""
"","null","html-keyboard-response","174","224938","0.0-17.0-0.30","SS1604609538444","","null","","","","","","","","","","","","<img src=images/blank.png width =""500"" height = ""500"" style=""border:5px solid black"">","","",""
"","717.0400000031805","stimulus-presentation","175","225860","0.0-17.0-1.30","SS1604609538444","<img src='images/simple/11.png' width ='500' height = '500' style='border:5px solid black'>","40","all_simple","images/simple/11.png","images/simple/4.png","images/simple/7.png,images/simple/1.png,images/simple/18.png,images/simple/10.png,images/simple/8.png,images/simple/9.png,images/simple/12.png","1","null","","200","917.0400000031805","yes","425.1199999998789","","target","",""
"","null","html-keyboard-response","176","226857","0.0-17.0-0.31","SS1604609538444","","null","","","","","","","","","","","","<img src=images/blank.png width =""500"" height = ""500"" style=""border:5px solid black"">","","",""
"","169.68500000075437","stimulus-presentation","177","227236","0.0-17.0-1.31","SS1604609538444","<img src='images/simple/4.png' width ='500' height = '500' style='border:5px solid black'>","40","all_simple","images/simple/11.png","images/simple/4.png","images/simple/7.png,images/simple/1.png,images/simple/18.png,images/simple/10.png,images/simple/8.png,images/simple/9.png,images/simple/12.png","1","null","","200","369.68500000075437","","","","background","",""
"","null","html-keyboard-response","178","228072","0.0-17.0-0.32","SS1604609538444","","null","","","","","","","","","","","","<img src=images/blank.png width =""500"" height = ""500"" style=""border:5px solid black"">","","",""
"","129.52999999833992","stimulus-presentation","179","228407","0.0-17.0-1.32","SS1604609538444","<img src='images/simple/4.png' width ='500' height = '500' style='border:5px solid black'>","40","all_simple","images/simple/11.png","images/simple/4.png","images/simple/7.png,images/simple/1.png,images/simple/18.png,images/simple/10.png,images/simple/8.png,images/simple/9.png,images/simple/12.png","1","null","","200","329.5299999983399","","","","background","",""
"","null","html-keyboard-response","180","229598","0.0-17.0-0.33","SS1604609538444","","null","","","","","","","","","","","","<img src=images/blank.png width =""500"" height = ""500"" style=""border:5px solid black"">","","",""
"","173.92500000278233","stimulus-presentation","181","229981","0.0-17.0-1.33","SS1604609538444","<img src='images/simple/4.png' width ='500' height = '500' style='border:5px solid black'>","40","all_simple","images/simple/11.png","images/simple/4.png","images/simple/7.png,images/simple/1.png,images/simple/18.png,images/simple/10.png,images/simple/8.png,images/simple/9.png,images/simple/12.png","1","null","","200","373.9250000027823","","","","background","",""
"","null","html-keyboard-response","182","230882","0.0-17.0-0.34","SS1604609538444","","null","","","","","","","","","","","","<img src=images/blank.png width =""500"" height = ""500"" style=""border:5px solid black"">","","",""
"","289.80500000034226","stimulus-presentation","183","231376","0.0-17.0-1.34","SS1604609538444","<img src='images/simple/10.png' width ='500' height = '500' style='border:5px solid black'>","40","all_simple","images/simple/11.png","images/simple/4.png","images/simple/7.png,images/simple/1.png,images/simple/18.png,images/simple/10.png,images/simple/8.png,images/simple/9.png,images/simple/12.png","1","null","","200","489.80500000034226","","","","deviant","",""
"","null","html-keyboard-response","184","232478","0.0-17.0-0.35","SS1604609538444","","null","","","","","","","","","","","","<img src=images/blank.png width =""500"" height = ""500"" style=""border:5px solid black"">","","",""
"","219.55500000331085","stimulus-presentation","185","232902","0.0-17.0-1.35","SS1604609538444","<img src='images/simple/4.png' width ='500' height = '500' style='border:5px solid black'>","40","all_simple","images/simple/11.png","images/simple/4.png","images/simple/7.png,images/simple/1.png,images/simple/18.png,images/simple/10.png,images/simple/8.png,images/simple/9.png,images/simple/12.png","1","null","","200","419.55500000331085","","","","background","",""
"","null","html-keyboard-response","186","233878","0.0-17.0-0.36","SS1604609538444","","null","","","","","","","","","","","","<img src=images/blank.png width =""500"" height = ""500"" style=""border:5px solid black"">","","",""
"","677.9999999998836","stimulus-presentation","187","234764","0.0-17.0-1.36","SS1604609538444","<img src='images/simple/11.png' width ='500' height = '500' style='border:5px solid black'>","40","all_simple","images/simple/11.png","images/simple/4.png","images/simple/7.png,images/simple/1.png,images/simple/18.png,images/simple/10.png,images/simple/8.png,images/simple/9.png,images/simple/12.png","1","null","","200","877.9999999998836","yes","285.9450000032666","","target","",""
"","null","html-keyboard-response","188","235683","0.0-17.0-0.37","SS1604609538444","","null","","","","","","","","","","","","<img src=images/blank.png width =""500"" height = ""500"" style=""border:5px solid black"">","","",""
"","722.8050000048825","stimulus-presentation","189","236612","0.0-17.0-1.37","SS1604609538444","<img src='images/simple/11.png' width ='500' height = '500' style='border:5px solid black'>","40","all_simple","images/simple/11.png","images/simple/4.png","images/simple/7.png,images/simple/1.png,images/simple/18.png,images/simple/10.png,images/simple/8.png,images/simple/9.png,images/simple/12.png","1","null","","200","922.8050000048825","yes","345.69500000361586","","target","",""
"","null","html-keyboard-response","190","237902","0.0-17.0-0.38","SS1604609538444","","null","","","","","","","","","","","","<img src=images/blank.png width =""500"" height = ""500"" style=""border:5px solid black"">","","",""
"","524.7499999968568","stimulus-presentation","191","238632","0.0-17.0-1.38","SS1604609538444","<img src='images/simple/4.png' width ='500' height = '500' style='border:5px solid black'>","40","all_simple","images/simple/11.png","images/simple/4.png","images/simple/7.png,images/simple/1.png,images/simple/18.png,images/simple/10.png,images/simple/8.png,images/simple/9.png,images/simple/12.png","1","null","","200","724.7499999968568","","","","background","",""
"","null","html-keyboard-response","192","239794","0.0-17.0-0.39","SS1604609538444","","null","","","","","","","","","","","","<img src=images/blank.png width =""500"" height = ""500"" style=""border:5px solid black"">","","",""
"","537.4149999988731","stimulus-presentation","193","240537","0.0-17.0-1.39","SS1604609538444","<img src='images/simple/11.png' width ='500' height = '500' style='border:5px solid black'>","40","all_simple","images/simple/11.png","images/simple/4.png","images/simple/7.png,images/simple/1.png,images/simple/18.png,images/simple/10.png,images/simple/8.png,images/simple/9.png,images/simple/12.png","1","null","","200","737.4149999988731","yes","277.34500000224216","","target","",""
"","null","html-keyboard-response","194","241523","0.0-17.0-0.40","SS1604609538444","","null","","","","","","","","","","","","<img src=images/blank.png width =""500"" height = ""500"" style=""border:5px solid black"">","","",""
"","143.85000000038417","stimulus-presentation","195","241872","0.0-17.0-1.40","SS1604609538444","<img src='images/simple/4.png' width ='500' height = '500' style='border:5px solid black'>","40","all_simple","images/simple/11.png","images/simple/4.png","images/simple/7.png,images/simple/1.png,images/simple/18.png,images/simple/10.png,images/simple/8.png,images/simple/9.png,images/simple/12.png","1","null","","200","343.85000000038417","","","","background","",""
"","null","html-keyboard-response","196","242939","0.0-17.0-0.41","SS1604609538444","","null","","","","","","","","","","","","<img src=images/blank.png width =""500"" height = ""500"" style=""border:5px solid black"">","","",""
"","674.3950000018231","stimulus-presentation","197","243818","0.0-17.0-1.41","SS1604609538444","<img src='images/simple/11.png' width ='500' height = '500' style='border:5px solid black'>","40","all_simple","images/simple/11.png","images/simple/4.png","images/simple/7.png,images/simple/1.png,images/simple/18.png,images/simple/10.png,images/simple/8.png,images/simple/9.png,images/simple/12.png","1","null","","200","874.3950000018231","yes","320.2799999999115","","target","",""
"","null","html-keyboard-response","198","244925","0.0-17.0-0.42","SS1604609538444","","null","","","","","","","","","","","","<img src=images/blank.png width =""500"" height = ""500"" style=""border:5px solid black"">","","",""
"","125.43499999446794","stimulus-presentation","199","245255","0.0-17.0-1.42","SS1604609538444","<img src='images/simple/9.png' width ='500' height = '500' style='border:5px solid black'>","40","all_simple","images/simple/11.png","images/simple/4.png","images/simple/7.png,images/simple/1.png,images/simple/18.png,images/simple/10.png,images/simple/8.png,images/simple/9.png,images/simple/12.png","1","null","","200","325.43499999446794","","","","deviant","",""
"","null","html-keyboard-response","200","246552","0.0-17.0-0.43","SS1604609538444","","null","","","","","","","","","","","","<img src=images/blank.png width =""500"" height = ""500"" style=""border:5px solid black"">","","",""
"","106.79499999969266","stimulus-presentation","201","246869","0.0-17.0-1.43","SS1604609538444","<img src='images/simple/4.png' width ='500' height = '500' style='border:5px solid black'>","40","all_simple","images/simple/11.png","images/simple/4.png","images/simple/7.png,images/simple/1.png,images/simple/18.png,images/simple/10.png,images/simple/8.png,images/simple/9.png,images/simple/12.png","1","null","","200","306.79499999969266","","","","background","",""
"","null","html-keyboard-response","202","247995","0.0-17.0-0.44","SS1604609538444","","null","","","","","","","","","","","","<img src=images/blank.png width =""500"" height = ""500"" style=""border:5px solid black"">","","",""
"","162.66999999788823","stimulus-presentation","203","248363","0.0-17.0-1.44","SS1604609538444","<img src='images/simple/4.png' width ='500' height = '500' style='border:5px solid black'>","40","all_simple","images/simple/11.png","images/simple/4.png","images/simple/7.png,images/simple/1.png,images/simple/18.png,images/simple/10.png,images/simple/8.png,images/simple/9.png,images/simple/12.png","1","null","","200","362.6699999978882","","","","background","",""
"","null","html-keyboard-response","204","249401","0.0-17.0-0.45","SS1604609538444","","null","","","","","","","","","","","","<img src=images/blank.png width =""500"" height = ""500"" style=""border:5px solid black"">","","",""
"","202.34999999956926","stimulus-presentation","205","249814","0.0-17.0-1.45","SS1604609538444","<img src='images/simple/4.png' width ='500' height = '500' style='border:5px solid black'>","40","all_simple","images/simple/11.png","images/simple/4.png","images/simple/7.png,images/simple/1.png,images/simple/18.png,images/simple/10.png,images/simple/8.png,images/simple/9.png,images/simple/12.png","1","null","","200","402.34999999956926","","","","background","",""
"","null","html-keyboard-response","206","250751","0.0-17.0-0.46","SS1604609538444","","null","","","","","","","","","","","","<img src=images/blank.png width =""500"" height = ""500"" style=""border:5px solid black"">","","",""
"","152.21999999630498","stimulus-presentation","207","251113","0.0-17.0-1.46","SS1604609538444","<img src='images/simple/4.png' width ='500' height = '500' style='border:5px solid black'>","40","all_simple","images/simple/11.png","images/simple/4.png","images/simple/7.png,images/simple/1.png,images/simple/18.png,images/simple/10.png,images/simple/8.png,images/simple/9.png,images/simple/12.png","1","null","","200","352.219999996305","","","","background","",""
"","null","html-keyboard-response","208","252324","0.0-17.0-0.47","SS1604609538444","","null","","","","","","","","","","","","<img src=images/blank.png width =""500"" height = ""500"" style=""border:5px solid black"">","","",""
"","126.53000000136672","stimulus-presentation","209","252656","0.0-17.0-1.47","SS1604609538444","<img src='images/simple/4.png' width ='500' height = '500' style='border:5px solid black'>","40","all_simple","images/simple/11.png","images/simple/4.png","images/simple/7.png,images/simple/1.png,images/simple/18.png,images/simple/10.png,images/simple/8.png,images/simple/9.png,images/simple/12.png","1","null","","200","326.5300000013667","","","","background","",""
"","null","html-keyboard-response","210","253789","0.0-17.0-0.48","SS1604609538444","","null","","","","","","","","","","","","<img src=images/blank.png width =""500"" height = ""500"" style=""border:5px solid black"">","","",""
"","127.8149999998277","stimulus-presentation","211","254125","0.0-17.0-1.48","SS1604609538444","<img src='images/simple/4.png' width ='500' height = '500' style='border:5px solid black'>","40","all_simple","images/simple/11.png","images/simple/4.png","images/simple/7.png,images/simple/1.png,images/simple/18.png,images/simple/10.png,images/simple/8.png,images/simple/9.png,images/simple/12.png","1","null","","200","327.8149999998277","","","","background","",""
"[{""page_index"":0,""viewing_time"":1259}]","1260","task-instructions","212","255388","0.0-18.0","SS1604609538444","","","","","","","","","","","","","","","","",""
"[{""page_index"":0,""viewing_time"":943.3550000030664},{""page_index"":1,""viewing_time"":2039.9649999963003},{""page_index"":2,""viewing_time"":947.680000004766}]","3931.2150000041584","instructions","213","259322","0.0-19.0","SS1604609538444","","","","","","","","","","","","","","","","",""
"","null","html-keyboard-response","214","260282","0.0-20.0-0.0","SS1604609538444","","null","","","","","","","","","","","","<img src=images/blank.png width =""500"" height = ""500"" style=""border:5px solid black"">","","",""
"","1081.675000001269","stimulus-presentation","215","261574","0.0-20.0-1.0","SS1604609538444","<img src='images/simple/5.png' width ='500' height = '500' style='border:5px solid black'>","40","mixed_complex_deviant","images/simple/14.png","images/simple/5.png","images/complex/12.png,images/complex/11.png,images/complex/14.png,images/complex/18.png,images/complex/7.png,images/complex/10.png,images/complex/2.png","2","null","","200","1281.675000001269","","","","background","",""
"","null","html-keyboard-response","216","262876","0.0-20.0-0.1","SS1604609538444","","null","","","","","","","","","","","","<img src=images/blank.png width =""500"" height = ""500"" style=""border:5px solid black"">","","",""
"","3853.6499999972875","stimulus-presentation","217","266938","0.0-20.0-1.1","SS1604609538444","<img src='images/simple/14.png' width ='500' height = '500' style='border:5px solid black'>","40","mixed_complex_deviant","images/simple/14.png","images/simple/5.png","images/complex/12.png,images/complex/11.png,images/complex/14.png,images/complex/18.png,images/complex/7.png,images/complex/10.png,images/complex/2.png","2","null","","200","4053.6499999972875","yes","682.3899999944842","","target","",""
"","null","html-keyboard-response","218","268131","0.0-20.0-0.2","SS1604609538444","","null","","","","","","","","","","","","<img src=images/blank.png width =""500"" height = ""500"" style=""border:5px solid black"">","","",""
"","454.4400000013411","stimulus-presentation","219","268795","0.0-20.0-1.2","SS1604609538444","<img src='images/complex/12.png' width ='500' height = '500' style='border:5px solid black'>","40","mixed_complex_deviant","images/simple/14.png","images/simple/5.png","images/complex/12.png,images/complex/11.png,images/complex/14.png,images/complex/18.png,images/complex/7.png,images/complex/10.png,images/complex/2.png","2","null","","200","654.4400000013411","","","","deviant","",""
"","null","html-keyboard-response","220","269947","0.0-20.0-0.3","SS1604609538444","","null","","","","","","","","","","","","<img src=images/blank.png width =""500"" height = ""500"" style=""border:5px solid black"">","","",""
"","597.8850000028615","stimulus-presentation","221","270752","0.0-20.0-1.3","SS1604609538444","<img src='images/simple/14.png' width ='500' height = '500' style='border:5px solid black'>","40","mixed_complex_deviant","images/simple/14.png","images/simple/5.png","images/complex/12.png,images/complex/11.png,images/complex/14.png,images/complex/18.png,images/complex/7.png,images/complex/10.png,images/complex/2.png","2","null","","200","797.8850000028615","yes","232.7900000018417","","target","",""
"","null","html-keyboard-response","222","271635","0.0-20.0-0.4","SS1604609538444","","null","","","","","","","","","","","","<img src=images/blank.png width =""500"" height = ""500"" style=""border:5px solid black"">","","",""
"","176.59999999887077","stimulus-presentation","223","272020","0.0-20.0-1.4","SS1604609538444","<img src='images/simple/5.png' width ='500' height = '500' style='border:5px solid black'>","40","mixed_complex_deviant","images/simple/14.png","images/simple/5.png","images/complex/12.png,images/complex/11.png,images/complex/14.png,images/complex/18.png,images/complex/7.png,images/complex/10.png,images/complex/2.png","2","null","","200","376.59999999887077","","","","background","",""
"","null","html-keyboard-response","224","273143","0.0-20.0-0.5","SS1604609538444","","null","","","","","","","","","","","","<img src=images/blank.png width =""500"" height = ""500"" style=""border:5px solid black"">","","",""
"","204.8549999963143","stimulus-presentation","225","273559","0.0-20.0-1.5","SS1604609538444","<img src='images/complex/14.png' width ='500' height = '500' style='border:5px solid black'>","40","mixed_complex_deviant","images/simple/14.png","images/simple/5.png","images/complex/12.png,images/complex/11.png,images/complex/14.png,images/complex/18.png,images/complex/7.png,images/complex/10.png,images/complex/2.png","2","null","","200","404.8549999963143","","","","deviant","",""
"","null","html-keyboard-response","226","274530","0.0-20.0-0.6","SS1604609538444","","null","","","","","","","","","","","","<img src=images/blank.png width =""500"" height = ""500"" style=""border:5px solid black"">","","",""
"","161.74499999760883","stimulus-presentation","227","274899","0.0-20.0-1.6","SS1604609538444","<img src='images/simple/5.png' width ='500' height = '500' style='border:5px solid black'>","40","mixed_complex_deviant","images/simple/14.png","images/simple/5.png","images/complex/12.png,images/complex/11.png,images/complex/14.png,images/complex/18.png,images/complex/7.png,images/complex/10.png,images/complex/2.png","2","null","","200","361.74499999760883","","","","background","",""
"","null","html-keyboard-response","228","275883","0.0-20.0-0.7","SS1604609538444","","null","","","","","","","","","","","","<img src=images/blank.png width =""500"" height = ""500"" style=""border:5px solid black"">","","",""
"","230.47499999665888","stimulus-presentation","229","276320","0.0-20.0-1.7","SS1604609538444","<img src='images/simple/5.png' width ='500' height = '500' style='border:5px solid black'>","40","mixed_complex_deviant","images/simple/14.png","images/simple/5.png","images/complex/12.png,images/complex/11.png,images/complex/14.png,images/complex/18.png,images/complex/7.png,images/complex/10.png,images/complex/2.png","2","null","","200","430.4749999966589","","","","background","",""
"","null","html-keyboard-response","230","277321","0.0-20.0-0.8","SS1604609538444","","null","","","","","","","","","","","","<img src=images/blank.png width =""500"" height = ""500"" style=""border:5px solid black"">","","",""
"","154.07000000413973","stimulus-presentation","231","277684","0.0-20.0-1.8","SS1604609538444","<img src='images/simple/5.png' width ='500' height = '500' style='border:5px solid black'>","40","mixed_complex_deviant","images/simple/14.png","images/simple/5.png","images/complex/12.png,images/complex/11.png,images/complex/14.png,images/complex/18.png,images/complex/7.png,images/complex/10.png,images/complex/2.png","2","null","","200","354.07000000413973","","","","background","",""
"","null","html-keyboard-response","232","278724","0.0-20.0-0.9","SS1604609538444","","null","","","","","","","","","","","","<img src=images/blank.png width =""500"" height = ""500"" style=""border:5px solid black"">","","",""
"","106.63000000204192","stimulus-presentation","233","279036","0.0-20.0-1.9","SS1604609538444","<img src='images/simple/5.png' width ='500' height = '500' style='border:5px solid black'>","40","mixed_complex_deviant","images/simple/14.png","images/simple/5.png","images/complex/12.png,images/complex/11.png,images/complex/14.png,images/complex/18.png,images/complex/7.png,images/complex/10.png,images/complex/2.png","2","null","","200","306.6300000020419","","","","background","",""
"","null","html-keyboard-response","234","279865","0.0-20.0-0.10","SS1604609538444","","null","","","","","","","","","","","","<img src=images/blank.png width =""500"" height = ""500"" style=""border:5px solid black"">","","",""
"","180.87499999819556","stimulus-presentation","235","280254","0.0-20.0-1.10","SS1604609538444","<img src='images/simple/5.png' width ='500' height = '500' style='border:5px solid black'>","40","mixed_complex_deviant","images/simple/14.png","images/simple/5.png","images/complex/12.png,images/complex/11.png,images/complex/14.png,images/complex/18.png,images/complex/7.png,images/complex/10.png,images/complex/2.png","2","null","","200","380.87499999819556","","","","background","",""
"","null","html-keyboard-response","236","281228","0.0-20.0-0.11","SS1604609538444","","null","","","","","","","","","","","","<img src=images/blank.png width =""500"" height = ""500"" style=""border:5px solid black"">","","",""
"","2003.1050000034156","stimulus-presentation","237","283436","0.0-20.0-1.11","SS1604609538444","<img src='images/simple/14.png' width ='500' height = '500' style='border:5px solid black'>","40","mixed_complex_deviant","images/simple/14.png","images/simple/5.png","images/complex/12.png,images/complex/11.png,images/complex/14.png,images/complex/18.png,images/complex/7.png,images/complex/10.png,images/complex/2.png","2","null","","200","2203.1050000034156","yes","463.65000000514556","","target","",""
"","null","html-keyboard-response","238","284615","0.0-20.0-0.12","SS1604609538444","","null","","","","","","","","","","","","<img src=images/blank.png width =""500"" height = ""500"" style=""border:5px solid black"">","","",""
"","2690.6550000057905","stimulus-presentation","239","287516","0.0-20.0-1.12","SS1604609538444","<img src='images/simple/5.png' width ='500' height = '500' style='border:5px solid black'>","40","mixed_complex_deviant","images/simple/14.png","images/simple/5.png","images/complex/12.png,images/complex/11.png,images/complex/14.png,images/complex/18.png,images/complex/7.png,images/complex/10.png,images/complex/2.png","2","null","","200","2890.6550000057905","","","","background","",""
"","null","html-keyboard-response","240","288718","0.0-20.0-0.13","SS1604609538444","","null","","","","","","","","","","","","<img src=images/blank.png width =""500"" height = ""500"" style=""border:5px solid black"">","","",""
"","19454.584999999497","stimulus-presentation","241","308384","0.0-20.0-1.13","SS1604609538444","<img src='images/simple/5.png' width ='500' height = '500' style='border:5px solid black'>","40","mixed_complex_deviant","images/simple/14.png","images/simple/5.png","images/complex/12.png,images/complex/11.png,images/complex/14.png,images/complex/18.png,images/complex/7.png,images/complex/10.png,images/complex/2.png","2","null","","200","19654.584999999497","","","","background","",""
"","null","html-keyboard-response","242","309583","0.0-20.0-0.14","SS1604609538444","","null","","","","","","","","","","","","<img src=images/blank.png width =""500"" height = ""500"" style=""border:5px solid black"">","","",""
"","1796.040000001085","stimulus-presentation","243","311585","0.0-20.0-1.14","SS1604609538444","<img src='images/complex/11.png' width ='500' height = '500' style='border:5px solid black'>","40","mixed_complex_deviant","images/simple/14.png","images/simple/5.png","images/complex/12.png,images/complex/11.png,images/complex/14.png,images/complex/18.png,images/complex/7.png,images/complex/10.png,images/complex/2.png","2","null","","200","1996.040000001085","","","","deviant","",""
"","null","html-keyboard-response","244","312818","0.0-20.0-0.15","SS1604609538444","","null","","","","","","","","","","","","<img src=images/blank.png width =""500"" height = ""500"" style=""border:5px solid black"">","","",""
"","681.2300000019604","stimulus-presentation","245","313710","0.0-20.0-1.15","SS1604609538444","<img src='images/simple/5.png' width ='500' height = '500' style='border:5px solid black'>","40","mixed_complex_deviant","images/simple/14.png","images/simple/5.png","images/complex/12.png,images/complex/11.png,images/complex/14.png,images/complex/18.png,images/complex/7.png,images/complex/10.png,images/complex/2.png","2","null","","200","881.2300000019604","","","","background","",""
"","null","html-keyboard-response","246","315019","0.0-20.0-0.16","SS1604609538444","","null","","","","","","","","","","","","<img src=images/blank.png width =""500"" height = ""500"" style=""border:5px solid black"">","","",""
"","176.56499999429798","stimulus-presentation","247","315406","0.0-20.0-1.16","SS1604609538444","<img src='images/simple/5.png' width ='500' height = '500' style='border:5px solid black'>","40","mixed_complex_deviant","images/simple/14.png","images/simple/5.png","images/complex/12.png,images/complex/11.png,images/complex/14.png,images/complex/18.png,images/complex/7.png,images/complex/10.png,images/complex/2.png","2","null","","200","376.564999994298","","","","background","",""
"","null","html-keyboard-response","248","316569","0.0-20.0-0.17","SS1604609538444","","null","","","","","","","","","","","","<img src=images/blank.png width =""500"" height = ""500"" style=""border:5px solid black"">","","",""
"","2490.154999999504","stimulus-presentation","249","319270","0.0-20.0-1.17","SS1604609538444","<img src='images/complex/10.png' width ='500' height = '500' style='border:5px solid black'>","40","mixed_complex_deviant","images/simple/14.png","images/simple/5.png","images/complex/12.png,images/complex/11.png,images/complex/14.png,images/complex/18.png,images/complex/7.png,images/complex/10.png,images/complex/2.png","2","null","","200","2690.154999999504","","","","deviant","",""
"","null","html-keyboard-response","250","320532","0.0-20.0-0.18","SS1604609538444","","null","","","","","","","","","","","","<img src=images/blank.png width =""500"" height = ""500"" style=""border:5px solid black"">","","",""
"","187.9350000017439","stimulus-presentation","251","320927","0.0-20.0-1.18","SS1604609538444","<img src='images/simple/5.png' width ='500' height = '500' style='border:5px solid black'>","40","mixed_complex_deviant","images/simple/14.png","images/simple/5.png","images/complex/12.png,images/complex/11.png,images/complex/14.png,images/complex/18.png,images/complex/7.png,images/complex/10.png,images/complex/2.png","2","null","","200","387.9350000017439","","","","background","",""
"","null","html-keyboard-response","252","322053","0.0-20.0-0.19","SS1604609538444","","null","","","","","","","","","","","","<img src=images/blank.png width =""500"" height = ""500"" style=""border:5px solid black"">","","",""
"","221.46000000066124","stimulus-presentation","253","322478","0.0-20.0-1.19","SS1604609538444","<img src='images/simple/5.png' width ='500' height = '500' style='border:5px solid black'>","40","mixed_complex_deviant","images/simple/14.png","images/simple/5.png","images/complex/12.png,images/complex/11.png,images/complex/14.png,images/complex/18.png,images/complex/7.png,images/complex/10.png,images/complex/2.png","2","null","","200","421.46000000066124","","","","background","",""
"","null","html-keyboard-response","254","323527","0.0-20.0-0.20","SS1604609538444","","null","","","","","","","","","","","","<img src=images/blank.png width =""500"" height = ""500"" style=""border:5px solid black"">","","",""
"","122.56000000343192","stimulus-presentation","255","323860","0.0-20.0-1.20","SS1604609538444","<img src='images/simple/5.png' width ='500' height = '500' style='border:5px solid black'>","40","mixed_complex_deviant","images/simple/14.png","images/simple/5.png","images/complex/12.png,images/complex/11.png,images/complex/14.png,images/complex/18.png,images/complex/7.png,images/complex/10.png,images/complex/2.png","2","null","","200","322.5600000034319","","","","background","",""
"","null","html-keyboard-response","256","325047","0.0-20.0-0.21","SS1604609538444","","null","","","","","","","","","","","","<img src=images/blank.png width =""500"" height = ""500"" style=""border:5px solid black"">","","",""
"","121.53499999840278","stimulus-presentation","257","325379","0.0-20.0-1.21","SS1604609538444","<img src='images/simple/5.png' width ='500' height = '500' style='border:5px solid black'>","40","mixed_complex_deviant","images/simple/14.png","images/simple/5.png","images/complex/12.png,images/complex/11.png,images/complex/14.png,images/complex/18.png,images/complex/7.png,images/complex/10.png,images/complex/2.png","2","null","","200","321.5349999984028","","","","background","",""
"","null","html-keyboard-response","258","326333","0.0-20.0-0.22","SS1604609538444","","null","","","","","","","","","","","","<img src=images/blank.png width =""500"" height = ""500"" style=""border:5px solid black"">","","",""
"","188.63999999302905","stimulus-presentation","259","326732","0.0-20.0-1.22","SS1604609538444","<img src='images/simple/5.png' width ='500' height = '500' style='border:5px solid black'>","40","mixed_complex_deviant","images/simple/14.png","images/simple/5.png","images/complex/12.png,images/complex/11.png,images/complex/14.png,images/complex/18.png,images/complex/7.png,images/complex/10.png,images/complex/2.png","2","null","","200","388.63999999302905","","","","background","",""
"","null","html-keyboard-response","260","327627","0.0-20.0-0.23","SS1604609538444","","null","","","","","","","","","","","","<img src=images/blank.png width =""500"" height = ""500"" style=""border:5px solid black"">","","",""
"","104.99500000150874","stimulus-presentation","261","327943","0.0-20.0-1.23","SS1604609538444","<img src='images/simple/5.png' width ='500' height = '500' style='border:5px solid black'>","40","mixed_complex_deviant","images/simple/14.png","images/simple/5.png","images/complex/12.png,images/complex/11.png,images/complex/14.png,images/complex/18.png,images/complex/7.png,images/complex/10.png,images/complex/2.png","2","null","","200","304.99500000150874","","","","background","",""
"","null","html-keyboard-response","262","329006","0.0-20.0-0.24","SS1604609538444","","null","","","","","","","","","","","","<img src=images/blank.png width =""500"" height = ""500"" style=""border:5px solid black"">","","",""
"","293.7099999981001","stimulus-presentation","263","329507","0.0-20.0-1.24","SS1604609538444","<img src='images/complex/18.png' width ='500' height = '500' style='border:5px solid black'>","40","mixed_complex_deviant","images/simple/14.png","images/simple/5.png","images/complex/12.png,images/complex/11.png,images/complex/14.png,images/complex/18.png,images/complex/7.png,images/complex/10.png,images/complex/2.png","2","null","","200","493.7099999981001","","","","deviant","",""
"","null","html-keyboard-response","264","330520","0.0-20.0-0.25","SS1604609538444","","null","","","","","","","","","","","","<img src=images/blank.png width =""500"" height = ""500"" style=""border:5px solid black"">","","",""
"","161.82000000117114","stimulus-presentation","265","330888","0.0-20.0-1.25","SS1604609538444","<img src='images/simple/5.png' width ='500' height = '500' style='border:5px solid black'>","40","mixed_complex_deviant","images/simple/14.png","images/simple/5.png","images/complex/12.png,images/complex/11.png,images/complex/14.png,images/complex/18.png,images/complex/7.png,images/complex/10.png,images/complex/2.png","2","null","","200","361.82000000117114","","","","background","",""
"","null","html-keyboard-response","266","331895","0.0-20.0-0.26","SS1604609538444","","null","","","","","","","","","","","","<img src=images/blank.png width =""500"" height = ""500"" style=""border:5px solid black"">","","",""
"","265.39999999658903","stimulus-presentation","267","332369","0.0-20.0-1.26","SS1604609538444","<img src='images/simple/5.png' width ='500' height = '500' style='border:5px solid black'>","40","mixed_complex_deviant","images/simple/14.png","images/simple/5.png","images/complex/12.png,images/complex/11.png,images/complex/14.png,images/complex/18.png,images/complex/7.png,images/complex/10.png,images/complex/2.png","2","null","","200","465.39999999658903","","","","background","",""
"","null","html-keyboard-response","268","333468","0.0-20.0-0.27","SS1604609538444","","null","","","","","","","","","","","","<img src=images/blank.png width =""500"" height = ""500"" style=""border:5px solid black"">","","",""
"","113.52500000066357","stimulus-presentation","269","333788","0.0-20.0-1.27","SS1604609538444","<img src='images/simple/5.png' width ='500' height = '500' style='border:5px solid black'>","40","mixed_complex_deviant","images/simple/14.png","images/simple/5.png","images/complex/12.png,images/complex/11.png,images/complex/14.png,images/complex/18.png,images/complex/7.png,images/complex/10.png,images/complex/2.png","2","null","","200","313.52500000066357","","","","background","",""
"","null","html-keyboard-response","270","334863","0.0-20.0-0.28","SS1604609538444","","null","","","","","","","","","","","","<img src=images/blank.png width =""500"" height = ""500"" style=""border:5px solid black"">","","",""
"","3505.7400000005146","stimulus-presentation","271","338575","0.0-20.0-1.28","SS1604609538444","<img src='images/simple/5.png' width ='500' height = '500' style='border:5px solid black'>","40","mixed_complex_deviant","images/simple/14.png","images/simple/5.png","images/complex/12.png,images/complex/11.png,images/complex/14.png,images/complex/18.png,images/complex/7.png,images/complex/10.png,images/complex/2.png","2","null","","200","3705.7400000005146","","","","background","",""
"","null","html-keyboard-response","272","339534","0.0-20.0-0.29","SS1604609538444","","null","","","","","","","","","","","","<img src=images/blank.png width =""500"" height = ""500"" style=""border:5px solid black"">","","",""
"","136.55500000459142","stimulus-presentation","273","339874","0.0-20.0-1.29","SS1604609538444","<img src='images/simple/5.png' width ='500' height = '500' style='border:5px solid black'>","40","mixed_complex_deviant","images/simple/14.png","images/simple/5.png","images/complex/12.png,images/complex/11.png,images/complex/14.png,images/complex/18.png,images/complex/7.png,images/complex/10.png,images/complex/2.png","2","null","","200","336.5550000045914","","","","background","",""
"","null","html-keyboard-response","274","340863","0.0-20.0-0.30","SS1604609538444","","null","","","","","","","","","","","","<img src=images/blank.png width =""500"" height = ""500"" style=""border:5px solid black"">","","",""
"","490.52999999548774","stimulus-presentation","275","341564","0.0-20.0-1.30","SS1604609538444","<img src='images/simple/14.png' width ='500' height = '500' style='border:5px solid black'>","40","mixed_complex_deviant","images/simple/14.png","images/simple/5.png","images/complex/12.png,images/complex/11.png,images/complex/14.png,images/complex/18.png,images/complex/7.png,images/complex/10.png,images/complex/2.png","2","null","","200","690.5299999954877","yes","155.1949999993667","","target","",""
"","null","html-keyboard-response","276","342475","0.0-20.0-0.31","SS1604609538444","","null","","","","","","","","","","","","<img src=images/blank.png width =""500"" height = ""500"" style=""border:5px solid black"">","","",""
"","660.4149999984656","stimulus-presentation","277","343344","0.0-20.0-1.31","SS1604609538444","<img src='images/complex/2.png' width ='500' height = '500' style='border:5px solid black'>","40","mixed_complex_deviant","images/simple/14.png","images/simple/5.png","images/complex/12.png,images/complex/11.png,images/complex/14.png,images/complex/18.png,images/complex/7.png,images/complex/10.png,images/complex/2.png","2","null","","200","860.4149999984656","","","","deviant","",""
"","null","html-keyboard-response","278","344239","0.0-20.0-0.32","SS1604609538444","","null","","","","","","","","","","","","<img src=images/blank.png width =""500"" height = ""500"" style=""border:5px solid black"">","","",""
"","163.59499999816762","stimulus-presentation","279","344614","0.0-20.0-1.32","SS1604609538444","<img src='images/simple/5.png' width ='500' height = '500' style='border:5px solid black'>","40","mixed_complex_deviant","images/simple/14.png","images/simple/5.png","images/complex/12.png,images/complex/11.png,images/complex/14.png,images/complex/18.png,images/complex/7.png,images/complex/10.png,images/complex/2.png","2","null","","200","363.5949999981676","","","","background","",""
"","null","html-keyboard-response","280","345651","0.0-20.0-0.33","SS1604609538444","","null","","","","","","","","","","","","<img src=images/blank.png width =""500"" height = ""500"" style=""border:5px solid black"">","","",""
"","639.790000001085","stimulus-presentation","281","346497","0.0-20.0-1.33","SS1604609538444","<img src='images/simple/14.png' width ='500' height = '500' style='border:5px solid black'>","40","mixed_complex_deviant","images/simple/14.png","images/simple/5.png","images/complex/12.png,images/complex/11.png,images/complex/14.png,images/complex/18.png,images/complex/7.png,images/complex/10.png,images/complex/2.png","2","null","","200","839.790000001085","yes","281.7349999968428","","target","",""
"","null","html-keyboard-response","282","347737","0.0-20.0-0.34","SS1604609538444","","null","","","","","","","","","","","","<img src=images/blank.png width =""500"" height = ""500"" style=""border:5px solid black"">","","",""
"","139.45999999850756","stimulus-presentation","283","348082","0.0-20.0-1.34","SS1604609538444","<img src='images/simple/5.png' width ='500' height = '500' style='border:5px solid black'>","40","mixed_complex_deviant","images/simple/14.png","images/simple/5.png","images/complex/12.png,images/complex/11.png,images/complex/14.png,images/complex/18.png,images/complex/7.png,images/complex/10.png,images/complex/2.png","2","null","","200","339.45999999850756","","","","background","",""
"","null","html-keyboard-response","284","349065","0.0-20.0-0.35","SS1604609538444","","null","","","","","","","","","","","","<img src=images/blank.png width =""500"" height = ""500"" style=""border:5px solid black"">","","",""
