"view_history","rt","trial_type","trial_index","time_elapsed","internal_node_id","subject","trial_stimulus","key_press","task_type","task_target_stimulus","task_background_stimulus","task_deviant_stimuli","task_order_number","block_order_number","trial_order_number","minimum_viewing_duration","trial_looking_time","trial_pressed_space_bar","trial_space_bar_rt","stimulus","trial_stimulus_type","responses","question_order"
"[{""page_index"":0,""viewing_time"":15182.140000004438}]","15189.445000010892","instructions","0","15237","0.0-0.0","SS1604513249631","","","","","","","","","","","","","","","","",""
"[{""page_index"":0,""viewing_time"":4481.445000012172},{""page_index"":1,""viewing_time"":6555.775000000722},{""page_index"":2,""viewing_time"":1422.854999997071},{""page_index"":3,""viewing_time"":6350.120000002789},{""page_index"":4,""viewing_time"":3145.1799999922514},{""page_index"":5,""viewing_time"":3668.969999998808},{""page_index"":6,""viewing_time"":2195.930000001681},{""page_index"":7,""viewing_time"":4875.27499999851},{""page_index"":8,""viewing_time"":2190.7800000044517}]","34887.69500001217","instructions","1","50140","0.0-1.0","SS1604513249631","","","","","","","","","","","","","","","","",""
"[{""page_index"":0,""viewing_time"":4541.80500000075},{""page_index"":1,""viewing_time"":9266.900000002352},{""page_index"":2,""viewing_time"":1395.7400000072084}]","15205.860000001849","instructions","2","65362","0.0-2.0","SS1604513249631","","","","","","","","","","","","","","","","",""
"","2943.0350000038743","practice-block","3","68537","0.0-3.0","SS1604513249631","<img src='images/practice/practice_background.jpeg' width ='500' height = '500' style='border:5px solid black'>","40","null","images/practice/practice_target.jpg","null","null","null","null","","200","3143.0350000038743","","","","","",""
"","null","html-keyboard-response","4","69674","0.0-4.0","SS1604513249631","","null","","","","","","","","","","","","<img src=images/blank.png width =""500"" height = ""500"" style=""border:5px solid black"">","","",""
"","426.91999999806285","practice-block","5","70323","0.0-5.0","SS1604513249631","<img src='images/practice/practice_background.jpeg' width ='500' height = '500' style='border:5px solid black'>","40","null","images/practice/practice_target.jpg","null","null","null","null","","200","626.9199999980628","","","","","",""
"","null","html-keyboard-response","6","71198","0.0-6.0","SS1604513249631","","null","","","","","","","","","","","","<img src=images/blank.png width =""500"" height = ""500"" style=""border:5px solid black"">","","",""
"","596.3100000080885","practice-block","7","72016","0.0-7.0","SS1604513249631","<img src='images/practice/practice_deviant.jpeg' width ='500' height = '500' style='border:5px solid black'>","40","null","images/practice/practice_target.jpg","null","null","null","null","","200","796.3100000080885","","","","","",""
"","null","html-keyboard-response","8","72908","0.0-8.0","SS1604513249631","","null","","","","","","","","","","","","<img src=images/blank.png width =""500"" height = ""500"" style=""border:5px solid black"">","","",""
"","4753.73500000569","practice-block","9","77885","0.0-9.0-0.0","SS1604513249631","<img src='images/practice/practice_target.jpg' width ='500' height = '500' style='border:5px solid black'>","40","null","images/practice/practice_target.jpg","null","null","null","null","","200","4953.73500000569","yes","210.73000000615139","","","",""
"","null","html-keyboard-response","10","79010","0.0-10.0","SS1604513249631","","null","","","","","","","","","","","","<img src=images/blank.png width =""500"" height = ""500"" style=""border:5px solid black"">","","",""
"","263.7950000062119","practice-block","11","79500","0.0-11.0","SS1604513249631","<img src='images/practice/practice_background.jpeg' width ='500' height = '500' style='border:5px solid black'>","40","null","images/practice/practice_target.jpg","null","null","null","null","","200","463.7950000062119","","","","","",""
"[{""page_index"":0,""viewing_time"":1845}]","1846","task-instructions","12","81365","0.0-12.0","SS1604513249631","","","","","","","","","","","","","","","","",""
"[{""page_index"":0,""viewing_time"":1655.6599999894388},{""page_index"":1,""viewing_time"":1788.475000008475},{""page_index"":2,""viewing_time"":1056.2150000041584}]","4501.564999998664","instructions","13","85884","0.0-13.0","SS1604513249631","","","","","","","","","","","","","","","","",""
"","null","html-keyboard-response","14","87049","0.0-14.0-0.0","SS1604513249631","","null","","","","","","","","","","","","<img src=images/blank.png width =""500"" height = ""500"" style=""border:5px solid black"">","","",""
"","2050.904999996419","stimulus-presentation","15","89336","0.0-14.0-1.0","SS1604513249631","<img src='images/simple/7.png' width ='500' height = '500' style='border:5px solid black'>","40","all_simple","images/simple/1.png","images/simple/14.png","images/simple/7.png,images/simple/15.png,images/simple/4.png,images/simple/17.png,images/simple/11.png,images/simple/5.png,images/simple/10.png","0","null","","200","2250.904999996419","","","","deviant","",""
"","null","html-keyboard-response","16","90261","0.0-14.0-0.1","SS1604513249631","","null","","","","","","","","","","","","<img src=images/blank.png width =""500"" height = ""500"" style=""border:5px solid black"">","","",""
"","286.9749999954365","stimulus-presentation","17","90778","0.0-14.0-1.1","SS1604513249631","<img src='images/simple/14.png' width ='500' height = '500' style='border:5px solid black'>","40","all_simple","images/simple/1.png","images/simple/14.png","images/simple/7.png,images/simple/15.png,images/simple/4.png,images/simple/17.png,images/simple/11.png,images/simple/5.png,images/simple/10.png","0","null","","200","486.9749999954365","","","","background","",""
"","null","html-keyboard-response","18","91879","0.0-14.0-0.2","SS1604513249631","","null","","","","","","","","","","","","<img src=images/blank.png width =""500"" height = ""500"" style=""border:5px solid black"">","","",""
"","149.61500000208616","stimulus-presentation","19","92257","0.0-14.0-1.2","SS1604513249631","<img src='images/simple/14.png' width ='500' height = '500' style='border:5px solid black'>","40","all_simple","images/simple/1.png","images/simple/14.png","images/simple/7.png,images/simple/15.png,images/simple/4.png,images/simple/17.png,images/simple/11.png,images/simple/5.png,images/simple/10.png","0","null","","200","349.61500000208616","","","","background","",""
"","null","html-keyboard-response","20","93293","0.0-14.0-0.3","SS1604513249631","","null","","","","","","","","","","","","<img src=images/blank.png width =""500"" height = ""500"" style=""border:5px solid black"">","","",""
"","1247.0100000064122","stimulus-presentation","21","94781","0.0-14.0-1.3","SS1604513249631","<img src='images/simple/1.png' width ='500' height = '500' style='border:5px solid black'>","40","all_simple","images/simple/1.png","images/simple/14.png","images/simple/7.png,images/simple/15.png,images/simple/4.png,images/simple/17.png,images/simple/11.png,images/simple/5.png,images/simple/10.png","0","null","","200","1447.0100000064122","yes","211.03500000026543","","target","",""
"","null","html-keyboard-response","22","95940","0.0-14.0-0.4","SS1604513249631","","null","","","","","","","","","","","","<img src=images/blank.png width =""500"" height = ""500"" style=""border:5px solid black"">","","",""
"","280.87499999674037","stimulus-presentation","23","96482","0.0-14.0-1.4","SS1604513249631","<img src='images/simple/14.png' width ='500' height = '500' style='border:5px solid black'>","40","all_simple","images/simple/1.png","images/simple/14.png","images/simple/7.png,images/simple/15.png,images/simple/4.png,images/simple/17.png,images/simple/11.png,images/simple/5.png,images/simple/10.png","0","null","","200","480.87499999674037","","","","background","",""
"","null","html-keyboard-response","24","97395","0.0-14.0-0.5","SS1604513249631","","null","","","","","","","","","","","","<img src=images/blank.png width =""500"" height = ""500"" style=""border:5px solid black"">","","",""
"","132.93999999586958","stimulus-presentation","25","97760","0.0-14.0-1.5","SS1604513249631","<img src='images/simple/14.png' width ='500' height = '500' style='border:5px solid black'>","40","all_simple","images/simple/1.png","images/simple/14.png","images/simple/7.png,images/simple/15.png,images/simple/4.png,images/simple/17.png,images/simple/11.png,images/simple/5.png,images/simple/10.png","0","null","","200","332.9399999958696","","","","background","",""
"","null","html-keyboard-response","26","99014","0.0-14.0-0.6","SS1604513249631","","null","","","","","","","","","","","","<img src=images/blank.png width =""500"" height = ""500"" style=""border:5px solid black"">","","",""
"","189.8700000019744","stimulus-presentation","27","99441","0.0-14.0-1.6","SS1604513249631","<img src='images/simple/14.png' width ='500' height = '500' style='border:5px solid black'>","40","all_simple","images/simple/1.png","images/simple/14.png","images/simple/7.png,images/simple/15.png,images/simple/4.png,images/simple/17.png,images/simple/11.png,images/simple/5.png,images/simple/10.png","0","null","","200","389.8700000019744","","","","background","",""
"","null","html-keyboard-response","28","100538","0.0-14.0-0.7","SS1604513249631","","null","","","","","","","","","","","","<img src=images/blank.png width =""500"" height = ""500"" style=""border:5px solid black"">","","",""
"","199.19500000833068","stimulus-presentation","29","100970","0.0-14.0-1.7","SS1604513249631","<img src='images/simple/14.png' width ='500' height = '500' style='border:5px solid black'>","40","all_simple","images/simple/1.png","images/simple/14.png","images/simple/7.png,images/simple/15.png,images/simple/4.png,images/simple/17.png,images/simple/11.png,images/simple/5.png,images/simple/10.png","0","null","","200","399.1950000083307","","","","background","",""
"","null","html-keyboard-response","30","102229","0.0-14.0-0.8","SS1604513249631","","null","","","","","","","","","","","","<img src=images/blank.png width =""500"" height = ""500"" style=""border:5px solid black"">","","",""
"","138.76000000163913","stimulus-presentation","31","102584","0.0-14.0-1.8","SS1604513249631","<img src='images/simple/14.png' width ='500' height = '500' style='border:5px solid black'>","40","all_simple","images/simple/1.png","images/simple/14.png","images/simple/7.png,images/simple/15.png,images/simple/4.png,images/simple/17.png,images/simple/11.png,images/simple/5.png,images/simple/10.png","0","null","","200","338.7600000016391","","","","background","",""
"","null","html-keyboard-response","32","103493","0.0-14.0-0.9","SS1604513249631","","null","","","","","","","","","","","","<img src=images/blank.png width =""500"" height = ""500"" style=""border:5px solid black"">","","",""
"","906.7099999956554","stimulus-presentation","33","104633","0.0-14.0-1.9","SS1604513249631","<img src='images/simple/1.png' width ='500' height = '500' style='border:5px solid black'>","40","all_simple","images/simple/1.png","images/simple/14.png","images/simple/7.png,images/simple/15.png,images/simple/4.png,images/simple/17.png,images/simple/11.png,images/simple/5.png,images/simple/10.png","0","null","","200","1106.7099999956554","yes","143.1099999899743","","target","",""
"","null","html-keyboard-response","34","105535","0.0-14.0-0.10","SS1604513249631","","null","","","","","","","","","","","","<img src=images/blank.png width =""500"" height = ""500"" style=""border:5px solid black"">","","",""
"","151.78499999456108","stimulus-presentation","35","105930","0.0-14.0-1.10","SS1604513249631","<img src='images/simple/14.png' width ='500' height = '500' style='border:5px solid black'>","40","all_simple","images/simple/1.png","images/simple/14.png","images/simple/7.png,images/simple/15.png,images/simple/4.png,images/simple/17.png,images/simple/11.png,images/simple/5.png,images/simple/10.png","0","null","","200","351.7849999945611","","","","background","",""
"","null","html-keyboard-response","36","106965","0.0-14.0-0.11","SS1604513249631","","null","","","","","","","","","","","","<img src=images/blank.png width =""500"" height = ""500"" style=""border:5px solid black"">","","",""
"","100.23500000534113","stimulus-presentation","37","107303","0.0-14.0-1.11","SS1604513249631","<img src='images/simple/14.png' width ='500' height = '500' style='border:5px solid black'>","40","all_simple","images/simple/1.png","images/simple/14.png","images/simple/7.png,images/simple/15.png,images/simple/4.png,images/simple/17.png,images/simple/11.png,images/simple/5.png,images/simple/10.png","0","null","","200","300.23500000534113","","","","background","",""
"","null","html-keyboard-response","38","108440","0.0-14.0-0.12","SS1604513249631","","null","","","","","","","","","","","","<img src=images/blank.png width =""500"" height = ""500"" style=""border:5px solid black"">","","",""
"","103.16500000772066","stimulus-presentation","39","108782","0.0-14.0-1.12","SS1604513249631","<img src='images/simple/14.png' width ='500' height = '500' style='border:5px solid black'>","40","all_simple","images/simple/1.png","images/simple/14.png","images/simple/7.png,images/simple/15.png,images/simple/4.png,images/simple/17.png,images/simple/11.png,images/simple/5.png,images/simple/10.png","0","null","","200","303.16500000772066","","","","background","",""
"","null","html-keyboard-response","40","109623","0.0-14.0-0.13","SS1604513249631","","null","","","","","","","","","","","","<img src=images/blank.png width =""500"" height = ""500"" style=""border:5px solid black"">","","",""
"","212.27499999804422","stimulus-presentation","41","110073","0.0-14.0-1.13","SS1604513249631","<img src='images/simple/14.png' width ='500' height = '500' style='border:5px solid black'>","40","all_simple","images/simple/1.png","images/simple/14.png","images/simple/7.png,images/simple/15.png,images/simple/4.png,images/simple/17.png,images/simple/11.png,images/simple/5.png,images/simple/10.png","0","null","","200","412.2749999980442","","","","background","",""
"","null","html-keyboard-response","42","110930","0.0-14.0-0.14","SS1604513249631","","null","","","","","","","","","","","","<img src=images/blank.png width =""500"" height = ""500"" style=""border:5px solid black"">","","",""
"","1686.6350000054808","stimulus-presentation","43","112857","0.0-14.0-1.14","SS1604513249631","<img src='images/simple/1.png' width ='500' height = '500' style='border:5px solid black'>","40","all_simple","images/simple/1.png","images/simple/14.png","images/simple/7.png,images/simple/15.png,images/simple/4.png,images/simple/17.png,images/simple/11.png,images/simple/5.png,images/simple/10.png","0","null","","200","1886.6350000054808","yes","167.4150000035297","","target","",""
"","null","html-keyboard-response","44","113749","0.0-14.0-0.15","SS1604513249631","","null","","","","","","","","","","","","<img src=images/blank.png width =""500"" height = ""500"" style=""border:5px solid black"">","","",""
"","49.8550000047544","stimulus-presentation","45","114041","0.0-14.0-1.15","SS1604513249631","<img src='images/simple/14.png' width ='500' height = '500' style='border:5px solid black'>","40","all_simple","images/simple/1.png","images/simple/14.png","images/simple/7.png,images/simple/15.png,images/simple/4.png,images/simple/17.png,images/simple/11.png,images/simple/5.png,images/simple/10.png","0","null","","200","249.8550000047544","","","","background","",""
"","null","html-keyboard-response","46","115348","0.0-14.0-0.16","SS1604513249631","","null","","","","","","","","","","","","<img src=images/blank.png width =""500"" height = ""500"" style=""border:5px solid black"">","","",""
"","246.95499999506865","stimulus-presentation","47","115835","0.0-14.0-1.16","SS1604513249631","<img src='images/simple/14.png' width ='500' height = '500' style='border:5px solid black'>","40","all_simple","images/simple/1.png","images/simple/14.png","images/simple/7.png,images/simple/15.png,images/simple/4.png,images/simple/17.png,images/simple/11.png,images/simple/5.png,images/simple/10.png","0","null","","200","446.95499999506865","","","","background","",""
"","null","html-keyboard-response","48","117131","0.0-14.0-0.17","SS1604513249631","","null","","","","","","","","","","","","<img src=images/blank.png width =""500"" height = ""500"" style=""border:5px solid black"">","","",""
"","116.77000000781845","stimulus-presentation","49","117492","0.0-14.0-1.17","SS1604513249631","<img src='images/simple/14.png' width ='500' height = '500' style='border:5px solid black'>","40","all_simple","images/simple/1.png","images/simple/14.png","images/simple/7.png,images/simple/15.png,images/simple/4.png,images/simple/17.png,images/simple/11.png,images/simple/5.png,images/simple/10.png","0","null","","200","316.77000000781845","","","","background","",""
"","null","html-keyboard-response","50","118520","0.0-14.0-0.18","SS1604513249631","","null","","","","","","","","","","","","<img src=images/blank.png width =""500"" height = ""500"" style=""border:5px solid black"">","","",""
"","147.7900000027148","stimulus-presentation","51","118918","0.0-14.0-1.18","SS1604513249631","<img src='images/simple/14.png' width ='500' height = '500' style='border:5px solid black'>","40","all_simple","images/simple/1.png","images/simple/14.png","images/simple/7.png,images/simple/15.png,images/simple/4.png,images/simple/17.png,images/simple/11.png,images/simple/5.png,images/simple/10.png","0","null","","200","347.7900000027148","","","","background","",""
"","null","html-keyboard-response","52","119825","0.0-14.0-0.19","SS1604513249631","","null","","","","","","","","","","","","<img src=images/blank.png width =""500"" height = ""500"" style=""border:5px solid black"">","","",""
"","124.08999999752268","stimulus-presentation","53","120197","0.0-14.0-1.19","SS1604513249631","<img src='images/simple/14.png' width ='500' height = '500' style='border:5px solid black'>","40","all_simple","images/simple/1.png","images/simple/14.png","images/simple/7.png,images/simple/15.png,images/simple/4.png,images/simple/17.png,images/simple/11.png,images/simple/5.png,images/simple/10.png","0","null","","200","324.0899999975227","","","","background","",""
"","null","html-keyboard-response","54","121227","0.0-14.0-0.20","SS1604513249631","","null","","","","","","","","","","","","<img src=images/blank.png width =""500"" height = ""500"" style=""border:5px solid black"">","","",""
"","635.8350000082282","stimulus-presentation","55","122112","0.0-14.0-1.20","SS1604513249631","<img src='images/simple/1.png' width ='500' height = '500' style='border:5px solid black'>","40","all_simple","images/simple/1.png","images/simple/14.png","images/simple/7.png,images/simple/15.png,images/simple/4.png,images/simple/17.png,images/simple/11.png,images/simple/5.png,images/simple/10.png","0","null","","200","835.8350000082282","yes","108.53500000666827","","target","",""
"","null","html-keyboard-response","56","123431","0.0-14.0-0.21","SS1604513249631","","null","","","","","","","","","","","","<img src=images/blank.png width =""500"" height = ""500"" style=""border:5px solid black"">","","",""
"","100.95999999612104","stimulus-presentation","57","123779","0.0-14.0-1.21","SS1604513249631","<img src='images/simple/4.png' width ='500' height = '500' style='border:5px solid black'>","40","all_simple","images/simple/1.png","images/simple/14.png","images/simple/7.png,images/simple/15.png,images/simple/4.png,images/simple/17.png,images/simple/11.png,images/simple/5.png,images/simple/10.png","0","null","","200","300.95999999612104","","","","deviant","",""
"","null","html-keyboard-response","58","124758","0.0-14.0-0.22","SS1604513249631","","null","","","","","","","","","","","","<img src=images/blank.png width =""500"" height = ""500"" style=""border:5px solid black"">","","",""
"","136.6450000059558","stimulus-presentation","59","125139","0.0-14.0-1.22","SS1604513249631","<img src='images/simple/14.png' width ='500' height = '500' style='border:5px solid black'>","40","all_simple","images/simple/1.png","images/simple/14.png","images/simple/7.png,images/simple/15.png,images/simple/4.png,images/simple/17.png,images/simple/11.png,images/simple/5.png,images/simple/10.png","0","null","","200","336.6450000059558","","","","background","",""
"","null","html-keyboard-response","60","126426","0.0-14.0-0.23","SS1604513249631","","null","","","","","","","","","","","","<img src=images/blank.png width =""500"" height = ""500"" style=""border:5px solid black"">","","",""
"","152.00499999627937","stimulus-presentation","61","126828","0.0-14.0-1.23","SS1604513249631","<img src='images/simple/14.png' width ='500' height = '500' style='border:5px solid black'>","40","all_simple","images/simple/1.png","images/simple/14.png","images/simple/7.png,images/simple/15.png,images/simple/4.png,images/simple/17.png,images/simple/11.png,images/simple/5.png,images/simple/10.png","0","null","","200","352.00499999627937","","","","background","",""
"","null","html-keyboard-response","62","128196","0.0-14.0-0.24","SS1604513249631","","null","","","","","","","","","","","","<img src=images/blank.png width =""500"" height = ""500"" style=""border:5px solid black"">","","",""
"","92.18500000133645","stimulus-presentation","63","128512","0.0-14.0-1.24","SS1604513249631","<img src='images/simple/14.png' width ='500' height = '500' style='border:5px solid black'>","40","all_simple","images/simple/1.png","images/simple/14.png","images/simple/7.png,images/simple/15.png,images/simple/4.png,images/simple/17.png,images/simple/11.png,images/simple/5.png,images/simple/10.png","0","null","","200","292.18500000133645","","","","background","",""
"","null","html-keyboard-response","64","129505","0.0-14.0-0.25","SS1604513249631","","null","","","","","","","","","","","","<img src=images/blank.png width =""500"" height = ""500"" style=""border:5px solid black"">","","",""
"","335.7199999882141","stimulus-presentation","65","130095","0.0-14.0-1.25","SS1604513249631","<img src='images/simple/5.png' width ='500' height = '500' style='border:5px solid black'>","40","all_simple","images/simple/1.png","images/simple/14.png","images/simple/7.png,images/simple/15.png,images/simple/4.png,images/simple/17.png,images/simple/11.png,images/simple/5.png,images/simple/10.png","0","null","","200","535.7199999882141","","","","deviant","",""
"","null","html-keyboard-response","66","131069","0.0-14.0-0.26","SS1604513249631","","null","","","","","","","","","","","","<img src=images/blank.png width =""500"" height = ""500"" style=""border:5px solid black"">","","",""
"","630.5950000096345","stimulus-presentation","67","131953","0.0-14.0-1.26","SS1604513249631","<img src='images/simple/1.png' width ='500' height = '500' style='border:5px solid black'>","40","all_simple","images/simple/1.png","images/simple/14.png","images/simple/7.png,images/simple/15.png,images/simple/4.png,images/simple/17.png,images/simple/11.png,images/simple/5.png,images/simple/10.png","0","null","","200","830.5950000096345","yes","222.6550000050338","","target","",""
"","null","html-keyboard-response","68","133003","0.0-14.0-0.27","SS1604513249631","","null","","","","","","","","","","","","<img src=images/blank.png width =""500"" height = ""500"" style=""border:5px solid black"">","","",""
"","98.91000000061467","stimulus-presentation","69","133362","0.0-14.0-1.27","SS1604513249631","<img src='images/simple/14.png' width ='500' height = '500' style='border:5px solid black'>","40","all_simple","images/simple/1.png","images/simple/14.png","images/simple/7.png,images/simple/15.png,images/simple/4.png,images/simple/17.png,images/simple/11.png,images/simple/5.png,images/simple/10.png","0","null","","200","298.9100000006147","","","","background","",""
"","null","html-keyboard-response","70","134415","0.0-14.0-0.28","SS1604513249631","","null","","","","","","","","","","","","<img src=images/blank.png width =""500"" height = ""500"" style=""border:5px solid black"">","","",""
"","72.98500000615604","stimulus-presentation","71","134748","0.0-14.0-1.28","SS1604513249631","<img src='images/simple/14.png' width ='500' height = '500' style='border:5px solid black'>","40","all_simple","images/simple/1.png","images/simple/14.png","images/simple/7.png,images/simple/15.png,images/simple/4.png,images/simple/17.png,images/simple/11.png,images/simple/5.png,images/simple/10.png","0","null","","200","272.98500000615604","","","","background","",""
"","null","html-keyboard-response","72","135778","0.0-14.0-0.29","SS1604513249631","","null","","","","","","","","","","","","<img src=images/blank.png width =""500"" height = ""500"" style=""border:5px solid black"">","","",""
"","171.45999999775086","stimulus-presentation","73","136203","0.0-14.0-1.29","SS1604513249631","<img src='images/simple/15.png' width ='500' height = '500' style='border:5px solid black'>","40","all_simple","images/simple/1.png","images/simple/14.png","images/simple/7.png,images/simple/15.png,images/simple/4.png,images/simple/17.png,images/simple/11.png,images/simple/5.png,images/simple/10.png","0","null","","200","371.45999999775086","","","","deviant","",""
"","null","html-keyboard-response","74","137391","0.0-14.0-0.30","SS1604513249631","","null","","","","","","","","","","","","<img src=images/blank.png width =""500"" height = ""500"" style=""border:5px solid black"">","","",""
"","45.21999999997206","stimulus-presentation","75","137680","0.0-14.0-1.30","SS1604513249631","<img src='images/simple/14.png' width ='500' height = '500' style='border:5px solid black'>","40","all_simple","images/simple/1.png","images/simple/14.png","images/simple/7.png,images/simple/15.png,images/simple/4.png,images/simple/17.png,images/simple/11.png,images/simple/5.png,images/simple/10.png","0","null","","200","245.21999999997206","","","","background","",""
"","null","html-keyboard-response","76","138651","0.0-14.0-0.31","SS1604513249631","","null","","","","","","","","","","","","<img src=images/blank.png width =""500"" height = ""500"" style=""border:5px solid black"">","","",""
"","164.82499999983702","stimulus-presentation","77","139061","0.0-14.0-1.31","SS1604513249631","<img src='images/simple/14.png' width ='500' height = '500' style='border:5px solid black'>","40","all_simple","images/simple/1.png","images/simple/14.png","images/simple/7.png,images/simple/15.png,images/simple/4.png,images/simple/17.png,images/simple/11.png,images/simple/5.png,images/simple/10.png","0","null","","200","364.824999999837","","","","background","",""
"","null","html-keyboard-response","78","140196","0.0-14.0-0.32","SS1604513249631","","null","","","","","","","","","","","","<img src=images/blank.png width =""500"" height = ""500"" style=""border:5px solid black"">","","",""
"","93.01500000583474","stimulus-presentation","79","140515","0.0-14.0-1.32","SS1604513249631","<img src='images/simple/11.png' width ='500' height = '500' style='border:5px solid black'>","40","all_simple","images/simple/1.png","images/simple/14.png","images/simple/7.png,images/simple/15.png,images/simple/4.png,images/simple/17.png,images/simple/11.png,images/simple/5.png,images/simple/10.png","0","null","","200","293.01500000583474","","","","deviant","",""
"","null","html-keyboard-response","80","141721","0.0-14.0-0.33","SS1604513249631","","null","","","","","","","","","","","","<img src=images/blank.png width =""500"" height = ""500"" style=""border:5px solid black"">","","",""
"","103.47499999625143","stimulus-presentation","81","142083","0.0-14.0-1.33","SS1604513249631","<img src='images/simple/14.png' width ='500' height = '500' style='border:5px solid black'>","40","all_simple","images/simple/1.png","images/simple/14.png","images/simple/7.png,images/simple/15.png,images/simple/4.png,images/simple/17.png,images/simple/11.png,images/simple/5.png,images/simple/10.png","0","null","","200","303.4749999962514","","","","background","",""
"","null","html-keyboard-response","82","143004","0.0-14.0-0.34","SS1604513249631","","null","","","","","","","","","","","","<img src=images/blank.png width =""500"" height = ""500"" style=""border:5px solid black"">","","",""
"","546.1349999968661","stimulus-presentation","83","143810","0.0-14.0-1.34","SS1604513249631","<img src='images/simple/1.png' width ='500' height = '500' style='border:5px solid black'>","40","all_simple","images/simple/1.png","images/simple/14.png","images/simple/7.png,images/simple/15.png,images/simple/4.png,images/simple/17.png,images/simple/11.png,images/simple/5.png,images/simple/10.png","0","null","","200","746.1349999968661","yes","165.08500000054482","","target","",""
"","null","html-keyboard-response","84","144694","0.0-14.0-0.35","SS1604513249631","","null","","","","","","","","","","","","<img src=images/blank.png width =""500"" height = ""500"" style=""border:5px solid black"">","","",""
"","1350.0150000036228","stimulus-presentation","85","146301","0.0-14.0-1.35","SS1604513249631","<img src='images/simple/17.png' width ='500' height = '500' style='border:5px solid black'>","40","all_simple","images/simple/1.png","images/simple/14.png","images/simple/7.png,images/simple/15.png,images/simple/4.png,images/simple/17.png,images/simple/11.png,images/simple/5.png,images/simple/10.png","0","null","","200","1550.0150000036228","","","","deviant","",""
"","null","html-keyboard-response","86","147292","0.0-14.0-0.36","SS1604513249631","","null","","","","","","","","","","","","<img src=images/blank.png width =""500"" height = ""500"" style=""border:5px solid black"">","","",""
"","2276.2300000031246","stimulus-presentation","87","149815","0.0-14.0-1.36","SS1604513249631","<img src='images/simple/14.png' width ='500' height = '500' style='border:5px solid black'>","40","all_simple","images/simple/1.png","images/simple/14.png","images/simple/7.png,images/simple/15.png,images/simple/4.png,images/simple/17.png,images/simple/11.png,images/simple/5.png,images/simple/10.png","0","null","","200","2476.2300000031246","","","","background","",""
"","null","html-keyboard-response","88","150769","0.0-14.0-0.37","SS1604513249631","","null","","","","","","","","","","","","<img src=images/blank.png width =""500"" height = ""500"" style=""border:5px solid black"">","","",""
"","161.7650000116555","stimulus-presentation","89","151181","0.0-14.0-1.37","SS1604513249631","<img src='images/simple/1.png' width ='500' height = '500' style='border:5px solid black'>","40","all_simple","images/simple/1.png","images/simple/14.png","images/simple/7.png,images/simple/15.png,images/simple/4.png,images/simple/17.png,images/simple/11.png,images/simple/5.png,images/simple/10.png","0","null","","200","361.7650000116555","","","","target","",""
"","null","html-keyboard-response","90","152264","0.0-14.0-0.38","SS1604513249631","","null","","","","","","","","","","","","<img src=images/blank.png width =""500"" height = ""500"" style=""border:5px solid black"">","","",""
"","171.2050000060117","stimulus-presentation","91","152687","0.0-14.0-1.38","SS1604513249631","<img src='images/simple/14.png' width ='500' height = '500' style='border:5px solid black'>","40","all_simple","images/simple/1.png","images/simple/14.png","images/simple/7.png,images/simple/15.png,images/simple/4.png,images/simple/17.png,images/simple/11.png,images/simple/5.png,images/simple/10.png","0","null","","200","371.2050000060117","","","","background","",""
"","null","html-keyboard-response","92","153652","0.0-14.0-0.39","SS1604513249631","","null","","","","","","","","","","","","<img src=images/blank.png width =""500"" height = ""500"" style=""border:5px solid black"">","","",""
"","47.1700000052806","stimulus-presentation","93","153949","0.0-14.0-1.39","SS1604513249631","<img src='images/simple/14.png' width ='500' height = '500' style='border:5px solid black'>","40","all_simple","images/simple/1.png","images/simple/14.png","images/simple/7.png,images/simple/15.png,images/simple/4.png,images/simple/17.png,images/simple/11.png,images/simple/5.png,images/simple/10.png","0","null","","200","247.1700000052806","","","","background","",""
"","null","html-keyboard-response","94","155292","0.0-14.0-0.40","SS1604513249631","","null","","","","","","","","","","","","<img src=images/blank.png width =""500"" height = ""500"" style=""border:5px solid black"">","","",""
"","1174.060000004829","stimulus-presentation","95","156720","0.0-14.0-1.40","SS1604513249631","<img src='images/simple/14.png' width ='500' height = '500' style='border:5px solid black'>","40","all_simple","images/simple/1.png","images/simple/14.png","images/simple/7.png,images/simple/15.png,images/simple/4.png,images/simple/17.png,images/simple/11.png,images/simple/5.png,images/simple/10.png","0","null","","200","1374.060000004829","","","","background","",""
"","null","html-keyboard-response","96","157858","0.0-14.0-0.41","SS1604513249631","","null","","","","","","","","","","","","<img src=images/blank.png width =""500"" height = ""500"" style=""border:5px solid black"">","","",""
"","114.93000001064502","stimulus-presentation","97","158234","0.0-14.0-1.41","SS1604513249631","<img src='images/simple/14.png' width ='500' height = '500' style='border:5px solid black'>","40","all_simple","images/simple/1.png","images/simple/14.png","images/simple/7.png,images/simple/15.png,images/simple/4.png,images/simple/17.png,images/simple/11.png,images/simple/5.png,images/simple/10.png","0","null","","200","314.930000010645","","","","background","",""
"","null","html-keyboard-response","98","159491","0.0-14.0-0.42","SS1604513249631","","null","","","","","","","","","","","","<img src=images/blank.png width =""500"" height = ""500"" style=""border:5px solid black"">","","",""
"","170.32999999355525","stimulus-presentation","99","159922","0.0-14.0-1.42","SS1604513249631","<img src='images/simple/14.png' width ='500' height = '500' style='border:5px solid black'>","40","all_simple","images/simple/1.png","images/simple/14.png","images/simple/7.png,images/simple/15.png,images/simple/4.png,images/simple/17.png,images/simple/11.png,images/simple/5.png,images/simple/10.png","0","null","","200","370.32999999355525","","","","background","",""
"","null","html-keyboard-response","100","160834","0.0-14.0-0.43","SS1604513249631","","null","","","","","","","","","","","","<img src=images/blank.png width =""500"" height = ""500"" style=""border:5px solid black"">","","",""
"","170.98999999871012","stimulus-presentation","101","161265","0.0-14.0-1.43","SS1604513249631","<img src='images/simple/14.png' width ='500' height = '500' style='border:5px solid black'>","40","all_simple","images/simple/1.png","images/simple/14.png","images/simple/7.png,images/simple/15.png,images/simple/4.png,images/simple/17.png,images/simple/11.png,images/simple/5.png,images/simple/10.png","0","null","","200","370.9899999987101","","","","background","",""
"","null","html-keyboard-response","102","162253","0.0-14.0-0.44","SS1604513249631","","null","","","","","","","","","","","","<img src=images/blank.png width =""500"" height = ""500"" style=""border:5px solid black"">","","",""
"","326.4900000067428","stimulus-presentation","103","162812","0.0-14.0-1.44","SS1604513249631","<img src='images/simple/10.png' width ='500' height = '500' style='border:5px solid black'>","40","all_simple","images/simple/1.png","images/simple/14.png","images/simple/7.png,images/simple/15.png,images/simple/4.png,images/simple/17.png,images/simple/11.png,images/simple/5.png,images/simple/10.png","0","null","","200","526.4900000067428","","","","deviant","",""
"","null","html-keyboard-response","104","163818","0.0-14.0-0.45","SS1604513249631","","null","","","","","","","","","","","","<img src=images/blank.png width =""500"" height = ""500"" style=""border:5px solid black"">","","",""
"","127.63499999709893","stimulus-presentation","105","164198","0.0-14.0-1.45","SS1604513249631","<img src='images/simple/14.png' width ='500' height = '500' style='border:5px solid black'>","40","all_simple","images/simple/1.png","images/simple/14.png","images/simple/7.png,images/simple/15.png,images/simple/4.png,images/simple/17.png,images/simple/11.png,images/simple/5.png,images/simple/10.png","0","null","","200","327.63499999709893","","","","background","",""
"","null","html-keyboard-response","106","165312","0.0-14.0-0.46","SS1604513249631","","null","","","","","","","","","","","","<img src=images/blank.png width =""500"" height = ""500"" style=""border:5px solid black"">","","",""
"","145.86000000417698","stimulus-presentation","107","165692","0.0-14.0-1.46","SS1604513249631","<img src='images/simple/14.png' width ='500' height = '500' style='border:5px solid black'>","40","all_simple","images/simple/1.png","images/simple/14.png","images/simple/7.png,images/simple/15.png,images/simple/4.png,images/simple/17.png,images/simple/11.png,images/simple/5.png,images/simple/10.png","0","null","","200","345.860000004177","","","","background","",""
"","null","html-keyboard-response","108","166808","0.0-14.0-0.47","SS1604513249631","","null","","","","","","","","","","","","<img src=images/blank.png width =""500"" height = ""500"" style=""border:5px solid black"">","","",""
"","105.84499999822583","stimulus-presentation","109","167172","0.0-14.0-1.47","SS1604513249631","<img src='images/simple/14.png' width ='500' height = '500' style='border:5px solid black'>","40","all_simple","images/simple/1.png","images/simple/14.png","images/simple/7.png,images/simple/15.png,images/simple/4.png,images/simple/17.png,images/simple/11.png,images/simple/5.png,images/simple/10.png","0","null","","200","305.84499999822583","","","","background","",""
"","null","html-keyboard-response","110","168306","0.0-14.0-0.48","SS1604513249631","","null","","","","","","","","","","","","<img src=images/blank.png width =""500"" height = ""500"" style=""border:5px solid black"">","","",""
"","133.58500000322238","stimulus-presentation","111","168701","0.0-14.0-1.48","SS1604513249631","<img src='images/simple/14.png' width ='500' height = '500' style='border:5px solid black'>","40","all_simple","images/simple/1.png","images/simple/14.png","images/simple/7.png,images/simple/15.png,images/simple/4.png,images/simple/17.png,images/simple/11.png,images/simple/5.png,images/simple/10.png","0","null","","200","333.5850000032224","","","","background","",""
"[{""page_index"":0,""viewing_time"":4395}]","4396","task-instructions","112","173153","0.0-15.0","SS1604513249631","","","","","","","","","","","","","","","","",""
"[{""page_index"":0,""viewing_time"":2081.8700000090757},{""page_index"":1,""viewing_time"":4584.929999997257},{""page_index"":2,""viewing_time"":1294.6850000007544}]","7962.815000006231","instructions","113","181180","0.0-16.0","SS1604513249631","","","","","","","","","","","","","","","","",""
"","null","html-keyboard-response","114","182110","0.0-17.0-0.0","SS1604513249631","","null","","","","","","","","","","","","<img src=images/blank.png width =""500"" height = ""500"" style=""border:5px solid black"">","","",""
"","852.1099999925354","stimulus-presentation","115","183223","0.0-17.0-1.0","SS1604513249631","<img src='images/complex/9.png' width ='500' height = '500' style='border:5px solid black'>","40","all_complex","images/complex/8.png","images/complex/18.png","images/complex/1.png,images/complex/4.png,images/complex/2.png,images/complex/5.png,images/complex/9.png,images/complex/12.png,images/complex/10.png","1","null","","200","1052.1099999925354","","","","deviant","",""
"","null","html-keyboard-response","116","184240","0.0-17.0-0.1","SS1604513249631","","null","","","","","","","","","","","","<img src=images/blank.png width =""500"" height = ""500"" style=""border:5px solid black"">","","",""
"","108.4300000075018","stimulus-presentation","117","184588","0.0-17.0-1.1","SS1604513249631","<img src='images/complex/18.png' width ='500' height = '500' style='border:5px solid black'>","40","all_complex","images/complex/8.png","images/complex/18.png","images/complex/1.png,images/complex/4.png,images/complex/2.png,images/complex/5.png,images/complex/9.png,images/complex/12.png,images/complex/10.png","1","null","","200","308.4300000075018","","","","background","",""
"","null","html-keyboard-response","118","185891","0.0-17.0-0.2","SS1604513249631","","null","","","","","","","","","","","","<img src=images/blank.png width =""500"" height = ""500"" style=""border:5px solid black"">","","",""
"","33.460000006016344","stimulus-presentation","119","186228","0.0-17.0-1.2","SS1604513249631","<img src='images/complex/18.png' width ='500' height = '500' style='border:5px solid black'>","40","all_complex","images/complex/8.png","images/complex/18.png","images/complex/1.png,images/complex/4.png,images/complex/2.png,images/complex/5.png,images/complex/9.png,images/complex/12.png,images/complex/10.png","1","null","","200","233.46000000601634","","","","background","",""
"","null","html-keyboard-response","120","187118","0.0-17.0-0.3","SS1604513249631","","null","","","","","","","","","","","","<img src=images/blank.png width =""500"" height = ""500"" style=""border:5px solid black"">","","",""
"","174.0250000002561","stimulus-presentation","121","187563","0.0-17.0-1.3","SS1604513249631","<img src='images/complex/2.png' width ='500' height = '500' style='border:5px solid black'>","40","all_complex","images/complex/8.png","images/complex/18.png","images/complex/1.png,images/complex/4.png,images/complex/2.png,images/complex/5.png,images/complex/9.png,images/complex/12.png,images/complex/10.png","1","null","","200","374.0250000002561","","","","deviant","",""
"","null","html-keyboard-response","122","188738","0.0-17.0-0.4","SS1604513249631","","null","","","","","","","","","","","","<img src=images/blank.png width =""500"" height = ""500"" style=""border:5px solid black"">","","",""
"","110.19000000669621","stimulus-presentation","123","189114","0.0-17.0-1.4","SS1604513249631","<img src='images/complex/18.png' width ='500' height = '500' style='border:5px solid black'>","40","all_complex","images/complex/8.png","images/complex/18.png","images/complex/1.png,images/complex/4.png,images/complex/2.png,images/complex/5.png,images/complex/9.png,images/complex/12.png,images/complex/10.png","1","null","","200","310.1900000066962","","","","background","",""
"","null","html-keyboard-response","124","190275","0.0-17.0-0.5","SS1604513249631","","null","","","","","","","","","","","","<img src=images/blank.png width =""500"" height = ""500"" style=""border:5px solid black"">","","",""
"","110.61999999219552","stimulus-presentation","125","190645","0.0-17.0-1.5","SS1604513249631","<img src='images/complex/18.png' width ='500' height = '500' style='border:5px solid black'>","40","all_complex","images/complex/8.png","images/complex/18.png","images/complex/1.png,images/complex/4.png,images/complex/2.png,images/complex/5.png,images/complex/9.png,images/complex/12.png,images/complex/10.png","1","null","","200","310.6199999921955","","","","background","",""
"","null","html-keyboard-response","126","191905","0.0-17.0-0.6","SS1604513249631","","null","","","","","","","","","","","","<img src=images/blank.png width =""500"" height = ""500"" style=""border:5px solid black"">","","",""
"","55.97000000125263","stimulus-presentation","127","192253","0.0-17.0-1.6","SS1604513249631","<img src='images/complex/18.png' width ='500' height = '500' style='border:5px solid black'>","40","all_complex","images/complex/8.png","images/complex/18.png","images/complex/1.png,images/complex/4.png,images/complex/2.png,images/complex/5.png,images/complex/9.png,images/complex/12.png,images/complex/10.png","1","null","","200","255.97000000125263","","","","background","",""
"","null","html-keyboard-response","128","193571","0.0-17.0-0.7","SS1604513249631","","null","","","","","","","","","","","","<img src=images/blank.png width =""500"" height = ""500"" style=""border:5px solid black"">","","",""
"","222.27500000735745","stimulus-presentation","129","194075","0.0-17.0-1.7","SS1604513249631","<img src='images/complex/18.png' width ='500' height = '500' style='border:5px solid black'>","40","all_complex","images/complex/8.png","images/complex/18.png","images/complex/1.png,images/complex/4.png,images/complex/2.png,images/complex/5.png,images/complex/9.png,images/complex/12.png,images/complex/10.png","1","null","","200","422.27500000735745","","","","background","",""
"","null","html-keyboard-response","130","195139","0.0-17.0-0.8","SS1604513249631","","null","","","","","","","","","","","","<img src=images/blank.png width =""500"" height = ""500"" style=""border:5px solid black"">","","",""
"","141.87999999558087","stimulus-presentation","131","195558","0.0-17.0-1.8","SS1604513249631","<img src='images/complex/18.png' width ='500' height = '500' style='border:5px solid black'>","40","all_complex","images/complex/8.png","images/complex/18.png","images/complex/1.png,images/complex/4.png,images/complex/2.png,images/complex/5.png,images/complex/9.png,images/complex/12.png,images/complex/10.png","1","null","","200","341.8799999955809","","","","background","",""
"","null","html-keyboard-response","132","196590","0.0-17.0-0.9","SS1604513249631","","null","","","","","","","","","","","","<img src=images/blank.png width =""500"" height = ""500"" style=""border:5px solid black"">","","",""
"","99.23999999591615","stimulus-presentation","133","196978","0.0-17.0-1.9","SS1604513249631","<img src='images/complex/18.png' width ='500' height = '500' style='border:5px solid black'>","40","all_complex","images/complex/8.png","images/complex/18.png","images/complex/1.png,images/complex/4.png,images/complex/2.png,images/complex/5.png,images/complex/9.png,images/complex/12.png,images/complex/10.png","1","null","","200","299.23999999591615","","","","background","",""
"","null","html-keyboard-response","134","197835","0.0-17.0-0.10","SS1604513249631","","null","","","","","","","","","","","","<img src=images/blank.png width =""500"" height = ""500"" style=""border:5px solid black"">","","",""
"","139.83499999449123","stimulus-presentation","135","198251","0.0-17.0-1.10","SS1604513249631","<img src='images/complex/18.png' width ='500' height = '500' style='border:5px solid black'>","40","all_complex","images/complex/8.png","images/complex/18.png","images/complex/1.png,images/complex/4.png,images/complex/2.png,images/complex/5.png,images/complex/9.png,images/complex/12.png,images/complex/10.png","1","null","","200","339.8349999944912","","","","background","",""
"","null","html-keyboard-response","136","199450","0.0-17.0-0.11","SS1604513249631","","null","","","","","","","","","","","","<img src=images/blank.png width =""500"" height = ""500"" style=""border:5px solid black"">","","",""
"","988.8300000020536","stimulus-presentation","137","200705","0.0-17.0-1.11","SS1604513249631","<img src='images/complex/8.png' width ='500' height = '500' style='border:5px solid black'>","40","all_complex","images/complex/8.png","images/complex/18.png","images/complex/1.png,images/complex/4.png,images/complex/2.png,images/complex/5.png,images/complex/9.png,images/complex/12.png,images/complex/10.png","1","null","","200","1188.8300000020536","yes","266.89499999338295","","target","",""
"","null","html-keyboard-response","138","201925","0.0-17.0-0.12","SS1604513249631","","null","","","","","","","","","","","","<img src=images/blank.png width =""500"" height = ""500"" style=""border:5px solid black"">","","",""
"","91.16999999969266","stimulus-presentation","139","202297","0.0-17.0-1.12","SS1604513249631","<img src='images/complex/18.png' width ='500' height = '500' style='border:5px solid black'>","40","all_complex","images/complex/8.png","images/complex/18.png","images/complex/1.png,images/complex/4.png,images/complex/2.png,images/complex/5.png,images/complex/9.png,images/complex/12.png,images/complex/10.png","1","null","","200","291.16999999969266","","","","background","",""
"","null","html-keyboard-response","140","203541","0.0-17.0-0.13","SS1604513249631","","null","","","","","","","","","","","","<img src=images/blank.png width =""500"" height = ""500"" style=""border:5px solid black"">","","",""
"","57.63999999908265","stimulus-presentation","141","203885","0.0-17.0-1.13","SS1604513249631","<img src='images/complex/8.png' width ='500' height = '500' style='border:5px solid black'>","40","all_complex","images/complex/8.png","images/complex/18.png","images/complex/1.png,images/complex/4.png,images/complex/2.png,images/complex/5.png,images/complex/9.png,images/complex/12.png,images/complex/10.png","1","null","","200","257.63999999908265","","","","target","",""
"","null","html-keyboard-response","142","205103","0.0-17.0-0.14","SS1604513249631","","null","","","","","","","","","","","","<img src=images/blank.png width =""500"" height = ""500"" style=""border:5px solid black"">","","",""
"","78.91499999095686","stimulus-presentation","143","205459","0.0-17.0-1.14","SS1604513249631","<img src='images/complex/18.png' width ='500' height = '500' style='border:5px solid black'>","40","all_complex","images/complex/8.png","images/complex/18.png","images/complex/1.png,images/complex/4.png,images/complex/2.png,images/complex/5.png,images/complex/9.png,images/complex/12.png,images/complex/10.png","1","null","","200","278.91499999095686","","","","background","",""
"","null","html-keyboard-response","144","206529","0.0-17.0-0.15","SS1604513249631","","null","","","","","","","","","","","","<img src=images/blank.png width =""500"" height = ""500"" style=""border:5px solid black"">","","",""
"","49.404999997932464","stimulus-presentation","145","206847","0.0-17.0-1.15","SS1604513249631","<img src='images/complex/8.png' width ='500' height = '500' style='border:5px solid black'>","40","all_complex","images/complex/8.png","images/complex/18.png","images/complex/1.png,images/complex/4.png,images/complex/2.png,images/complex/5.png,images/complex/9.png,images/complex/12.png,images/complex/10.png","1","null","","200","249.40499999793246","","","","target","",""
"","null","html-keyboard-response","146","208090","0.0-17.0-0.16","SS1604513249631","","null","","","","","","","","","","","","<img src=images/blank.png width =""500"" height = ""500"" style=""border:5px solid black"">","","",""
"","240.32499999157153","stimulus-presentation","147","208598","0.0-17.0-1.16","SS1604513249631","<img src='images/complex/5.png' width ='500' height = '500' style='border:5px solid black'>","40","all_complex","images/complex/8.png","images/complex/18.png","images/complex/1.png,images/complex/4.png,images/complex/2.png,images/complex/5.png,images/complex/9.png,images/complex/12.png,images/complex/10.png","1","null","","200","440.32499999157153","","","","deviant","",""
"","null","html-keyboard-response","148","209523","0.0-17.0-0.17","SS1604513249631","","null","","","","","","","","","","","","<img src=images/blank.png width =""500"" height = ""500"" style=""border:5px solid black"">","","",""
"","161.83500000624917","stimulus-presentation","149","209929","0.0-17.0-1.17","SS1604513249631","<img src='images/complex/18.png' width ='500' height = '500' style='border:5px solid black'>","40","all_complex","images/complex/8.png","images/complex/18.png","images/complex/1.png,images/complex/4.png,images/complex/2.png,images/complex/5.png,images/complex/9.png,images/complex/12.png,images/complex/10.png","1","null","","200","361.8350000062492","","","","background","",""
"","null","html-keyboard-response","150","210800","0.0-17.0-0.18","SS1604513249631","","null","","","","","","","","","","","","<img src=images/blank.png width =""500"" height = ""500"" style=""border:5px solid black"">","","",""
"","186.30499999562744","stimulus-presentation","151","211269","0.0-17.0-1.18","SS1604513249631","<img src='images/complex/18.png' width ='500' height = '500' style='border:5px solid black'>","40","all_complex","images/complex/8.png","images/complex/18.png","images/complex/1.png,images/complex/4.png,images/complex/2.png,images/complex/5.png,images/complex/9.png,images/complex/12.png,images/complex/10.png","1","null","","200","386.30499999562744","","","","background","",""
"","null","html-keyboard-response","152","212293","0.0-17.0-0.19","SS1604513249631","","null","","","","","","","","","","","","<img src=images/blank.png width =""500"" height = ""500"" style=""border:5px solid black"">","","",""
"","176.12000000372063","stimulus-presentation","153","212737","0.0-17.0-1.19","SS1604513249631","<img src='images/complex/18.png' width ='500' height = '500' style='border:5px solid black'>","40","all_complex","images/complex/8.png","images/complex/18.png","images/complex/1.png,images/complex/4.png,images/complex/2.png,images/complex/5.png,images/complex/9.png,images/complex/12.png,images/complex/10.png","1","null","","200","376.12000000372063","","","","background","",""
"","null","html-keyboard-response","154","213835","0.0-17.0-0.20","SS1604513249631","","null","","","","","","","","","","","","<img src=images/blank.png width =""500"" height = ""500"" style=""border:5px solid black"">","","",""
"","318.4650000039255","stimulus-presentation","155","214432","0.0-17.0-1.20","SS1604513249631","<img src='images/complex/12.png' width ='500' height = '500' style='border:5px solid black'>","40","all_complex","images/complex/8.png","images/complex/18.png","images/complex/1.png,images/complex/4.png,images/complex/2.png,images/complex/5.png,images/complex/9.png,images/complex/12.png,images/complex/10.png","1","null","","200","518.4650000039255","","","","deviant","",""
"","null","html-keyboard-response","156","215690","0.0-17.0-0.21","SS1604513249631","","null","","","","","","","","","","","","<img src=images/blank.png width =""500"" height = ""500"" style=""border:5px solid black"">","","",""
"","153.48500000254717","stimulus-presentation","157","216095","0.0-17.0-1.21","SS1604513249631","<img src='images/complex/18.png' width ='500' height = '500' style='border:5px solid black'>","40","all_complex","images/complex/8.png","images/complex/18.png","images/complex/1.png,images/complex/4.png,images/complex/2.png,images/complex/5.png,images/complex/9.png,images/complex/12.png,images/complex/10.png","1","null","","200","353.48500000254717","","","","background","",""
"","null","html-keyboard-response","158","217067","0.0-17.0-0.22","SS1604513249631","","null","","","","","","","","","","","","<img src=images/blank.png width =""500"" height = ""500"" style=""border:5px solid black"">","","",""
"","149.61500000208616","stimulus-presentation","159","217492","0.0-17.0-1.22","SS1604513249631","<img src='images/complex/18.png' width ='500' height = '500' style='border:5px solid black'>","40","all_complex","images/complex/8.png","images/complex/18.png","images/complex/1.png,images/complex/4.png,images/complex/2.png,images/complex/5.png,images/complex/9.png,images/complex/12.png,images/complex/10.png","1","null","","200","349.61500000208616","","","","background","",""
"","null","html-keyboard-response","160","218822","0.0-17.0-0.23","SS1604513249631","","null","","","","","","","","","","","","<img src=images/blank.png width =""500"" height = ""500"" style=""border:5px solid black"">","","",""
"","651.8599999981234","stimulus-presentation","161","219747","0.0-17.0-1.23","SS1604513249631","<img src='images/complex/8.png' width ='500' height = '500' style='border:5px solid black'>","40","all_complex","images/complex/8.png","images/complex/18.png","images/complex/1.png,images/complex/4.png,images/complex/2.png,images/complex/5.png,images/complex/9.png,images/complex/12.png,images/complex/10.png","1","null","","200","851.8599999981234","yes","208.35499999520835","","target","",""
"","null","html-keyboard-response","162","220675","0.0-17.0-0.24","SS1604513249631","","null","","","","","","","","","","","","<img src=images/blank.png width =""500"" height = ""500"" style=""border:5px solid black"">","","",""
"","207.4199999915436","stimulus-presentation","163","221168","0.0-17.0-1.24","SS1604513249631","<img src='images/complex/18.png' width ='500' height = '500' style='border:5px solid black'>","40","all_complex","images/complex/8.png","images/complex/18.png","images/complex/1.png,images/complex/4.png,images/complex/2.png,images/complex/5.png,images/complex/9.png,images/complex/12.png,images/complex/10.png","1","null","","200","407.4199999915436","","","","background","",""
"","null","html-keyboard-response","164","222240","0.0-17.0-0.25","SS1604513249631","","null","","","","","","","","","","","","<img src=images/blank.png width =""500"" height = ""500"" style=""border:5px solid black"">","","",""
"","108.12499999883585","stimulus-presentation","165","222598","0.0-17.0-1.25","SS1604513249631","<img src='images/complex/10.png' width ='500' height = '500' style='border:5px solid black'>","40","all_complex","images/complex/8.png","images/complex/18.png","images/complex/1.png,images/complex/4.png,images/complex/2.png,images/complex/5.png,images/complex/9.png,images/complex/12.png,images/complex/10.png","1","null","","200","308.12499999883585","","","","deviant","",""
"","null","html-keyboard-response","166","223958","0.0-17.0-0.26","SS1604513249631","","null","","","","","","","","","","","","<img src=images/blank.png width =""500"" height = ""500"" style=""border:5px solid black"">","","",""
"","141.4399999921443","stimulus-presentation","167","224372","0.0-17.0-1.26","SS1604513249631","<img src='images/complex/18.png' width ='500' height = '500' style='border:5px solid black'>","40","all_complex","images/complex/8.png","images/complex/18.png","images/complex/1.png,images/complex/4.png,images/complex/2.png,images/complex/5.png,images/complex/9.png,images/complex/12.png,images/complex/10.png","1","null","","200","341.4399999921443","","","","background","",""
"","null","html-keyboard-response","168","225441","0.0-17.0-0.27","SS1604513249631","","null","","","","","","","","","","","","<img src=images/blank.png width =""500"" height = ""500"" style=""border:5px solid black"">","","",""
"","171.75999999744818","stimulus-presentation","169","225931","0.0-17.0-1.27","SS1604513249631","<img src='images/complex/18.png' width ='500' height = '500' style='border:5px solid black'>","40","all_complex","images/complex/8.png","images/complex/18.png","images/complex/1.png,images/complex/4.png,images/complex/2.png,images/complex/5.png,images/complex/9.png,images/complex/12.png,images/complex/10.png","1","null","","200","371.7599999974482","","","","background","",""
"","null","html-keyboard-response","170","226931","0.0-17.0-0.28","SS1604513249631","","null","","","","","","","","","","","","<img src=images/blank.png width =""500"" height = ""500"" style=""border:5px solid black"">","","",""
"","162.85500000230968","stimulus-presentation","171","227366","0.0-17.0-1.28","SS1604513249631","<img src='images/complex/18.png' width ='500' height = '500' style='border:5px solid black'>","40","all_complex","images/complex/8.png","images/complex/18.png","images/complex/1.png,images/complex/4.png,images/complex/2.png,images/complex/5.png,images/complex/9.png,images/complex/12.png,images/complex/10.png","1","null","","200","362.8550000023097","","","","background","",""
"","null","html-keyboard-response","172","228482","0.0-17.0-0.29","SS1604513249631","","null","","","","","","","","","","","","<img src=images/blank.png width =""500"" height = ""500"" style=""border:5px solid black"">","","",""
"","507.32499999867287","stimulus-presentation","173","229268","0.0-17.0-1.29","SS1604513249631","<img src='images/complex/8.png' width ='500' height = '500' style='border:5px solid black'>","40","all_complex","images/complex/8.png","images/complex/18.png","images/complex/1.png,images/complex/4.png,images/complex/2.png,images/complex/5.png,images/complex/9.png,images/complex/12.png,images/complex/10.png","1","null","","200","707.3249999986729","yes","175.63500000687782","","target","",""
"","null","html-keyboard-response","174","230341","0.0-17.0-0.30","SS1604513249631","","null","","","","","","","","","","","","<img src=images/blank.png width =""500"" height = ""500"" style=""border:5px solid black"">","","",""
"","85.76000000175554","stimulus-presentation","175","230706","0.0-17.0-1.30","SS1604513249631","<img src='images/complex/18.png' width ='500' height = '500' style='border:5px solid black'>","40","all_complex","images/complex/8.png","images/complex/18.png","images/complex/1.png,images/complex/4.png,images/complex/2.png,images/complex/5.png,images/complex/9.png,images/complex/12.png,images/complex/10.png","1","null","","200","285.76000000175554","","","","background","",""
"","null","html-keyboard-response","176","231870","0.0-17.0-0.31","SS1604513249631","","null","","","","","","","","","","","","<img src=images/blank.png width =""500"" height = ""500"" style=""border:5px solid black"">","","",""
"","3.0200000037439167","stimulus-presentation","177","232212","0.0-17.0-1.31","SS1604513249631","<img src='images/complex/8.png' width ='500' height = '500' style='border:5px solid black'>","40","all_complex","images/complex/8.png","images/complex/18.png","images/complex/1.png,images/complex/4.png,images/complex/2.png,images/complex/5.png,images/complex/9.png,images/complex/12.png,images/complex/10.png","1","null","","200","203.02000000374392","","","","target","",""
"","null","html-keyboard-response","178","233113","0.0-17.0-0.32","SS1604513249631","","null","","","","","","","","","","","","<img src=images/blank.png width =""500"" height = ""500"" style=""border:5px solid black"">","","",""
"","307.4999999953434","stimulus-presentation","179","233696","0.0-17.0-1.32","SS1604513249631","<img src='images/complex/18.png' width ='500' height = '500' style='border:5px solid black'>","40","all_complex","images/complex/8.png","images/complex/18.png","images/complex/1.png,images/complex/4.png,images/complex/2.png,images/complex/5.png,images/complex/9.png,images/complex/12.png,images/complex/10.png","1","null","","200","507.4999999953434","","","","background","",""
"","null","html-keyboard-response","180","234975","0.0-17.0-0.33","SS1604513249631","","null","","","","","","","","","","","","<img src=images/blank.png width =""500"" height = ""500"" style=""border:5px solid black"">","","",""
"","167.0999999914784","stimulus-presentation","181","235414","0.0-17.0-1.33","SS1604513249631","<img src='images/complex/18.png' width ='500' height = '500' style='border:5px solid black'>","40","all_complex","images/complex/8.png","images/complex/18.png","images/complex/1.png,images/complex/4.png,images/complex/2.png,images/complex/5.png,images/complex/9.png,images/complex/12.png,images/complex/10.png","1","null","","200","367.0999999914784","","","","background","",""
"","null","html-keyboard-response","182","236353","0.0-17.0-0.34","SS1604513249631","","null","","","","","","","","","","","","<img src=images/blank.png width =""500"" height = ""500"" style=""border:5px solid black"">","","",""
"","143.8099999941187","stimulus-presentation","183","236772","0.0-17.0-1.34","SS1604513249631","<img src='images/complex/18.png' width ='500' height = '500' style='border:5px solid black'>","40","all_complex","images/complex/8.png","images/complex/18.png","images/complex/1.png,images/complex/4.png,images/complex/2.png,images/complex/5.png,images/complex/9.png,images/complex/12.png,images/complex/10.png","1","null","","200","343.8099999941187","","","","background","",""
"","null","html-keyboard-response","184","237778","0.0-17.0-0.35","SS1604513249631","","null","","","","","","","","","","","","<img src=images/blank.png width =""500"" height = ""500"" style=""border:5px solid black"">","","",""
"","166.174999991199","stimulus-presentation","185","238212","0.0-17.0-1.35","SS1604513249631","<img src='images/complex/18.png' width ='500' height = '500' style='border:5px solid black'>","40","all_complex","images/complex/8.png","images/complex/18.png","images/complex/1.png,images/complex/4.png,images/complex/2.png,images/complex/5.png,images/complex/9.png,images/complex/12.png,images/complex/10.png","1","null","","200","366.174999991199","","","","background","",""
"","null","html-keyboard-response","186","239474","0.0-17.0-0.36","SS1604513249631","","null","","","","","","","","","","","","<img src=images/blank.png width =""500"" height = ""500"" style=""border:5px solid black"">","","",""
"","606.1599999957252","stimulus-presentation","187","240360","0.0-17.0-1.36","SS1604513249631","<img src='images/complex/8.png' width ='500' height = '500' style='border:5px solid black'>","40","all_complex","images/complex/8.png","images/complex/18.png","images/complex/1.png,images/complex/4.png,images/complex/2.png,images/complex/5.png,images/complex/9.png,images/complex/12.png,images/complex/10.png","1","null","","200","806.1599999957252","yes","267.9599999974016","","target","",""
"","null","html-keyboard-response","188","241577","0.0-17.0-0.37","SS1604513249631","","null","","","","","","","","","","","","<img src=images/blank.png width =""500"" height = ""500"" style=""border:5px solid black"">","","",""
"","619.38000000373","stimulus-presentation","189","242471","0.0-17.0-1.37","SS1604513249631","<img src='images/complex/1.png' width ='500' height = '500' style='border:5px solid black'>","40","all_complex","images/complex/8.png","images/complex/18.png","images/complex/1.png,images/complex/4.png,images/complex/2.png,images/complex/5.png,images/complex/9.png,images/complex/12.png,images/complex/10.png","1","null","","200","819.38000000373","","","","deviant","",""
"","null","html-keyboard-response","190","243728","0.0-17.0-0.38","SS1604513249631","","null","","","","","","","","","","","","<img src=images/blank.png width =""500"" height = ""500"" style=""border:5px solid black"">","","",""
"","67.08500000240747","stimulus-presentation","191","244094","0.0-17.0-1.38","SS1604513249631","<img src='images/complex/18.png' width ='500' height = '500' style='border:5px solid black'>","40","all_complex","images/complex/8.png","images/complex/18.png","images/complex/1.png,images/complex/4.png,images/complex/2.png,images/complex/5.png,images/complex/9.png,images/complex/12.png,images/complex/10.png","1","null","","200","267.08500000240747","","","","background","",""
"","null","html-keyboard-response","192","245137","0.0-17.0-0.39","SS1604513249631","","null","","","","","","","","","","","","<img src=images/blank.png width =""500"" height = ""500"" style=""border:5px solid black"">","","",""
"","165.83499999251217","stimulus-presentation","193","245588","0.0-17.0-1.39","SS1604513249631","<img src='images/complex/18.png' width ='500' height = '500' style='border:5px solid black'>","40","all_complex","images/complex/8.png","images/complex/18.png","images/complex/1.png,images/complex/4.png,images/complex/2.png,images/complex/5.png,images/complex/9.png,images/complex/12.png,images/complex/10.png","1","null","","200","365.83499999251217","","","","background","",""
"","null","html-keyboard-response","194","246501","0.0-17.0-0.40","SS1604513249631","","null","","","","","","","","","","","","<img src=images/blank.png width =""500"" height = ""500"" style=""border:5px solid black"">","","",""
"","171.78999999305233","stimulus-presentation","195","246949","0.0-17.0-1.40","SS1604513249631","<img src='images/complex/18.png' width ='500' height = '500' style='border:5px solid black'>","40","all_complex","images/complex/8.png","images/complex/18.png","images/complex/1.png,images/complex/4.png,images/complex/2.png,images/complex/5.png,images/complex/9.png,images/complex/12.png,images/complex/10.png","1","null","","200","371.78999999305233","","","","background","",""
"","null","html-keyboard-response","196","247857","0.0-17.0-0.41","SS1604513249631","","null","","","","","","","","","","","","<img src=images/blank.png width =""500"" height = ""500"" style=""border:5px solid black"">","","",""
"","108.22999999800231","stimulus-presentation","197","248234","0.0-17.0-1.41","SS1604513249631","<img src='images/complex/18.png' width ='500' height = '500' style='border:5px solid black'>","40","all_complex","images/complex/8.png","images/complex/18.png","images/complex/1.png,images/complex/4.png,images/complex/2.png,images/complex/5.png,images/complex/9.png,images/complex/12.png,images/complex/10.png","1","null","","200","308.2299999980023","","","","background","",""
"","null","html-keyboard-response","198","249266","0.0-17.0-0.42","SS1604513249631","","null","","","","","","","","","","","","<img src=images/blank.png width =""500"" height = ""500"" style=""border:5px solid black"">","","",""
"","145.66999999806285","stimulus-presentation","199","249705","0.0-17.0-1.42","SS1604513249631","<img src='images/complex/4.png' width ='500' height = '500' style='border:5px solid black'>","40","all_complex","images/complex/8.png","images/complex/18.png","images/complex/1.png,images/complex/4.png,images/complex/2.png,images/complex/5.png,images/complex/9.png,images/complex/12.png,images/complex/10.png","1","null","","200","345.66999999806285","","","","deviant","",""
"","null","html-keyboard-response","200","250614","0.0-17.0-0.43","SS1604513249631","","null","","","","","","","","","","","","<img src=images/blank.png width =""500"" height = ""500"" style=""border:5px solid black"">","","",""
"","151.68500000436325","stimulus-presentation","201","251036","0.0-17.0-1.43","SS1604513249631","<img src='images/complex/18.png' width ='500' height = '500' style='border:5px solid black'>","40","all_complex","images/complex/8.png","images/complex/18.png","images/complex/1.png,images/complex/4.png,images/complex/2.png,images/complex/5.png,images/complex/9.png,images/complex/12.png,images/complex/10.png","1","null","","200","351.68500000436325","","","","background","",""
"","null","html-keyboard-response","202","252398","0.0-17.0-0.44","SS1604513249631","","null","","","","","","","","","","","","<img src=images/blank.png width =""500"" height = ""500"" style=""border:5px solid black"">","","",""
"","148.69000000180677","stimulus-presentation","203","252829","0.0-17.0-1.44","SS1604513249631","<img src='images/complex/18.png' width ='500' height = '500' style='border:5px solid black'>","40","all_complex","images/complex/8.png","images/complex/18.png","images/complex/1.png,images/complex/4.png,images/complex/2.png,images/complex/5.png,images/complex/9.png,images/complex/12.png,images/complex/10.png","1","null","","200","348.69000000180677","","","","background","",""
"","null","html-keyboard-response","204","254083","0.0-17.0-0.45","SS1604513249631","","null","","","","","","","","","","","","<img src=images/blank.png width =""500"" height = ""500"" style=""border:5px solid black"">","","",""
"","151.63500000198837","stimulus-presentation","205","254517","0.0-17.0-1.45","SS1604513249631","<img src='images/complex/18.png' width ='500' height = '500' style='border:5px solid black'>","40","all_complex","images/complex/8.png","images/complex/18.png","images/complex/1.png,images/complex/4.png,images/complex/2.png,images/complex/5.png,images/complex/9.png,images/complex/12.png,images/complex/10.png","1","null","","200","351.6350000019884","","","","background","",""
"","null","html-keyboard-response","206","255546","0.0-17.0-0.46","SS1604513249631","","null","","","","","","","","","","","","<img src=images/blank.png width =""500"" height = ""500"" style=""border:5px solid black"">","","",""
"","118.03499999223277","stimulus-presentation","207","255950","0.0-17.0-1.46","SS1604513249631","<img src='images/complex/18.png' width ='500' height = '500' style='border:5px solid black'>","40","all_complex","images/complex/8.png","images/complex/18.png","images/complex/1.png,images/complex/4.png,images/complex/2.png,images/complex/5.png,images/complex/9.png,images/complex/12.png,images/complex/10.png","1","null","","200","318.03499999223277","","","","background","",""
"","null","html-keyboard-response","208","257031","0.0-17.0-0.47","SS1604513249631","","null","","","","","","","","","","","","<img src=images/blank.png width =""500"" height = ""500"" style=""border:5px solid black"">","","",""
"","144.51500000723172","stimulus-presentation","209","257472","0.0-17.0-1.47","SS1604513249631","<img src='images/complex/18.png' width ='500' height = '500' style='border:5px solid black'>","40","all_complex","images/complex/8.png","images/complex/18.png","images/complex/1.png,images/complex/4.png,images/complex/2.png,images/complex/5.png,images/complex/9.png,images/complex/12.png,images/complex/10.png","1","null","","200","344.5150000072317","","","","background","",""
"","null","html-keyboard-response","210","258455","0.0-17.0-0.48","SS1604513249631","","null","","","","","","","","","","","","<img src=images/blank.png width =""500"" height = ""500"" style=""border:5px solid black"">","","",""
"","217.68000000156462","stimulus-presentation","211","258959","0.0-17.0-1.48","SS1604513249631","<img src='images/complex/18.png' width ='500' height = '500' style='border:5px solid black'>","40","all_complex","images/complex/8.png","images/complex/18.png","images/complex/1.png,images/complex/4.png,images/complex/2.png,images/complex/5.png,images/complex/9.png,images/complex/12.png,images/complex/10.png","1","null","","200","417.6800000015646","","","","background","",""
"[{""page_index"":0,""viewing_time"":118737}]","118739","task-instructions","212","377772","0.0-18.0","SS1604513249631","","","","","","","","","","","","","","","","",""
"[{""page_index"":0,""viewing_time"":1372.975000005681},{""page_index"":1,""viewing_time"":1377.4449999909848},{""page_index"":2,""viewing_time"":775.3000000084285}]","3526.9850000040606","instructions","213","381375","0.0-19.0","SS1604513249631","","","","","","","","","","","","","","","","",""
"","null","html-keyboard-response","214","382536","0.0-20.0-0.0","SS1604513249631","","null","","","","","","","","","","","","<img src=images/blank.png width =""500"" height = ""500"" style=""border:5px solid black"">","","",""
"","1450.6899999978486","stimulus-presentation","215","384267","0.0-20.0-1.0","SS1604513249631","<img src='images/complex/14.png' width ='500' height = '500' style='border:5px solid black'>","40","mixed_simple_deviant","images/complex/11.png","images/complex/14.png","images/simple/16.png,images/simple/3.png,images/simple/18.png,images/simple/9.png,images/simple/13.png,images/simple/12.png,images/simple/2.png","2","null","","200","1650.6899999978486","","","","background","",""
"","null","html-keyboard-response","216","385313","0.0-20.0-0.1","SS1604513249631","","null","","","","","","","","","","","","<img src=images/blank.png width =""500"" height = ""500"" style=""border:5px solid black"">","","",""
"","1270.3350000083447","stimulus-presentation","217","386892","0.0-20.0-1.1","SS1604513249631","<img src='images/complex/11.png' width ='500' height = '500' style='border:5px solid black'>","40","mixed_simple_deviant","images/complex/11.png","images/complex/14.png","images/simple/16.png,images/simple/3.png,images/simple/18.png,images/simple/9.png,images/simple/13.png,images/simple/12.png,images/simple/2.png","2","null","","200","1470.3350000083447","yes","515.2250000101048","","target","",""
"","null","html-keyboard-response","218","387779","0.0-20.0-0.2","SS1604513249631","","null","","","","","","","","","","","","<img src=images/blank.png width =""500"" height = ""500"" style=""border:5px solid black"">","","",""
"","134.33999998960644","stimulus-presentation","219","388232","0.0-20.0-1.2","SS1604513249631","<img src='images/complex/14.png' width ='500' height = '500' style='border:5px solid black'>","40","mixed_simple_deviant","images/complex/11.png","images/complex/14.png","images/simple/16.png,images/simple/3.png,images/simple/18.png,images/simple/9.png,images/simple/13.png,images/simple/12.png,images/simple/2.png","2","null","","200","334.33999998960644","","","","background","",""
"","null","html-keyboard-response","220","389558","0.0-20.0-0.3","SS1604513249631","","null","","","","","","","","","","","","<img src=images/blank.png width =""500"" height = ""500"" style=""border:5px solid black"">","","",""
"","987.4550000095041","stimulus-presentation","221","390807","0.0-20.0-1.3","SS1604513249631","<img src='images/complex/11.png' width ='500' height = '500' style='border:5px solid black'>","40","mixed_simple_deviant","images/complex/11.png","images/complex/14.png","images/simple/16.png,images/simple/3.png,images/simple/18.png,images/simple/9.png,images/simple/13.png,images/simple/12.png,images/simple/2.png","2","null","","200","1187.4550000095041","yes","276.27500001108274","","target","",""
"","null","html-keyboard-response","222","391837","0.0-20.0-0.4","SS1604513249631","","null","","","","","","","","","","","","<img src=images/blank.png width =""500"" height = ""500"" style=""border:5px solid black"">","","",""
"","136.08500000555068","stimulus-presentation","223","392241","0.0-20.0-1.4","SS1604513249631","<img src='images/complex/14.png' width ='500' height = '500' style='border:5px solid black'>","40","mixed_simple_deviant","images/complex/11.png","images/complex/14.png","images/simple/16.png,images/simple/3.png,images/simple/18.png,images/simple/9.png,images/simple/13.png,images/simple/12.png,images/simple/2.png","2","null","","200","336.0850000055507","","","","background","",""
"","null","html-keyboard-response","224","393534","0.0-20.0-0.5","SS1604513249631","","null","","","","","","","","","","","","<img src=images/blank.png width =""500"" height = ""500"" style=""border:5px solid black"">","","",""
"","187.2949999960838","stimulus-presentation","225","393987","0.0-20.0-1.5","SS1604513249631","<img src='images/simple/3.png' width ='500' height = '500' style='border:5px solid black'>","40","mixed_simple_deviant","images/complex/11.png","images/complex/14.png","images/simple/16.png,images/simple/3.png,images/simple/18.png,images/simple/9.png,images/simple/13.png,images/simple/12.png,images/simple/2.png","2","null","","200","387.2949999960838","","","","deviant","",""
"","null","html-keyboard-response","226","395135","0.0-20.0-0.6","SS1604513249631","","null","","","","","","","","","","","","<img src=images/blank.png width =""500"" height = ""500"" style=""border:5px solid black"">","","",""
"","138.14999999885913","stimulus-presentation","227","395542","0.0-20.0-1.6","SS1604513249631","<img src='images/complex/14.png' width ='500' height = '500' style='border:5px solid black'>","40","mixed_simple_deviant","images/complex/11.png","images/complex/14.png","images/simple/16.png,images/simple/3.png,images/simple/18.png,images/simple/9.png,images/simple/13.png,images/simple/12.png,images/simple/2.png","2","null","","200","338.14999999885913","","","","background","",""
"","null","html-keyboard-response","228","396619","0.0-20.0-0.7","SS1604513249631","","null","","","","","","","","","","","","<img src=images/blank.png width =""500"" height = ""500"" style=""border:5px solid black"">","","",""
"","272.4400000006426","stimulus-presentation","229","397189","0.0-20.0-1.7","SS1604513249631","<img src='images/complex/14.png' width ='500' height = '500' style='border:5px solid black'>","40","mixed_simple_deviant","images/complex/11.png","images/complex/14.png","images/simple/16.png,images/simple/3.png,images/simple/18.png,images/simple/9.png,images/simple/13.png,images/simple/12.png,images/simple/2.png","2","null","","200","472.4400000006426","","","","background","",""
"","null","html-keyboard-response","230","398194","0.0-20.0-0.8","SS1604513249631","","null","","","","","","","","","","","","<img src=images/blank.png width =""500"" height = ""500"" style=""border:5px solid black"">","","",""
"","256.0749999975087","stimulus-presentation","231","398714","0.0-20.0-1.8","SS1604513249631","<img src='images/complex/14.png' width ='500' height = '500' style='border:5px solid black'>","40","mixed_simple_deviant","images/complex/11.png","images/complex/14.png","images/simple/16.png,images/simple/3.png,images/simple/18.png,images/simple/9.png,images/simple/13.png,images/simple/12.png,images/simple/2.png","2","null","","200","456.0749999975087","","","","background","",""
"","null","html-keyboard-response","232","399915","0.0-20.0-0.9","SS1604513249631","","null","","","","","","","","","","","","<img src=images/blank.png width =""500"" height = ""500"" style=""border:5px solid black"">","","",""
"","822.8600000002189","stimulus-presentation","233","401024","0.0-20.0-1.9","SS1604513249631","<img src='images/simple/18.png' width ='500' height = '500' style='border:5px solid black'>","40","mixed_simple_deviant","images/complex/11.png","images/complex/14.png","images/simple/16.png,images/simple/3.png,images/simple/18.png,images/simple/9.png,images/simple/13.png,images/simple/12.png,images/simple/2.png","2","null","","200","1022.8600000002189","","","","deviant","",""
"","null","html-keyboard-response","234","402308","0.0-20.0-0.10","SS1604513249631","","null","","","","","","","","","","","","<img src=images/blank.png width =""500"" height = ""500"" style=""border:5px solid black"">","","",""
"","339.00500000163447","stimulus-presentation","235","402934","0.0-20.0-1.10","SS1604513249631","<img src='images/complex/14.png' width ='500' height = '500' style='border:5px solid black'>","40","mixed_simple_deviant","images/complex/11.png","images/complex/14.png","images/simple/16.png,images/simple/3.png,images/simple/18.png,images/simple/9.png,images/simple/13.png,images/simple/12.png,images/simple/2.png","2","null","","200","539.0050000016345","","","","background","",""
"","null","html-keyboard-response","236","404190","0.0-20.0-0.11","SS1604513249631","","null","","","","","","","","","","","","<img src=images/blank.png width =""500"" height = ""500"" style=""border:5px solid black"">","","",""
"","1084.484999999404","stimulus-presentation","237","405538","0.0-20.0-1.11","SS1604513249631","<img src='images/complex/11.png' width ='500' height = '500' style='border:5px solid black'>","40","mixed_simple_deviant","images/complex/11.png","images/complex/14.png","images/simple/16.png,images/simple/3.png,images/simple/18.png,images/simple/9.png,images/simple/13.png,images/simple/12.png,images/simple/2.png","2","null","","200","1284.484999999404","yes","349.8399999953108","","target","",""
"","null","html-keyboard-response","238","406800","0.0-20.0-0.12","SS1604513249631","","null","","","","","","","","","","","","<img src=images/blank.png width =""500"" height = ""500"" style=""border:5px solid black"">","","",""
"","94.06000000308268","stimulus-presentation","239","407205","0.0-20.0-1.12","SS1604513249631","<img src='images/complex/14.png' width ='500' height = '500' style='border:5px solid black'>","40","mixed_simple_deviant","images/complex/11.png","images/complex/14.png","images/simple/16.png,images/simple/3.png,images/simple/18.png,images/simple/9.png,images/simple/13.png,images/simple/12.png,images/simple/2.png","2","null","","200","294.0600000030827","","","","background","",""
"","null","html-keyboard-response","240","408525","0.0-20.0-0.13","SS1604513249631","","null","","","","","","","","","","","","<img src=images/blank.png width =""500"" height = ""500"" style=""border:5px solid black"">","","",""
"","168.54500000772532","stimulus-presentation","241","409028","0.0-20.0-1.13","SS1604513249631","<img src='images/complex/14.png' width ='500' height = '500' style='border:5px solid black'>","40","mixed_simple_deviant","images/complex/11.png","images/complex/14.png","images/simple/16.png,images/simple/3.png,images/simple/18.png,images/simple/9.png,images/simple/13.png,images/simple/12.png,images/simple/2.png","2","null","","200","368.5450000077253","","","","background","",""
"","null","html-keyboard-response","242","410310","0.0-20.0-0.14","SS1604513249631","","null","","","","","","","","","","","","<img src=images/blank.png width =""500"" height = ""500"" style=""border:5px solid black"">","","",""
"","217.1000000089407","stimulus-presentation","243","410818","0.0-20.0-1.14","SS1604513249631","<img src='images/complex/14.png' width ='500' height = '500' style='border:5px solid black'>","40","mixed_simple_deviant","images/complex/11.png","images/complex/14.png","images/simple/16.png,images/simple/3.png,images/simple/18.png,images/simple/9.png,images/simple/13.png,images/simple/12.png,images/simple/2.png","2","null","","200","417.1000000089407","","","","background","",""
"","null","html-keyboard-response","244","412196","0.0-20.0-0.15","SS1604513249631","","null","","","","","","","","","","","","<img src=images/blank.png width =""500"" height = ""500"" style=""border:5px solid black"">","","",""
"","524.0900000062538","stimulus-presentation","245","412986","0.0-20.0-1.15","SS1604513249631","<img src='images/complex/14.png' width ='500' height = '500' style='border:5px solid black'>","40","mixed_simple_deviant","images/complex/11.png","images/complex/14.png","images/simple/16.png,images/simple/3.png,images/simple/18.png,images/simple/9.png,images/simple/13.png,images/simple/12.png,images/simple/2.png","2","null","","200","724.0900000062538","","","","background","",""
"","null","html-keyboard-response","246","413919","0.0-20.0-0.16","SS1604513249631","","null","","","","","","","","","","","","<img src=images/blank.png width =""500"" height = ""500"" style=""border:5px solid black"">","","",""
"","293.9550000010058","stimulus-presentation","247","414503","0.0-20.0-1.16","SS1604513249631","<img src='images/simple/9.png' width ='500' height = '500' style='border:5px solid black'>","40","mixed_simple_deviant","images/complex/11.png","images/complex/14.png","images/simple/16.png,images/simple/3.png,images/simple/18.png,images/simple/9.png,images/simple/13.png,images/simple/12.png,images/simple/2.png","2","null","","200","493.9550000010058","","","","deviant","",""
"","null","html-keyboard-response","248","415675","0.0-20.0-0.17","SS1604513249631","","null","","","","","","","","","","","","<img src=images/blank.png width =""500"" height = ""500"" style=""border:5px solid black"">","","",""
"","249.00499999057502","stimulus-presentation","249","416218","0.0-20.0-1.17","SS1604513249631","<img src='images/complex/14.png' width ='500' height = '500' style='border:5px solid black'>","40","mixed_simple_deviant","images/complex/11.png","images/complex/14.png","images/simple/16.png,images/simple/3.png,images/simple/18.png,images/simple/9.png,images/simple/13.png,images/simple/12.png,images/simple/2.png","2","null","","200","449.004999990575","","","","background","",""
"","null","html-keyboard-response","250","417375","0.0-20.0-0.18","SS1604513249631","","null","","","","","","","","","","","","<img src=images/blank.png width =""500"" height = ""500"" style=""border:5px solid black"">","","",""
"","270.52499999990687","stimulus-presentation","251","417930","0.0-20.0-1.18","SS1604513249631","<img src='images/complex/14.png' width ='500' height = '500' style='border:5px solid black'>","40","mixed_simple_deviant","images/complex/11.png","images/complex/14.png","images/simple/16.png,images/simple/3.png,images/simple/18.png,images/simple/9.png,images/simple/13.png,images/simple/12.png,images/simple/2.png","2","null","","200","470.52499999990687","","","","background","",""
"","null","html-keyboard-response","252","419048","0.0-20.0-0.19","SS1604513249631","","null","","","","","","","","","","","","<img src=images/blank.png width =""500"" height = ""500"" style=""border:5px solid black"">","","",""
"","333.7150000006659","stimulus-presentation","253","419669","0.0-20.0-1.19","SS1604513249631","<img src='images/complex/14.png' width ='500' height = '500' style='border:5px solid black'>","40","mixed_simple_deviant","images/complex/11.png","images/complex/14.png","images/simple/16.png,images/simple/3.png,images/simple/18.png,images/simple/9.png,images/simple/13.png,images/simple/12.png,images/simple/2.png","2","null","","200","533.7150000006659","","","","background","",""
"","null","html-keyboard-response","254","420960","0.0-20.0-0.20","SS1604513249631","","null","","","","","","","","","","","","<img src=images/blank.png width =""500"" height = ""500"" style=""border:5px solid black"">","","",""
"","194.73000000289176","stimulus-presentation","255","421450","0.0-20.0-1.20","SS1604513249631","<img src='images/complex/14.png' width ='500' height = '500' style='border:5px solid black'>","40","mixed_simple_deviant","images/complex/11.png","images/complex/14.png","images/simple/16.png,images/simple/3.png,images/simple/18.png,images/simple/9.png,images/simple/13.png,images/simple/12.png,images/simple/2.png","2","null","","200","394.73000000289176","","","","background","",""
"","null","html-keyboard-response","256","422647","0.0-20.0-0.21","SS1604513249631","","null","","","","","","","","","","","","<img src=images/blank.png width =""500"" height = ""500"" style=""border:5px solid black"">","","",""
"","277.61499999905936","stimulus-presentation","257","423217","0.0-20.0-1.21","SS1604513249631","<img src='images/simple/16.png' width ='500' height = '500' style='border:5px solid black'>","40","mixed_simple_deviant","images/complex/11.png","images/complex/14.png","images/simple/16.png,images/simple/3.png,images/simple/18.png,images/simple/9.png,images/simple/13.png,images/simple/12.png,images/simple/2.png","2","null","","200","477.61499999905936","","","","deviant","",""
"","null","html-keyboard-response","258","424495","0.0-20.0-0.22","SS1604513249631","","null","","","","","","","","","","","","<img src=images/blank.png width =""500"" height = ""500"" style=""border:5px solid black"">","","",""
"","146.00999999674968","stimulus-presentation","259","424939","0.0-20.0-1.22","SS1604513249631","<img src='images/complex/14.png' width ='500' height = '500' style='border:5px solid black'>","40","mixed_simple_deviant","images/complex/11.png","images/complex/14.png","images/simple/16.png,images/simple/3.png,images/simple/18.png,images/simple/9.png,images/simple/13.png,images/simple/12.png,images/simple/2.png","2","null","","200","346.0099999967497","","","","background","",""
"","null","html-keyboard-response","260","426011","0.0-20.0-0.23","SS1604513249631","","null","","","","","","","","","","","","<img src=images/blank.png width =""500"" height = ""500"" style=""border:5px solid black"">","","",""
"","70.4799999948591","stimulus-presentation","261","426389","0.0-20.0-1.23","SS1604513249631","<img src='images/complex/14.png' width ='500' height = '500' style='border:5px solid black'>","40","mixed_simple_deviant","images/complex/11.png","images/complex/14.png","images/simple/16.png,images/simple/3.png,images/simple/18.png,images/simple/9.png,images/simple/13.png,images/simple/12.png,images/simple/2.png","2","null","","200","270.4799999948591","","","","background","",""
"","null","html-keyboard-response","262","427719","0.0-20.0-0.24","SS1604513249631","","null","","","","","","","","","","","","<img src=images/blank.png width =""500"" height = ""500"" style=""border:5px solid black"">","","",""
"","117.500000007567","stimulus-presentation","263","428129","0.0-20.0-1.24","SS1604513249631","<img src='images/complex/14.png' width ='500' height = '500' style='border:5px solid black'>","40","mixed_simple_deviant","images/complex/11.png","images/complex/14.png","images/simple/16.png,images/simple/3.png,images/simple/18.png,images/simple/9.png,images/simple/13.png,images/simple/12.png,images/simple/2.png","2","null","","200","317.500000007567","","","","background","",""
"","null","html-keyboard-response","264","429311","0.0-20.0-0.25","SS1604513249631","","null","","","","","","","","","","","","<img src=images/blank.png width =""500"" height = ""500"" style=""border:5px solid black"">","","",""
"","165.57500000635628","stimulus-presentation","265","429767","0.0-20.0-1.25","SS1604513249631","<img src='images/complex/14.png' width ='500' height = '500' style='border:5px solid black'>","40","mixed_simple_deviant","images/complex/11.png","images/complex/14.png","images/simple/16.png,images/simple/3.png,images/simple/18.png,images/simple/9.png,images/simple/13.png,images/simple/12.png,images/simple/2.png","2","null","","200","365.5750000063563","","","","background","",""
"","null","html-keyboard-response","266","431035","0.0-20.0-0.26","SS1604513249631","","null","","","","","","","","","","","","<img src=images/blank.png width =""500"" height = ""500"" style=""border:5px solid black"">","","",""
"","220.05499999795575","stimulus-presentation","267","431572","0.0-20.0-1.26","SS1604513249631","<img src='images/complex/14.png' width ='500' height = '500' style='border:5px solid black'>","40","mixed_simple_deviant","images/complex/11.png","images/complex/14.png","images/simple/16.png,images/simple/3.png,images/simple/18.png,images/simple/9.png,images/simple/13.png,images/simple/12.png,images/simple/2.png","2","null","","200","420.05499999795575","","","","background","",""
"","null","html-keyboard-response","268","432862","0.0-20.0-0.27","SS1604513249631","","null","","","","","","","","","","","","<img src=images/blank.png width =""500"" height = ""500"" style=""border:5px solid black"">","","",""
"","171.6549999982817","stimulus-presentation","269","433335","0.0-20.0-1.27","SS1604513249631","<img src='images/simple/13.png' width ='500' height = '500' style='border:5px solid black'>","40","mixed_simple_deviant","images/complex/11.png","images/complex/14.png","images/simple/16.png,images/simple/3.png,images/simple/18.png,images/simple/9.png,images/simple/13.png,images/simple/12.png,images/simple/2.png","2","null","","200","371.6549999982817","","","","deviant","",""
"","null","html-keyboard-response","270","434444","0.0-20.0-0.28","SS1604513249631","","null","","","","","","","","","","","","<img src=images/blank.png width =""500"" height = ""500"" style=""border:5px solid black"">","","",""
"","1214.2800000001444","stimulus-presentation","271","435947","0.0-20.0-1.28","SS1604513249631","<img src='images/complex/11.png' width ='500' height = '500' style='border:5px solid black'>","40","mixed_simple_deviant","images/complex/11.png","images/complex/14.png","images/simple/16.png,images/simple/3.png,images/simple/18.png,images/simple/9.png,images/simple/13.png,images/simple/12.png,images/simple/2.png","2","null","","200","1414.2800000001444","yes","694.9250000034226","","target","",""
"","null","html-keyboard-response","272","436903","0.0-20.0-0.29","SS1604513249631","","null","","","","","","","","","","","","<img src=images/blank.png width =""500"" height = ""500"" style=""border:5px solid black"">","","",""
"","300.279999995837","stimulus-presentation","273","437495","0.0-20.0-1.29","SS1604513249631","<img src='images/complex/14.png' width ='500' height = '500' style='border:5px solid black'>","40","mixed_simple_deviant","images/complex/11.png","images/complex/14.png","images/simple/16.png,images/simple/3.png,images/simple/18.png,images/simple/9.png,images/simple/13.png,images/simple/12.png,images/simple/2.png","2","null","","200","500.279999995837","","","","background","",""
"","null","html-keyboard-response","274","438612","0.0-20.0-0.30","SS1604513249631","","null","","","","","","","","","","","","<img src=images/blank.png width =""500"" height = ""500"" style=""border:5px solid black"">","","",""
"","340.42999999655876","stimulus-presentation","275","439246","0.0-20.0-1.30","SS1604513249631","<img src='images/complex/14.png' width ='500' height = '500' style='border:5px solid black'>","40","mixed_simple_deviant","images/complex/11.png","images/complex/14.png","images/simple/16.png,images/simple/3.png,images/simple/18.png,images/simple/9.png,images/simple/13.png,images/simple/12.png,images/simple/2.png","2","null","","200","540.4299999965588","","","","background","",""
"","null","html-keyboard-response","276","440214","0.0-20.0-0.31","SS1604513249631","","null","","","","","","","","","","","","<img src=images/blank.png width =""500"" height = ""500"" style=""border:5px solid black"">","","",""
"","178.21500000718515","stimulus-presentation","277","440666","0.0-20.0-1.31","SS1604513249631","<img src='images/complex/14.png' width ='500' height = '500' style='border:5px solid black'>","40","mixed_simple_deviant","images/complex/11.png","images/complex/14.png","images/simple/16.png,images/simple/3.png,images/simple/18.png,images/simple/9.png,images/simple/13.png,images/simple/12.png,images/simple/2.png","2","null","","200","378.21500000718515","","","","background","",""
"","null","html-keyboard-response","278","441592","0.0-20.0-0.32","SS1604513249631","","null","","","","","","","","","","","","<img src=images/blank.png width =""500"" height = ""500"" style=""border:5px solid black"">","","",""
"","355.1549999974668","stimulus-presentation","279","442251","0.0-20.0-1.32","SS1604513249631","<img src='images/simple/12.png' width ='500' height = '500' style='border:5px solid black'>","40","mixed_simple_deviant","images/complex/11.png","images/complex/14.png","images/simple/16.png,images/simple/3.png,images/simple/18.png,images/simple/9.png,images/simple/13.png,images/simple/12.png,images/simple/2.png","2","null","","200","555.1549999974668","","","","deviant","",""
"","null","html-keyboard-response","280","443163","0.0-20.0-0.33","SS1604513249631","","null","","","","","","","","","","","","<img src=images/blank.png width =""500"" height = ""500"" style=""border:5px solid black"">","","",""
"","177.95499999192543","stimulus-presentation","281","443642","0.0-20.0-1.33","SS1604513249631","<img src='images/complex/14.png' width ='500' height = '500' style='border:5px solid black'>","40","mixed_simple_deviant","images/complex/11.png","images/complex/14.png","images/simple/16.png,images/simple/3.png,images/simple/18.png,images/simple/9.png,images/simple/13.png,images/simple/12.png,images/simple/2.png","2","null","","200","377.95499999192543","","","","background","",""
"","null","html-keyboard-response","282","445014","0.0-20.0-0.34","SS1604513249631","","null","","","","","","","","","","","","<img src=images/blank.png width =""500"" height = ""500"" style=""border:5px solid black"">","","",""
"","221.98499999649357","stimulus-presentation","283","445542","0.0-20.0-1.34","SS1604513249631","<img src='images/complex/14.png' width ='500' height = '500' style='border:5px solid black'>","40","mixed_simple_deviant","images/complex/11.png","images/complex/14.png","images/simple/16.png,images/simple/3.png,images/simple/18.png,images/simple/9.png,images/simple/13.png,images/simple/12.png,images/simple/2.png","2","null","","200","421.98499999649357","","","","background","",""
"","null","html-keyboard-response","284","446742","0.0-20.0-0.35","SS1604513249631","","null","","","","","","","","","","","","<img src=images/blank.png width =""500"" height = ""500"" style=""border:5px solid black"">","","",""
