"view_history","rt","trial_type","trial_index","time_elapsed","internal_node_id","subject","trial_stimulus","key_press","task_type","task_target_stimulus","task_background_stimulus","task_deviant_stimuli","task_order_number","block_order_number","trial_order_number","minimum_viewing_duration","trial_looking_time","trial_pressed_space_bar","trial_space_bar_rt","stimulus","trial_stimulus_type","responses","question_order"
"[{""page_index"":0,""viewing_time"":21264.48500000697}]","21265.305000008084","instructions","0","21294","0.0-0.0","SS1604513240126","","","","","","","","","","","","","","","","",""
"[{""page_index"":0,""viewing_time"":8946.460000006482},{""page_index"":1,""viewing_time"":8265.975000002072},{""page_index"":2,""viewing_time"":17871.48000000161},{""page_index"":3,""viewing_time"":12721.06499999063},{""page_index"":4,""viewing_time"":15731.690000000526},{""page_index"":5,""viewing_time"":9861.475000012433},{""page_index"":6,""viewing_time"":4001.829999993788},{""page_index"":7,""viewing_time"":8978.484999999637},{""page_index"":8,""viewing_time"":3036.3450000004377}]","89415.02500000934","instructions","1","110712","0.0-1.0","SS1604513240126","","","","","","","","","","","","","","","","",""
"[{""page_index"":0,""viewing_time"":64038.395000010496},{""page_index"":1,""viewing_time"":11123.829999996815},{""page_index"":2,""viewing_time"":11085.359999997308}]","86247.80000001192","instructions","2","196962","0.0-2.0","SS1604513240126","","","","","","","","","","","","","","","","",""
"","9467.264999999315","practice-block","3","206636","0.0-3.0","SS1604513240126","<img src='images/practice/practice_background.jpeg' width ='500' height = '500' style='border:5px solid black'>","40","null","images/practice/practice_target.jpg","null","null","null","null","","200","9667.264999999315","yes","1083.5249999945518","","","",""
"","null","html-keyboard-response","4","207883","0.0-4.0","SS1604513240126","","null","","","","","","","","","","","","<img src=images/blank.png width =""500"" height = ""500"" style=""border:5px solid black"">","","",""
"","2330.2850000036415","practice-block","5","210420","0.0-5.0","SS1604513240126","<img src='images/practice/practice_background.jpeg' width ='500' height = '500' style='border:5px solid black'>","40","null","images/practice/practice_target.jpg","null","null","null","null","","200","2530.2850000036415","","","","","",""
"","null","html-keyboard-response","6","211349","0.0-6.0","SS1604513240126","","null","","","","","","","","","","","","<img src=images/blank.png width =""500"" height = ""500"" style=""border:5px solid black"">","","",""
"","1100.4350000002887","practice-block","7","212656","0.0-7.0","SS1604513240126","<img src='images/practice/practice_deviant.jpeg' width ='500' height = '500' style='border:5px solid black'>","40","null","images/practice/practice_target.jpg","null","null","null","null","","200","1300.4350000002887","","","","","",""
"","null","html-keyboard-response","8","213524","0.0-8.0","SS1604513240126","","null","","","","","","","","","","","","<img src=images/blank.png width =""500"" height = ""500"" style=""border:5px solid black"">","","",""
"","3024.8949999950128","practice-block","9","219705","0.0-9.0-0.0","SS1604513240126","<img src='images/practice/practice_target.jpg' width ='500' height = '500' style='border:5px solid black'>","40","null","images/practice/practice_target.jpg","null","null","null","null","","200","3224.8949999950128","","","","","",""
"","17722.62000000046","practice-block","10","237631","0.0-9.1-0.1","SS1604513240126","<img src='images/practice/practice_target.jpg' width ='500' height = '500' style='border:5px solid black'>","40","null","images/practice/practice_target.jpg","null","null","null","null","","200","17922.62000000046","yes","425.6150000001071","","","",""
"","null","html-keyboard-response","11","238636","0.0-10.0","SS1604513240126","","null","","","","","","","","","","","","<img src=images/blank.png width =""500"" height = ""500"" style=""border:5px solid black"">","","",""
"","1123.3849999989616","practice-block","12","239967","0.0-11.0","SS1604513240126","<img src='images/practice/practice_background.jpeg' width ='500' height = '500' style='border:5px solid black'>","40","null","images/practice/practice_target.jpg","null","null","null","null","","200","1323.3849999989616","","","","","",""
"[{""page_index"":0,""viewing_time"":2146}]","2147","task-instructions","13","242115","0.0-12.0","SS1604513240126","","","","","","","","","","","","","","","","",""
"[{""page_index"":0,""viewing_time"":6152.30000000156},{""page_index"":1,""viewing_time"":6414.529999994556},{""page_index"":2,""viewing_time"":2438.0050000036135}]","15005.050000007031","instructions","14","257121","0.0-13.0","SS1604513240126","","","","","","","","","","","","","","","","",""
"","null","html-keyboard-response","15","257991","0.0-14.0-0.0","SS1604513240126","","null","","","","","","","","","","","","<img src=images/blank.png width =""500"" height = ""500"" style=""border:5px solid black"">","","",""
"","6851.454999996349","stimulus-presentation","16","265049","0.0-14.0-1.0","SS1604513240126","<img src='images/simple/11.png' width ='500' height = '500' style='border:5px solid black'>","40","mixed_complex_deviant","images/simple/11.png","images/simple/14.png","images/complex/13.png,images/complex/15.png,images/complex/16.png,images/complex/17.png,images/complex/5.png,images/complex/10.png,images/complex/4.png","0","null","","200","7051.454999996349","yes","4456.430000005639","","target","",""
"","null","html-keyboard-response","17","266193","0.0-14.0-0.1","SS1604513240126","","null","","","","","","","","","","","","<img src=images/blank.png width =""500"" height = ""500"" style=""border:5px solid black"">","","",""
"","11745.425000000978","stimulus-presentation","18","278143","0.0-14.0-1.1","SS1604513240126","<img src='images/simple/14.png' width ='500' height = '500' style='border:5px solid black'>","40","mixed_complex_deviant","images/simple/11.png","images/simple/14.png","images/complex/13.png,images/complex/15.png,images/complex/16.png,images/complex/17.png,images/complex/5.png,images/complex/10.png,images/complex/4.png","0","null","","200","11945.425000000978","","","","background","",""
"","null","html-keyboard-response","19","278961","0.0-14.0-0.2","SS1604513240126","","null","","","","","","","","","","","","<img src=images/blank.png width =""500"" height = ""500"" style=""border:5px solid black"">","","",""
"","2737.8650000027847","stimulus-presentation","20","281904","0.0-14.0-1.2","SS1604513240126","<img src='images/simple/11.png' width ='500' height = '500' style='border:5px solid black'>","40","mixed_complex_deviant","images/simple/11.png","images/simple/14.png","images/complex/13.png,images/complex/15.png,images/complex/16.png,images/complex/17.png,images/complex/5.png,images/complex/10.png,images/complex/4.png","0","null","","200","2937.8650000027847","yes","1015.2099999977509","","target","",""
"","null","html-keyboard-response","21","282723","0.0-14.0-0.3","SS1604513240126","","null","","","","","","","","","","","","<img src=images/blank.png width =""500"" height = ""500"" style=""border:5px solid black"">","","",""
"","1897.6550000079442","stimulus-presentation","22","284825","0.0-14.0-1.3","SS1604513240126","<img src='images/simple/14.png' width ='500' height = '500' style='border:5px solid black'>","40","mixed_complex_deviant","images/simple/11.png","images/simple/14.png","images/complex/13.png,images/complex/15.png,images/complex/16.png,images/complex/17.png,images/complex/5.png,images/complex/10.png,images/complex/4.png","0","null","","200","2097.655000007944","","","","background","",""
"","null","html-keyboard-response","23","285707","0.0-14.0-0.4","SS1604513240126","","null","","","","","","","","","","","","<img src=images/blank.png width =""500"" height = ""500"" style=""border:5px solid black"">","","",""
"","2574.990000008256","stimulus-presentation","24","288489","0.0-14.0-1.4","SS1604513240126","<img src='images/simple/14.png' width ='500' height = '500' style='border:5px solid black'>","40","mixed_complex_deviant","images/simple/11.png","images/simple/14.png","images/complex/13.png,images/complex/15.png,images/complex/16.png,images/complex/17.png,images/complex/5.png,images/complex/10.png,images/complex/4.png","0","null","","200","2774.990000008256","","","","background","",""
"","null","html-keyboard-response","25","289631","0.0-14.0-0.5","SS1604513240126","","null","","","","","","","","","","","","<img src=images/blank.png width =""500"" height = ""500"" style=""border:5px solid black"">","","",""
"","2881.3300000038","stimulus-presentation","26","292719","0.0-14.0-1.5","SS1604513240126","<img src='images/complex/4.png' width ='500' height = '500' style='border:5px solid black'>","40","mixed_complex_deviant","images/simple/11.png","images/simple/14.png","images/complex/13.png,images/complex/15.png,images/complex/16.png,images/complex/17.png,images/complex/5.png,images/complex/10.png,images/complex/4.png","0","null","","200","3081.3300000038","","","","deviant","",""
"","null","html-keyboard-response","27","293890","0.0-14.0-0.6","SS1604513240126","","null","","","","","","","","","","","","<img src=images/blank.png width =""500"" height = ""500"" style=""border:5px solid black"">","","",""
"","7712.169999998878","stimulus-presentation","28","301810","0.0-14.0-1.6","SS1604513240126","<img src='images/simple/14.png' width ='500' height = '500' style='border:5px solid black'>","40","mixed_complex_deviant","images/simple/11.png","images/simple/14.png","images/complex/13.png,images/complex/15.png,images/complex/16.png,images/complex/17.png,images/complex/5.png,images/complex/10.png,images/complex/4.png","0","null","","200","7912.169999998878","","","","background","",""
"","null","html-keyboard-response","29","302862","0.0-14.0-0.7","SS1604513240126","","null","","","","","","","","","","","","<img src=images/blank.png width =""500"" height = ""500"" style=""border:5px solid black"">","","",""
"","2152.415000004112","stimulus-presentation","30","305217","0.0-14.0-1.7","SS1604513240126","<img src='images/simple/14.png' width ='500' height = '500' style='border:5px solid black'>","40","mixed_complex_deviant","images/simple/11.png","images/simple/14.png","images/complex/13.png,images/complex/15.png,images/complex/16.png,images/complex/17.png,images/complex/5.png,images/complex/10.png,images/complex/4.png","0","null","","200","2352.415000004112","","","","background","",""
"","null","html-keyboard-response","31","306361","0.0-14.0-0.8","SS1604513240126","","null","","","","","","","","","","","","<img src=images/blank.png width =""500"" height = ""500"" style=""border:5px solid black"">","","",""
"","1395.2799999970011","stimulus-presentation","32","307964","0.0-14.0-1.8","SS1604513240126","<img src='images/simple/14.png' width ='500' height = '500' style='border:5px solid black'>","40","mixed_complex_deviant","images/simple/11.png","images/simple/14.png","images/complex/13.png,images/complex/15.png,images/complex/16.png,images/complex/17.png,images/complex/5.png,images/complex/10.png,images/complex/4.png","0","null","","200","1595.2799999970011","","","","background","",""
"","null","html-keyboard-response","33","309069","0.0-14.0-0.9","SS1604513240126","","null","","","","","","","","","","","","<img src=images/blank.png width =""500"" height = ""500"" style=""border:5px solid black"">","","",""
"","3878.7350000056904","stimulus-presentation","34","313154","0.0-14.0-1.9","SS1604513240126","<img src='images/simple/11.png' width ='500' height = '500' style='border:5px solid black'>","40","mixed_complex_deviant","images/simple/11.png","images/simple/14.png","images/complex/13.png,images/complex/15.png,images/complex/16.png,images/complex/17.png,images/complex/5.png,images/complex/10.png,images/complex/4.png","0","null","","200","4078.7350000056904","yes","701.7200000118464","","target","",""
"","null","html-keyboard-response","35","314352","0.0-14.0-0.10","SS1604513240126","","null","","","","","","","","","","","","<img src=images/blank.png width =""500"" height = ""500"" style=""border:5px solid black"">","","",""
"","3609.9749999993946","stimulus-presentation","36","318169","0.0-14.0-1.10","SS1604513240126","<img src='images/complex/13.png' width ='500' height = '500' style='border:5px solid black'>","40","mixed_complex_deviant","images/simple/11.png","images/simple/14.png","images/complex/13.png,images/complex/15.png,images/complex/16.png,images/complex/17.png,images/complex/5.png,images/complex/10.png,images/complex/4.png","0","null","","200","3809.9749999993946","","","","deviant","",""
"","null","html-keyboard-response","37","319270","0.0-14.0-0.11","SS1604513240126","","null","","","","","","","","","","","","<img src=images/blank.png width =""500"" height = ""500"" style=""border:5px solid black"">","","",""
"","4191.600000005565","stimulus-presentation","38","323669","0.0-14.0-1.11","SS1604513240126","<img src='images/simple/14.png' width ='500' height = '500' style='border:5px solid black'>","40","mixed_complex_deviant","images/simple/11.png","images/simple/14.png","images/complex/13.png,images/complex/15.png,images/complex/16.png,images/complex/17.png,images/complex/5.png,images/complex/10.png,images/complex/4.png","0","null","","200","4391.600000005565","","","","background","",""
"","null","html-keyboard-response","39","324556","0.0-14.0-0.12","SS1604513240126","","null","","","","","","","","","","","","<img src=images/blank.png width =""500"" height = ""500"" style=""border:5px solid black"">","","",""
"","1414.1949999902863","stimulus-presentation","40","326172","0.0-14.0-1.12","SS1604513240126","<img src='images/simple/14.png' width ='500' height = '500' style='border:5px solid black'>","40","mixed_complex_deviant","images/simple/11.png","images/simple/14.png","images/complex/13.png,images/complex/15.png,images/complex/16.png,images/complex/17.png,images/complex/5.png,images/complex/10.png,images/complex/4.png","0","null","","200","1614.1949999902863","","","","background","",""
"","null","html-keyboard-response","41","327211","0.0-14.0-0.13","SS1604513240126","","null","","","","","","","","","","","","<img src=images/blank.png width =""500"" height = ""500"" style=""border:5px solid black"">","","",""
"","560.9299999923678","stimulus-presentation","42","327975","0.0-14.0-1.13","SS1604513240126","<img src='images/simple/14.png' width ='500' height = '500' style='border:5px solid black'>","40","mixed_complex_deviant","images/simple/11.png","images/simple/14.png","images/complex/13.png,images/complex/15.png,images/complex/16.png,images/complex/17.png,images/complex/5.png,images/complex/10.png,images/complex/4.png","0","null","","200","760.9299999923678","","","","background","",""
"","null","html-keyboard-response","43","329269","0.0-14.0-0.14","SS1604513240126","","null","","","","","","","","","","","","<img src=images/blank.png width =""500"" height = ""500"" style=""border:5px solid black"">","","",""
"","498.6100000096485","stimulus-presentation","44","329975","0.0-14.0-1.14","SS1604513240126","<img src='images/simple/14.png' width ='500' height = '500' style='border:5px solid black'>","40","mixed_complex_deviant","images/simple/11.png","images/simple/14.png","images/complex/13.png,images/complex/15.png,images/complex/16.png,images/complex/17.png,images/complex/5.png,images/complex/10.png,images/complex/4.png","0","null","","200","698.6100000096485","","","","background","",""
"","null","html-keyboard-response","45","330905","0.0-14.0-0.15","SS1604513240126","","null","","","","","","","","","","","","<img src=images/blank.png width =""500"" height = ""500"" style=""border:5px solid black"">","","",""
"","3646.329999988666","stimulus-presentation","46","334757","0.0-14.0-1.15","SS1604513240126","<img src='images/complex/5.png' width ='500' height = '500' style='border:5px solid black'>","40","mixed_complex_deviant","images/simple/11.png","images/simple/14.png","images/complex/13.png,images/complex/15.png,images/complex/16.png,images/complex/17.png,images/complex/5.png,images/complex/10.png,images/complex/4.png","0","null","","200","3846.329999988666","","","","deviant","",""
"","null","html-keyboard-response","47","336026","0.0-14.0-0.16","SS1604513240126","","null","","","","","","","","","","","","<img src=images/blank.png width =""500"" height = ""500"" style=""border:5px solid black"">","","",""
"","2614.1199999983655","stimulus-presentation","48","338847","0.0-14.0-1.16","SS1604513240126","<img src='images/simple/14.png' width ='500' height = '500' style='border:5px solid black'>","40","mixed_complex_deviant","images/simple/11.png","images/simple/14.png","images/complex/13.png,images/complex/15.png,images/complex/16.png,images/complex/17.png,images/complex/5.png,images/complex/10.png,images/complex/4.png","0","null","","200","2814.1199999983655","","","","background","",""
"","null","html-keyboard-response","49","339715","0.0-14.0-0.17","SS1604513240126","","null","","","","","","","","","","","","<img src=images/blank.png width =""500"" height = ""500"" style=""border:5px solid black"">","","",""
"","6969.810000009602","stimulus-presentation","50","346887","0.0-14.0-1.17","SS1604513240126","<img src='images/simple/11.png' width ='500' height = '500' style='border:5px solid black'>","40","mixed_complex_deviant","images/simple/11.png","images/simple/14.png","images/complex/13.png,images/complex/15.png,images/complex/16.png,images/complex/17.png,images/complex/5.png,images/complex/10.png,images/complex/4.png","0","null","","200","7169.810000009602","yes","655.8349999977509","","target","",""
"","null","html-keyboard-response","51","347710","0.0-14.0-0.18","SS1604513240126","","null","","","","","","","","","","","","<img src=images/blank.png width =""500"" height = ""500"" style=""border:5px solid black"">","","",""
"","6578.764999998384","stimulus-presentation","52","354491","0.0-14.0-1.18","SS1604513240126","<img src='images/simple/14.png' width ='500' height = '500' style='border:5px solid black'>","40","mixed_complex_deviant","images/simple/11.png","images/simple/14.png","images/complex/13.png,images/complex/15.png,images/complex/16.png,images/complex/17.png,images/complex/5.png,images/complex/10.png,images/complex/4.png","0","null","","200","6778.764999998384","","","","background","",""
"","null","html-keyboard-response","53","355421","0.0-14.0-0.19","SS1604513240126","","null","","","","","","","","","","","","<img src=images/blank.png width =""500"" height = ""500"" style=""border:5px solid black"">","","",""
"","1933.7200000009034","stimulus-presentation","54","357560","0.0-14.0-1.19","SS1604513240126","<img src='images/simple/14.png' width ='500' height = '500' style='border:5px solid black'>","40","mixed_complex_deviant","images/simple/11.png","images/simple/14.png","images/complex/13.png,images/complex/15.png,images/complex/16.png,images/complex/17.png,images/complex/5.png,images/complex/10.png,images/complex/4.png","0","null","","200","2133.7200000009034","","","","background","",""
"","null","html-keyboard-response","55","358527","0.0-14.0-0.20","SS1604513240126","","null","","","","","","","","","","","","<img src=images/blank.png width =""500"" height = ""500"" style=""border:5px solid black"">","","",""
"","2600.909999993746","stimulus-presentation","56","361336","0.0-14.0-1.20","SS1604513240126","<img src='images/simple/14.png' width ='500' height = '500' style='border:5px solid black'>","40","mixed_complex_deviant","images/simple/11.png","images/simple/14.png","images/complex/13.png,images/complex/15.png,images/complex/16.png,images/complex/17.png,images/complex/5.png,images/complex/10.png,images/complex/4.png","0","null","","200","2800.909999993746","","","","background","",""
"","null","html-keyboard-response","57","362483","0.0-14.0-0.21","SS1604513240126","","null","","","","","","","","","","","","<img src=images/blank.png width =""500"" height = ""500"" style=""border:5px solid black"">","","",""
"","2898.35000000312","stimulus-presentation","58","365589","0.0-14.0-1.21","SS1604513240126","<img src='images/complex/16.png' width ='500' height = '500' style='border:5px solid black'>","40","mixed_complex_deviant","images/simple/11.png","images/simple/14.png","images/complex/13.png,images/complex/15.png,images/complex/16.png,images/complex/17.png,images/complex/5.png,images/complex/10.png,images/complex/4.png","0","null","","200","3098.35000000312","","","","deviant","",""
"","null","html-keyboard-response","59","366768","0.0-14.0-0.22","SS1604513240126","","null","","","","","","","","","","","","<img src=images/blank.png width =""500"" height = ""500"" style=""border:5px solid black"">","","",""
"","2239.7749999945518","stimulus-presentation","60","369215","0.0-14.0-1.22","SS1604513240126","<img src='images/simple/11.png' width ='500' height = '500' style='border:5px solid black'>","40","mixed_complex_deviant","images/simple/11.png","images/simple/14.png","images/complex/13.png,images/complex/15.png,images/complex/16.png,images/complex/17.png,images/complex/5.png,images/complex/10.png,images/complex/4.png","0","null","","200","2439.7749999945518","yes","757.8749999956926","","target","",""
"","null","html-keyboard-response","61","370069","0.0-14.0-0.23","SS1604513240126","","null","","","","","","","","","","","","<img src=images/blank.png width =""500"" height = ""500"" style=""border:5px solid black"">","","",""
"","1835.7099999993807","stimulus-presentation","62","372108","0.0-14.0-1.23","SS1604513240126","<img src='images/simple/11.png' width ='500' height = '500' style='border:5px solid black'>","40","mixed_complex_deviant","images/simple/11.png","images/simple/14.png","images/complex/13.png,images/complex/15.png,images/complex/16.png,images/complex/17.png,images/complex/5.png,images/complex/10.png,images/complex/4.png","0","null","","200","2035.7099999993807","yes","664.8500000010245","","target","",""
"","null","html-keyboard-response","63","373277","0.0-14.0-0.24","SS1604513240126","","null","","","","","","","","","","","","<img src=images/blank.png width =""500"" height = ""500"" style=""border:5px solid black"">","","",""
"","4349.449999994249","stimulus-presentation","64","377834","0.0-14.0-1.24","SS1604513240126","<img src='images/simple/14.png' width ='500' height = '500' style='border:5px solid black'>","40","mixed_complex_deviant","images/simple/11.png","images/simple/14.png","images/complex/13.png,images/complex/15.png,images/complex/16.png,images/complex/17.png,images/complex/5.png,images/complex/10.png,images/complex/4.png","0","null","","200","4549.449999994249","","","","background","",""
"","null","html-keyboard-response","65","379026","0.0-14.0-0.25","SS1604513240126","","null","","","","","","","","","","","","<img src=images/blank.png width =""500"" height = ""500"" style=""border:5px solid black"">","","",""
"","4283.335000000079","stimulus-presentation","66","383517","0.0-14.0-1.25","SS1604513240126","<img src='images/complex/15.png' width ='500' height = '500' style='border:5px solid black'>","40","mixed_complex_deviant","images/simple/11.png","images/simple/14.png","images/complex/13.png,images/complex/15.png,images/complex/16.png,images/complex/17.png,images/complex/5.png,images/complex/10.png,images/complex/4.png","0","null","","200","4483.335000000079","","","","deviant","",""
"","null","html-keyboard-response","67","384339","0.0-14.0-0.26","SS1604513240126","","null","","","","","","","","","","","","<img src=images/blank.png width =""500"" height = ""500"" style=""border:5px solid black"">","","",""
"","3162.804999999935","stimulus-presentation","68","387709","0.0-14.0-1.26","SS1604513240126","<img src='images/simple/14.png' width ='500' height = '500' style='border:5px solid black'>","40","mixed_complex_deviant","images/simple/11.png","images/simple/14.png","images/complex/13.png,images/complex/15.png,images/complex/16.png,images/complex/17.png,images/complex/5.png,images/complex/10.png,images/complex/4.png","0","null","","200","3362.804999999935","","","","background","",""
"","null","html-keyboard-response","69","388908","0.0-14.0-0.27","SS1604513240126","","null","","","","","","","","","","","","<img src=images/blank.png width =""500"" height = ""500"" style=""border:5px solid black"">","","",""
"","1915.2150000008987","stimulus-presentation","70","391028","0.0-14.0-1.27","SS1604513240126","<img src='images/simple/14.png' width ='500' height = '500' style='border:5px solid black'>","40","mixed_complex_deviant","images/simple/11.png","images/simple/14.png","images/complex/13.png,images/complex/15.png,images/complex/16.png,images/complex/17.png,images/complex/5.png,images/complex/10.png,images/complex/4.png","0","null","","200","2115.2150000008987","","","","background","",""
"","null","html-keyboard-response","71","391991","0.0-14.0-0.28","SS1604513240126","","null","","","","","","","","","","","","<img src=images/blank.png width =""500"" height = ""500"" style=""border:5px solid black"">","","",""
"","1676.2950000120327","stimulus-presentation","72","393875","0.0-14.0-1.28","SS1604513240126","<img src='images/simple/14.png' width ='500' height = '500' style='border:5px solid black'>","40","mixed_complex_deviant","images/simple/11.png","images/simple/14.png","images/complex/13.png,images/complex/15.png,images/complex/16.png,images/complex/17.png,images/complex/5.png,images/complex/10.png,images/complex/4.png","0","null","","200","1876.2950000120327","","","","background","",""
"","null","html-keyboard-response","73","394931","0.0-14.0-0.29","SS1604513240126","","null","","","","","","","","","","","","<img src=images/blank.png width =""500"" height = ""500"" style=""border:5px solid black"">","","",""
"","888.6449999990873","stimulus-presentation","74","396023","0.0-14.0-1.29","SS1604513240126","<img src='images/simple/14.png' width ='500' height = '500' style='border:5px solid black'>","40","mixed_complex_deviant","images/simple/11.png","images/simple/14.png","images/complex/13.png,images/complex/15.png,images/complex/16.png,images/complex/17.png,images/complex/5.png,images/complex/10.png,images/complex/4.png","0","null","","200","1088.6449999990873","","","","background","",""
"","null","html-keyboard-response","75","396839","0.0-14.0-0.30","SS1604513240126","","null","","","","","","","","","","","","<img src=images/blank.png width =""500"" height = ""500"" style=""border:5px solid black"">","","",""
"","510.15500001085456","stimulus-presentation","76","397556","0.0-14.0-1.30","SS1604513240126","<img src='images/simple/14.png' width ='500' height = '500' style='border:5px solid black'>","40","mixed_complex_deviant","images/simple/11.png","images/simple/14.png","images/complex/13.png,images/complex/15.png,images/complex/16.png,images/complex/17.png,images/complex/5.png,images/complex/10.png,images/complex/4.png","0","null","","200","710.1550000108546","","","","background","",""
"","null","html-keyboard-response","77","398512","0.0-14.0-0.31","SS1604513240126","","null","","","","","","","","","","","","<img src=images/blank.png width =""500"" height = ""500"" style=""border:5px solid black"">","","",""
"","2420.7600000081584","stimulus-presentation","78","401138","0.0-14.0-1.31","SS1604513240126","<img src='images/complex/17.png' width ='500' height = '500' style='border:5px solid black'>","40","mixed_complex_deviant","images/simple/11.png","images/simple/14.png","images/complex/13.png,images/complex/15.png,images/complex/16.png,images/complex/17.png,images/complex/5.png,images/complex/10.png,images/complex/4.png","0","null","","200","2620.7600000081584","","","","deviant","",""
"","null","html-keyboard-response","79","402433","0.0-14.0-0.32","SS1604513240126","","null","","","","","","","","","","","","<img src=images/blank.png width =""500"" height = ""500"" style=""border:5px solid black"">","","",""
"","1405.270000002929","stimulus-presentation","80","404047","0.0-14.0-1.32","SS1604513240126","<img src='images/simple/14.png' width ='500' height = '500' style='border:5px solid black'>","40","mixed_complex_deviant","images/simple/11.png","images/simple/14.png","images/complex/13.png,images/complex/15.png,images/complex/16.png,images/complex/17.png,images/complex/5.png,images/complex/10.png,images/complex/4.png","0","null","","200","1605.270000002929","","","","background","",""
"","null","html-keyboard-response","81","405096","0.0-14.0-0.33","SS1604513240126","","null","","","","","","","","","","","","<img src=images/blank.png width =""500"" height = ""500"" style=""border:5px solid black"">","","",""
"","1691.2949999968987","stimulus-presentation","82","406994","0.0-14.0-1.33","SS1604513240126","<img src='images/simple/14.png' width ='500' height = '500' style='border:5px solid black'>","40","mixed_complex_deviant","images/simple/11.png","images/simple/14.png","images/complex/13.png,images/complex/15.png,images/complex/16.png,images/complex/17.png,images/complex/5.png,images/complex/10.png,images/complex/4.png","0","null","","200","1891.2949999968987","","","","background","",""
"","null","html-keyboard-response","83","408262","0.0-14.0-0.34","SS1604513240126","","null","","","","","","","","","","","","<img src=images/blank.png width =""500"" height = ""500"" style=""border:5px solid black"">","","",""
"","1356.8349999986822","stimulus-presentation","84","409824","0.0-14.0-1.34","SS1604513240126","<img src='images/simple/14.png' width ='500' height = '500' style='border:5px solid black'>","40","mixed_complex_deviant","images/simple/11.png","images/simple/14.png","images/complex/13.png,images/complex/15.png,images/complex/16.png,images/complex/17.png,images/complex/5.png,images/complex/10.png,images/complex/4.png","0","null","","200","1556.8349999986822","","","","background","",""
"","null","html-keyboard-response","85","410872","0.0-14.0-0.35","SS1604513240126","","null","","","","","","","","","","","","<img src=images/blank.png width =""500"" height = ""500"" style=""border:5px solid black"">","","",""
"","4211.699999999837","stimulus-presentation","86","415292","0.0-14.0-1.35","SS1604513240126","<img src='images/simple/14.png' width ='500' height = '500' style='border:5px solid black'>","40","mixed_complex_deviant","images/simple/11.png","images/simple/14.png","images/complex/13.png,images/complex/15.png,images/complex/16.png,images/complex/17.png,images/complex/5.png,images/complex/10.png,images/complex/4.png","0","null","","200","4411.699999999837","","","","background","",""
"","null","html-keyboard-response","87","416140","0.0-14.0-0.36","SS1604513240126","","null","","","","","","","","","","","","<img src=images/blank.png width =""500"" height = ""500"" style=""border:5px solid black"">","","",""
"","6726.3850000017555","stimulus-presentation","88","423070","0.0-14.0-1.36","SS1604513240126","<img src='images/simple/14.png' width ='500' height = '500' style='border:5px solid black'>","40","mixed_complex_deviant","images/simple/11.png","images/simple/14.png","images/complex/13.png,images/complex/15.png,images/complex/16.png,images/complex/17.png,images/complex/5.png,images/complex/10.png,images/complex/4.png","0","null","","200","6926.3850000017555","","","","background","",""
"","null","html-keyboard-response","89","424055","0.0-14.0-0.37","SS1604513240126","","null","","","","","","","","","","","","<img src=images/blank.png width =""500"" height = ""500"" style=""border:5px solid black"">","","",""
"","2425.085000009858","stimulus-presentation","90","426688","0.0-14.0-1.37","SS1604513240126","<img src='images/complex/10.png' width ='500' height = '500' style='border:5px solid black'>","40","mixed_complex_deviant","images/simple/11.png","images/simple/14.png","images/complex/13.png,images/complex/15.png,images/complex/16.png,images/complex/17.png,images/complex/5.png,images/complex/10.png,images/complex/4.png","0","null","","200","2625.085000009858","","","","deviant","",""
"","null","html-keyboard-response","91","427735","0.0-14.0-0.38","SS1604513240126","","null","","","","","","","","","","","","<img src=images/blank.png width =""500"" height = ""500"" style=""border:5px solid black"">","","",""
"","902.8200000029756","stimulus-presentation","92","428844","0.0-14.0-1.38","SS1604513240126","<img src='images/simple/14.png' width ='500' height = '500' style='border:5px solid black'>","40","mixed_complex_deviant","images/simple/11.png","images/simple/14.png","images/complex/13.png,images/complex/15.png,images/complex/16.png,images/complex/17.png,images/complex/5.png,images/complex/10.png,images/complex/4.png","0","null","","200","1102.8200000029756","","","","background","",""
"","null","html-keyboard-response","93","429854","0.0-14.0-0.39","SS1604513240126","","null","","","","","","","","","","","","<img src=images/blank.png width =""500"" height = ""500"" style=""border:5px solid black"">","","",""
"","265.42999999946915","stimulus-presentation","94","430328","0.0-14.0-1.39","SS1604513240126","<img src='images/simple/14.png' width ='500' height = '500' style='border:5px solid black'>","40","mixed_complex_deviant","images/simple/11.png","images/simple/14.png","images/complex/13.png,images/complex/15.png,images/complex/16.png,images/complex/17.png,images/complex/5.png,images/complex/10.png,images/complex/4.png","0","null","","200","465.42999999946915","","","","background","",""
"","null","html-keyboard-response","95","431151","0.0-14.0-0.40","SS1604513240126","","null","","","","","","","","","","","","<img src=images/blank.png width =""500"" height = ""500"" style=""border:5px solid black"">","","",""
"","4464.214999999967","stimulus-presentation","96","435821","0.0-14.0-1.40","SS1604513240126","<img src='images/simple/11.png' width ='500' height = '500' style='border:5px solid black'>","40","mixed_complex_deviant","images/simple/11.png","images/simple/14.png","images/complex/13.png,images/complex/15.png,images/complex/16.png,images/complex/17.png,images/complex/5.png,images/complex/10.png,images/complex/4.png","0","null","","200","4664.214999999967","yes","447.9999999894062","","target","",""
"","null","html-keyboard-response","97","436933","0.0-14.0-0.41","SS1604513240126","","null","","","","","","","","","","","","<img src=images/blank.png width =""500"" height = ""500"" style=""border:5px solid black"">","","",""
"","1370.7100000028731","stimulus-presentation","98","438511","0.0-14.0-1.41","SS1604513240126","<img src='images/simple/14.png' width ='500' height = '500' style='border:5px solid black'>","40","mixed_complex_deviant","images/simple/11.png","images/simple/14.png","images/complex/13.png,images/complex/15.png,images/complex/16.png,images/complex/17.png,images/complex/5.png,images/complex/10.png,images/complex/4.png","0","null","","200","1570.7100000028731","yes","575.6949999922654","","background","",""
"","null","html-keyboard-response","99","439364","0.0-14.0-0.42","SS1604513240126","","null","","","","","","","","","","","","<img src=images/blank.png width =""500"" height = ""500"" style=""border:5px solid black"">","","",""
"","1317.5349999946775","stimulus-presentation","100","440887","0.0-14.0-1.42","SS1604513240126","<img src='images/simple/14.png' width ='500' height = '500' style='border:5px solid black'>","40","mixed_complex_deviant","images/simple/11.png","images/simple/14.png","images/complex/13.png,images/complex/15.png,images/complex/16.png,images/complex/17.png,images/complex/5.png,images/complex/10.png,images/complex/4.png","0","null","","200","1517.5349999946775","","","","background","",""
"","null","html-keyboard-response","101","441767","0.0-14.0-0.43","SS1604513240126","","null","","","","","","","","","","","","<img src=images/blank.png width =""500"" height = ""500"" style=""border:5px solid black"">","","",""
"","20077.05999999598","stimulus-presentation","102","462047","0.0-14.0-1.43","SS1604513240126","<img src='images/simple/14.png' width ='500' height = '500' style='border:5px solid black'>","40","mixed_complex_deviant","images/simple/11.png","images/simple/14.png","images/complex/13.png,images/complex/15.png,images/complex/16.png,images/complex/17.png,images/complex/5.png,images/complex/10.png,images/complex/4.png","0","null","","200","20277.05999999598","","","","background","",""
"","null","html-keyboard-response","103","462928","0.0-14.0-0.44","SS1604513240126","","null","","","","","","","","","","","","<img src=images/blank.png width =""500"" height = ""500"" style=""border:5px solid black"">","","",""
"","2284.220000001369","stimulus-presentation","104","465415","0.0-14.0-1.44","SS1604513240126","<img src='images/simple/14.png' width ='500' height = '500' style='border:5px solid black'>","40","mixed_complex_deviant","images/simple/11.png","images/simple/14.png","images/complex/13.png,images/complex/15.png,images/complex/16.png,images/complex/17.png,images/complex/5.png,images/complex/10.png,images/complex/4.png","0","null","","200","2484.220000001369","","","","background","",""
"","null","html-keyboard-response","105","466383","0.0-14.0-0.45","SS1604513240126","","null","","","","","","","","","","","","<img src=images/blank.png width =""500"" height = ""500"" style=""border:5px solid black"">","","",""
"","323.39499999943655","stimulus-presentation","106","466914","0.0-14.0-1.45","SS1604513240126","<img src='images/simple/14.png' width ='500' height = '500' style='border:5px solid black'>","40","mixed_complex_deviant","images/simple/11.png","images/simple/14.png","images/complex/13.png,images/complex/15.png,images/complex/16.png,images/complex/17.png,images/complex/5.png,images/complex/10.png,images/complex/4.png","0","null","","200","523.3949999994365","","","","background","",""
"","null","html-keyboard-response","107","467955","0.0-14.0-0.46","SS1604513240126","","null","","","","","","","","","","","","<img src=images/blank.png width =""500"" height = ""500"" style=""border:5px solid black"">","","",""
"","467.6999999937834","stimulus-presentation","108","468626","0.0-14.0-1.46","SS1604513240126","<img src='images/simple/14.png' width ='500' height = '500' style='border:5px solid black'>","40","mixed_complex_deviant","images/simple/11.png","images/simple/14.png","images/complex/13.png,images/complex/15.png,images/complex/16.png,images/complex/17.png,images/complex/5.png,images/complex/10.png,images/complex/4.png","0","null","","200","667.6999999937834","","","","background","",""
"","null","html-keyboard-response","109","469637","0.0-14.0-0.47","SS1604513240126","","null","","","","","","","","","","","","<img src=images/blank.png width =""500"" height = ""500"" style=""border:5px solid black"">","","",""
"","1123.3550000033574","stimulus-presentation","110","470966","0.0-14.0-1.47","SS1604513240126","<img src='images/simple/14.png' width ='500' height = '500' style='border:5px solid black'>","40","mixed_complex_deviant","images/simple/11.png","images/simple/14.png","images/complex/13.png,images/complex/15.png,images/complex/16.png,images/complex/17.png,images/complex/5.png,images/complex/10.png,images/complex/4.png","0","null","","200","1323.3550000033574","","","","background","",""
"","null","html-keyboard-response","111","472235","0.0-14.0-0.48","SS1604513240126","","null","","","","","","","","","","","","<img src=images/blank.png width =""500"" height = ""500"" style=""border:5px solid black"">","","",""
"","161.86500000185333","stimulus-presentation","112","472605","0.0-14.0-1.48","SS1604513240126","<img src='images/simple/14.png' width ='500' height = '500' style='border:5px solid black'>","40","mixed_complex_deviant","images/simple/11.png","images/simple/14.png","images/complex/13.png,images/complex/15.png,images/complex/16.png,images/complex/17.png,images/complex/5.png,images/complex/10.png,images/complex/4.png","0","null","","200","361.86500000185333","","","","background","",""
"[{""page_index"":0,""viewing_time"":111770}]","111770","task-instructions","113","584377","0.0-15.0","SS1604513240126","","","","","","","","","","","","","","","","",""
"[{""page_index"":0,""viewing_time"":9843.679999990854},{""page_index"":1,""viewing_time"":2853.465000007418},{""page_index"":0,""viewing_time"":4387.319999994361},{""page_index"":1,""viewing_time"":6025.25500000047},{""page_index"":2,""viewing_time"":1559.320000000298}]","24669.255000000703","instructions","114","609049","0.0-16.0","SS1604513240126","","","","","","","","","","","","","","","","",""
"","null","html-keyboard-response","115","609918","0.0-17.0-0.0","SS1604513240126","","null","","","","","","","","","","","","<img src=images/blank.png width =""500"" height = ""500"" style=""border:5px solid black"">","","",""
"","1707.0799999928568","stimulus-presentation","116","611834","0.0-17.0-1.0","SS1604513240126","<img src='images/complex/18.png' width ='500' height = '500' style='border:5px solid black'>","40","mixed_simple_deviant","images/complex/11.png","images/complex/18.png","images/simple/3.png,images/simple/2.png,images/simple/12.png,images/simple/6.png,images/simple/16.png,images/simple/5.png,images/simple/9.png","1","null","","200","1907.0799999928568","","","","background","",""
"","null","html-keyboard-response","117","612826","0.0-17.0-0.1","SS1604513240126","","null","","","","","","","","","","","","<img src=images/blank.png width =""500"" height = ""500"" style=""border:5px solid black"">","","",""
"","808.7700000032783","stimulus-presentation","118","613839","0.0-17.0-1.1","SS1604513240126","<img src='images/complex/18.png' width ='500' height = '500' style='border:5px solid black'>","40","mixed_simple_deviant","images/complex/11.png","images/complex/18.png","images/simple/3.png,images/simple/2.png,images/simple/12.png,images/simple/6.png,images/simple/16.png,images/simple/5.png,images/simple/9.png","1","null","","200","1008.7700000032783","","","","background","",""
"","null","html-keyboard-response","119","614975","0.0-17.0-0.2","SS1604513240126","","null","","","","","","","","","","","","<img src=images/blank.png width =""500"" height = ""500"" style=""border:5px solid black"">","","",""
"","478.09000000415836","stimulus-presentation","120","615657","0.0-17.0-1.2","SS1604513240126","<img src='images/complex/18.png' width ='500' height = '500' style='border:5px solid black'>","40","mixed_simple_deviant","images/complex/11.png","images/complex/18.png","images/simple/3.png,images/simple/2.png,images/simple/12.png,images/simple/6.png,images/simple/16.png,images/simple/5.png,images/simple/9.png","1","null","","200","678.0900000041584","","","","background","",""
"","null","html-keyboard-response","121","616612","0.0-17.0-0.3","SS1604513240126","","null","","","","","","","","","","","","<img src=images/blank.png width =""500"" height = ""500"" style=""border:5px solid black"">","","",""
"","830.2750000002561","stimulus-presentation","122","617646","0.0-17.0-1.3","SS1604513240126","<img src='images/simple/16.png' width ='500' height = '500' style='border:5px solid black'>","40","mixed_simple_deviant","images/complex/11.png","images/complex/18.png","images/simple/3.png,images/simple/2.png,images/simple/12.png,images/simple/6.png,images/simple/16.png,images/simple/5.png,images/simple/9.png","1","null","","200","1030.2750000002561","","","","deviant","",""
"","null","html-keyboard-response","123","618889","0.0-17.0-0.4","SS1604513240126","","null","","","","","","","","","","","","<img src=images/blank.png width =""500"" height = ""500"" style=""border:5px solid black"">","","",""
"","542.7250000066124","stimulus-presentation","124","619636","0.0-17.0-1.4","SS1604513240126","<img src='images/complex/18.png' width ='500' height = '500' style='border:5px solid black'>","40","mixed_simple_deviant","images/complex/11.png","images/complex/18.png","images/simple/3.png,images/simple/2.png,images/simple/12.png,images/simple/6.png,images/simple/16.png,images/simple/5.png,images/simple/9.png","1","null","","200","742.7250000066124","","","","background","",""
"","null","html-keyboard-response","125","620912","0.0-17.0-0.5","SS1604513240126","","null","","","","","","","","","","","","<img src=images/blank.png width =""500"" height = ""500"" style=""border:5px solid black"">","","",""
"","1736.3900000054855","stimulus-presentation","126","622855","0.0-17.0-1.5","SS1604513240126","<img src='images/complex/11.png' width ='500' height = '500' style='border:5px solid black'>","40","mixed_simple_deviant","images/complex/11.png","images/complex/18.png","images/simple/3.png,images/simple/2.png,images/simple/12.png,images/simple/6.png,images/simple/16.png,images/simple/5.png,images/simple/9.png","1","null","","200","1936.3900000054855","yes","533.3249999966938","","target","",""
"","null","html-keyboard-response","127","623917","0.0-17.0-0.6","SS1604513240126","","null","","","","","","","","","","","","<img src=images/blank.png width =""500"" height = ""500"" style=""border:5px solid black"">","","",""
"","347.48499999113847","stimulus-presentation","128","624468","0.0-17.0-1.6","SS1604513240126","<img src='images/complex/18.png' width ='500' height = '500' style='border:5px solid black'>","40","mixed_simple_deviant","images/complex/11.png","images/complex/18.png","images/simple/3.png,images/simple/2.png,images/simple/12.png,images/simple/6.png,images/simple/16.png,images/simple/5.png,images/simple/9.png","1","null","","200","547.4849999911385","","","","background","",""
"","null","html-keyboard-response","129","625501","0.0-17.0-0.7","SS1604513240126","","null","","","","","","","","","","","","<img src=images/blank.png width =""500"" height = ""500"" style=""border:5px solid black"">","","",""
"","1319.0850000100909","stimulus-presentation","130","627029","0.0-17.0-1.7","SS1604513240126","<img src='images/complex/11.png' width ='500' height = '500' style='border:5px solid black'>","40","mixed_simple_deviant","images/complex/11.png","images/complex/18.png","images/simple/3.png,images/simple/2.png,images/simple/12.png,images/simple/6.png,images/simple/16.png,images/simple/5.png,images/simple/9.png","1","null","","200","1519.0850000100909","yes","371.4800000016112","","target","",""
"","null","html-keyboard-response","131","627975","0.0-17.0-0.8","SS1604513240126","","null","","","","","","","","","","","","<img src=images/blank.png width =""500"" height = ""500"" style=""border:5px solid black"">","","",""
"","349.1900000080932","stimulus-presentation","132","628531","0.0-17.0-1.8","SS1604513240126","<img src='images/complex/18.png' width ='500' height = '500' style='border:5px solid black'>","40","mixed_simple_deviant","images/complex/11.png","images/complex/18.png","images/simple/3.png,images/simple/2.png,images/simple/12.png,images/simple/6.png,images/simple/16.png,images/simple/5.png,images/simple/9.png","1","null","","200","549.1900000080932","","","","background","",""
"","null","html-keyboard-response","133","629645","0.0-17.0-0.9","SS1604513240126","","null","","","","","","","","","","","","<img src=images/blank.png width =""500"" height = ""500"" style=""border:5px solid black"">","","",""
"","1380.1999999996042","stimulus-presentation","134","631229","0.0-17.0-1.9","SS1604513240126","<img src='images/complex/18.png' width ='500' height = '500' style='border:5px solid black'>","40","mixed_simple_deviant","images/complex/11.png","images/complex/18.png","images/simple/3.png,images/simple/2.png,images/simple/12.png,images/simple/6.png,images/simple/16.png,images/simple/5.png,images/simple/9.png","1","null","","200","1580.1999999996042","yes","453.52499998989515","","background","",""
"","null","html-keyboard-response","135","632528","0.0-17.0-0.10","SS1604513240126","","null","","","","","","","","","","","","<img src=images/blank.png width =""500"" height = ""500"" style=""border:5px solid black"">","","",""
"","364.86000000149943","stimulus-presentation","136","633101","0.0-17.0-1.10","SS1604513240126","<img src='images/simple/12.png' width ='500' height = '500' style='border:5px solid black'>","40","mixed_simple_deviant","images/complex/11.png","images/complex/18.png","images/simple/3.png,images/simple/2.png,images/simple/12.png,images/simple/6.png,images/simple/16.png,images/simple/5.png,images/simple/9.png","1","null","","200","564.8600000014994","","","","deviant","",""
"","null","html-keyboard-response","137","634202","0.0-17.0-0.11","SS1604513240126","","null","","","","","","","","","","","","<img src=images/blank.png width =""500"" height = ""500"" style=""border:5px solid black"">","","",""
"","1531.3750000059372","stimulus-presentation","138","635938","0.0-17.0-1.11","SS1604513240126","<img src='images/complex/11.png' width ='500' height = '500' style='border:5px solid black'>","40","mixed_simple_deviant","images/complex/11.png","images/complex/18.png","images/simple/3.png,images/simple/2.png,images/simple/12.png,images/simple/6.png,images/simple/16.png,images/simple/5.png,images/simple/9.png","1","null","","200","1731.3750000059372","yes","552.0150000083959","","target","",""
"","null","html-keyboard-response","139","636746","0.0-17.0-0.12","SS1604513240126","","null","","","","","","","","","","","","<img src=images/blank.png width =""500"" height = ""500"" style=""border:5px solid black"">","","",""
"","551.3100000098348","stimulus-presentation","140","637506","0.0-17.0-1.12","SS1604513240126","<img src='images/complex/18.png' width ='500' height = '500' style='border:5px solid black'>","40","mixed_simple_deviant","images/complex/11.png","images/complex/18.png","images/simple/3.png,images/simple/2.png,images/simple/12.png,images/simple/6.png,images/simple/16.png,images/simple/5.png,images/simple/9.png","1","null","","200","751.3100000098348","","","","background","",""
"","null","html-keyboard-response","141","638508","0.0-17.0-0.13","SS1604513240126","","null","","","","","","","","","","","","<img src=images/blank.png width =""500"" height = ""500"" style=""border:5px solid black"">","","",""
"","133.83999999496154","stimulus-presentation","142","638851","0.0-17.0-1.13","SS1604513240126","<img src='images/complex/18.png' width ='500' height = '500' style='border:5px solid black'>","40","mixed_simple_deviant","images/complex/11.png","images/complex/18.png","images/simple/3.png,images/simple/2.png,images/simple/12.png,images/simple/6.png,images/simple/16.png,images/simple/5.png,images/simple/9.png","1","null","","200","333.83999999496154","","","","background","",""
"","null","html-keyboard-response","143","639723","0.0-17.0-0.14","SS1604513240126","","null","","","","","","","","","","","","<img src=images/blank.png width =""500"" height = ""500"" style=""border:5px solid black"">","","",""
"","533.8699999992969","stimulus-presentation","144","640465","0.0-17.0-1.14","SS1604513240126","<img src='images/simple/2.png' width ='500' height = '500' style='border:5px solid black'>","40","mixed_simple_deviant","images/complex/11.png","images/complex/18.png","images/simple/3.png,images/simple/2.png,images/simple/12.png,images/simple/6.png,images/simple/16.png,images/simple/5.png,images/simple/9.png","1","null","","200","733.8699999992969","","","","deviant","",""
"","null","html-keyboard-response","145","641509","0.0-17.0-0.15","SS1604513240126","","null","","","","","","","","","","","","<img src=images/blank.png width =""500"" height = ""500"" style=""border:5px solid black"">","","",""
"","382.34000001102686","stimulus-presentation","146","642099","0.0-17.0-1.15","SS1604513240126","<img src='images/complex/18.png' width ='500' height = '500' style='border:5px solid black'>","40","mixed_simple_deviant","images/complex/11.png","images/complex/18.png","images/simple/3.png,images/simple/2.png,images/simple/12.png,images/simple/6.png,images/simple/16.png,images/simple/5.png,images/simple/9.png","1","null","","200","582.3400000110269","","","","background","",""
"","null","html-keyboard-response","147","643267","0.0-17.0-0.16","SS1604513240126","","null","","","","","","","","","","","","<img src=images/blank.png width =""500"" height = ""500"" style=""border:5px solid black"">","","",""
"","166.77000001072884","stimulus-presentation","148","643640","0.0-17.0-1.16","SS1604513240126","<img src='images/complex/18.png' width ='500' height = '500' style='border:5px solid black'>","40","mixed_simple_deviant","images/complex/11.png","images/complex/18.png","images/simple/3.png,images/simple/2.png,images/simple/12.png,images/simple/6.png,images/simple/16.png,images/simple/5.png,images/simple/9.png","1","null","","200","366.77000001072884","","","","background","",""
"","null","html-keyboard-response","149","644758","0.0-17.0-0.17","SS1604513240126","","null","","","","","","","","","","","","<img src=images/blank.png width =""500"" height = ""500"" style=""border:5px solid black"">","","",""
"","134.24999998824205","stimulus-presentation","150","645101","0.0-17.0-1.17","SS1604513240126","<img src='images/complex/18.png' width ='500' height = '500' style='border:5px solid black'>","40","mixed_simple_deviant","images/complex/11.png","images/complex/18.png","images/simple/3.png,images/simple/2.png,images/simple/12.png,images/simple/6.png,images/simple/16.png,images/simple/5.png,images/simple/9.png","1","null","","200","334.24999998824205","","","","background","",""
"","null","html-keyboard-response","151","646199","0.0-17.0-0.18","SS1604513240126","","null","","","","","","","","","","","","<img src=images/blank.png width =""500"" height = ""500"" style=""border:5px solid black"">","","",""
"","98.7100000056671","stimulus-presentation","152","646502","0.0-17.0-1.18","SS1604513240126","<img src='images/complex/18.png' width ='500' height = '500' style='border:5px solid black'>","40","mixed_simple_deviant","images/complex/11.png","images/complex/18.png","images/simple/3.png,images/simple/2.png,images/simple/12.png,images/simple/6.png,images/simple/16.png,images/simple/5.png,images/simple/9.png","1","null","","200","298.7100000056671","","","","background","",""
"","null","html-keyboard-response","153","647453","0.0-17.0-0.19","SS1604513240126","","null","","","","","","","","","","","","<img src=images/blank.png width =""500"" height = ""500"" style=""border:5px solid black"">","","",""
"","1690.5249999981606","stimulus-presentation","154","649352","0.0-17.0-1.19","SS1604513240126","<img src='images/complex/11.png' width ='500' height = '500' style='border:5px solid black'>","40","mixed_simple_deviant","images/complex/11.png","images/complex/18.png","images/simple/3.png,images/simple/2.png,images/simple/12.png,images/simple/6.png,images/simple/16.png,images/simple/5.png,images/simple/9.png","1","null","","200","1890.5249999981606","yes","358.5449999955017","","target","",""
"","null","html-keyboard-response","155","650527","0.0-17.0-0.20","SS1604513240126","","null","","","","","","","","","","","","<img src=images/blank.png width =""500"" height = ""500"" style=""border:5px solid black"">","","",""
"","379.99000000127126","stimulus-presentation","156","651114","0.0-17.0-1.20","SS1604513240126","<img src='images/complex/18.png' width ='500' height = '500' style='border:5px solid black'>","40","mixed_simple_deviant","images/complex/11.png","images/complex/18.png","images/simple/3.png,images/simple/2.png,images/simple/12.png,images/simple/6.png,images/simple/16.png,images/simple/5.png,images/simple/9.png","1","null","","200","579.9900000012713","","","","background","",""
"","null","html-keyboard-response","157","652319","0.0-17.0-0.21","SS1604513240126","","null","","","","","","","","","","","","<img src=images/blank.png width =""500"" height = ""500"" style=""border:5px solid black"">","","",""
"","1752.634999997099","stimulus-presentation","158","654276","0.0-17.0-1.21","SS1604513240126","<img src='images/simple/9.png' width ='500' height = '500' style='border:5px solid black'>","40","mixed_simple_deviant","images/complex/11.png","images/complex/18.png","images/simple/3.png,images/simple/2.png,images/simple/12.png,images/simple/6.png,images/simple/16.png,images/simple/5.png,images/simple/9.png","1","null","","200","1952.634999997099","","","","deviant","",""
"","null","html-keyboard-response","159","655106","0.0-17.0-0.22","SS1604513240126","","null","","","","","","","","","","","","<img src=images/blank.png width =""500"" height = ""500"" style=""border:5px solid black"">","","",""
"","255.05999999586493","stimulus-presentation","160","655570","0.0-17.0-1.22","SS1604513240126","<img src='images/complex/18.png' width ='500' height = '500' style='border:5px solid black'>","40","mixed_simple_deviant","images/complex/11.png","images/complex/18.png","images/simple/3.png,images/simple/2.png,images/simple/12.png,images/simple/6.png,images/simple/16.png,images/simple/5.png,images/simple/9.png","1","null","","200","455.0599999958649","","","","background","",""
"","null","html-keyboard-response","161","656382","0.0-17.0-0.23","SS1604513240126","","null","","","","","","","","","","","","<img src=images/blank.png width =""500"" height = ""500"" style=""border:5px solid black"">","","",""
"","3705.4899999930058","stimulus-presentation","162","660293","0.0-17.0-1.23","SS1604513240126","<img src='images/complex/11.png' width ='500' height = '500' style='border:5px solid black'>","40","mixed_simple_deviant","images/complex/11.png","images/complex/18.png","images/simple/3.png,images/simple/2.png,images/simple/12.png,images/simple/6.png,images/simple/16.png,images/simple/5.png,images/simple/9.png","1","null","","200","3905.4899999930058","yes","389.58000000275206","","target","",""
"","null","html-keyboard-response","163","661414","0.0-17.0-0.24","SS1604513240126","","null","","","","","","","","","","","","<img src=images/blank.png width =""500"" height = ""500"" style=""border:5px solid black"">","","",""
"","1574.3700000020908","stimulus-presentation","164","663191","0.0-17.0-1.24","SS1604513240126","<img src='images/simple/5.png' width ='500' height = '500' style='border:5px solid black'>","40","mixed_simple_deviant","images/complex/11.png","images/complex/18.png","images/simple/3.png,images/simple/2.png,images/simple/12.png,images/simple/6.png,images/simple/16.png,images/simple/5.png,images/simple/9.png","1","null","","200","1774.3700000020908","","","","deviant","",""
"","null","html-keyboard-response","165","664118","0.0-17.0-0.25","SS1604513240126","","null","","","","","","","","","","","","<img src=images/blank.png width =""500"" height = ""500"" style=""border:5px solid black"">","","",""
"","255.89499999477994","stimulus-presentation","166","664582","0.0-17.0-1.25","SS1604513240126","<img src='images/complex/18.png' width ='500' height = '500' style='border:5px solid black'>","40","mixed_simple_deviant","images/complex/11.png","images/complex/18.png","images/simple/3.png,images/simple/2.png,images/simple/12.png,images/simple/6.png,images/simple/16.png,images/simple/5.png,images/simple/9.png","1","null","","200","455.89499999477994","","","","background","",""
"","null","html-keyboard-response","167","665608","0.0-17.0-0.26","SS1604513240126","","null","","","","","","","","","","","","<img src=images/blank.png width =""500"" height = ""500"" style=""border:5px solid black"">","","",""
"","340.59000000706874","stimulus-presentation","168","666158","0.0-17.0-1.26","SS1604513240126","<img src='images/complex/18.png' width ='500' height = '500' style='border:5px solid black'>","40","mixed_simple_deviant","images/complex/11.png","images/complex/18.png","images/simple/3.png,images/simple/2.png,images/simple/12.png,images/simple/6.png,images/simple/16.png,images/simple/5.png,images/simple/9.png","1","null","","200","540.5900000070687","","","","background","",""
"","null","html-keyboard-response","169","667170","0.0-17.0-0.27","SS1604513240126","","null","","","","","","","","","","","","<img src=images/blank.png width =""500"" height = ""500"" style=""border:5px solid black"">","","",""
"","945.3950000024633","stimulus-presentation","170","668320","0.0-17.0-1.27","SS1604513240126","<img src='images/simple/3.png' width ='500' height = '500' style='border:5px solid black'>","40","mixed_simple_deviant","images/complex/11.png","images/complex/18.png","images/simple/3.png,images/simple/2.png,images/simple/12.png,images/simple/6.png,images/simple/16.png,images/simple/5.png,images/simple/9.png","1","null","","200","1145.3950000024633","","","","deviant","",""
"","null","html-keyboard-response","171","669424","0.0-17.0-0.28","SS1604513240126","","null","","","","","","","","","","","","<img src=images/blank.png width =""500"" height = ""500"" style=""border:5px solid black"">","","",""
"","380.34499999776017","stimulus-presentation","172","670010","0.0-17.0-1.28","SS1604513240126","<img src='images/complex/18.png' width ='500' height = '500' style='border:5px solid black'>","40","mixed_simple_deviant","images/complex/11.png","images/complex/18.png","images/simple/3.png,images/simple/2.png,images/simple/12.png,images/simple/6.png,images/simple/16.png,images/simple/5.png,images/simple/9.png","1","null","","200","580.3449999977602","","","","background","",""
"","null","html-keyboard-response","173","670937","0.0-17.0-0.29","SS1604513240126","","null","","","","","","","","","","","","<img src=images/blank.png width =""500"" height = ""500"" style=""border:5px solid black"">","","",""
"","157.17499998572748","stimulus-presentation","174","671304","0.0-17.0-1.29","SS1604513240126","<img src='images/complex/18.png' width ='500' height = '500' style='border:5px solid black'>","40","mixed_simple_deviant","images/complex/11.png","images/complex/18.png","images/simple/3.png,images/simple/2.png,images/simple/12.png,images/simple/6.png,images/simple/16.png,images/simple/5.png,images/simple/9.png","1","null","","200","357.1749999857275","","","","background","",""
"","null","html-keyboard-response","175","672148","0.0-17.0-0.30","SS1604513240126","","null","","","","","","","","","","","","<img src=images/blank.png width =""500"" height = ""500"" style=""border:5px solid black"">","","",""
"","2228.6500000045635","stimulus-presentation","176","674586","0.0-17.0-1.30","SS1604513240126","<img src='images/complex/11.png' width ='500' height = '500' style='border:5px solid black'>","40","mixed_simple_deviant","images/complex/11.png","images/complex/18.png","images/simple/3.png,images/simple/2.png,images/simple/12.png,images/simple/6.png,images/simple/16.png,images/simple/5.png,images/simple/9.png","1","null","","200","2428.6500000045635","yes","461.9349999993574","","target","",""
"","null","html-keyboard-response","177","675400","0.0-17.0-0.31","SS1604513240126","","null","","","","","","","","","","","","<img src=images/blank.png width =""500"" height = ""500"" style=""border:5px solid black"">","","",""
"","300.7099999958882","stimulus-presentation","178","675909","0.0-17.0-1.31","SS1604513240126","<img src='images/complex/18.png' width ='500' height = '500' style='border:5px solid black'>","40","mixed_simple_deviant","images/complex/11.png","images/complex/18.png","images/simple/3.png,images/simple/2.png,images/simple/12.png,images/simple/6.png,images/simple/16.png,images/simple/5.png,images/simple/9.png","1","null","","200","500.7099999958882","","","","background","",""
"","null","html-keyboard-response","179","676954","0.0-17.0-0.32","SS1604513240126","","null","","","","","","","","","","","","<img src=images/blank.png width =""500"" height = ""500"" style=""border:5px solid black"">","","",""
"","687.2900000016671","stimulus-presentation","180","677851","0.0-17.0-1.32","SS1604513240126","<img src='images/complex/18.png' width ='500' height = '500' style='border:5px solid black'>","40","mixed_simple_deviant","images/complex/11.png","images/complex/18.png","images/simple/3.png,images/simple/2.png,images/simple/12.png,images/simple/6.png,images/simple/16.png,images/simple/5.png,images/simple/9.png","1","null","","200","887.2900000016671","","","","background","",""
"","null","html-keyboard-response","181","678798","0.0-17.0-0.33","SS1604513240126","","null","","","","","","","","","","","","<img src=images/blank.png width =""500"" height = ""500"" style=""border:5px solid black"">","","",""
"","242.21500000567175","stimulus-presentation","182","679244","0.0-17.0-1.33","SS1604513240126","<img src='images/complex/18.png' width ='500' height = '500' style='border:5px solid black'>","40","mixed_simple_deviant","images/complex/11.png","images/complex/18.png","images/simple/3.png,images/simple/2.png,images/simple/12.png,images/simple/6.png,images/simple/16.png,images/simple/5.png,images/simple/9.png","1","null","","200","442.21500000567175","","","","background","",""
"","null","html-keyboard-response","183","680145","0.0-17.0-0.34","SS1604513240126","","null","","","","","","","","","","","","<img src=images/blank.png width =""500"" height = ""500"" style=""border:5px solid black"">","","",""
"","201.50499998999294","stimulus-presentation","184","680556","0.0-17.0-1.34","SS1604513240126","<img src='images/complex/18.png' width ='500' height = '500' style='border:5px solid black'>","40","mixed_simple_deviant","images/complex/11.png","images/complex/18.png","images/simple/3.png,images/simple/2.png,images/simple/12.png,images/simple/6.png,images/simple/16.png,images/simple/5.png,images/simple/9.png","1","null","","200","401.50499998999294","","","","background","",""
"","null","html-keyboard-response","185","681735","0.0-17.0-0.35","SS1604513240126","","null","","","","","","","","","","","","<img src=images/blank.png width =""500"" height = ""500"" style=""border:5px solid black"">","","",""
"","198.98499999544583","stimulus-presentation","186","682139","0.0-17.0-1.35","SS1604513240126","<img src='images/complex/18.png' width ='500' height = '500' style='border:5px solid black'>","40","mixed_simple_deviant","images/complex/11.png","images/complex/18.png","images/simple/3.png,images/simple/2.png,images/simple/12.png,images/simple/6.png,images/simple/16.png,images/simple/5.png,images/simple/9.png","1","null","","200","398.98499999544583","","","","background","",""
"","null","html-keyboard-response","187","683329","0.0-17.0-0.36","SS1604513240126","","null","","","","","","","","","","","","<img src=images/blank.png width =""500"" height = ""500"" style=""border:5px solid black"">","","",""
"","103.45500000403263","stimulus-presentation","188","683640","0.0-17.0-1.36","SS1604513240126","<img src='images/complex/18.png' width ='500' height = '500' style='border:5px solid black'>","40","mixed_simple_deviant","images/complex/11.png","images/complex/18.png","images/simple/3.png,images/simple/2.png,images/simple/12.png,images/simple/6.png,images/simple/16.png,images/simple/5.png,images/simple/9.png","1","null","","200","303.4550000040326","","","","background","",""
"","null","html-keyboard-response","189","684458","0.0-17.0-0.37","SS1604513240126","","null","","","","","","","","","","","","<img src=images/blank.png width =""500"" height = ""500"" style=""border:5px solid black"">","","",""
"","178.9299999945797","stimulus-presentation","190","684847","0.0-17.0-1.37","SS1604513240126","<img src='images/complex/18.png' width ='500' height = '500' style='border:5px solid black'>","40","mixed_simple_deviant","images/complex/11.png","images/complex/18.png","images/simple/3.png,images/simple/2.png,images/simple/12.png,images/simple/6.png,images/simple/16.png,images/simple/5.png,images/simple/9.png","1","null","","200","378.9299999945797","","","","background","",""
"","null","html-keyboard-response","191","685871","0.0-17.0-0.38","SS1604513240126","","null","","","","","","","","","","","","<img src=images/blank.png width =""500"" height = ""500"" style=""border:5px solid black"">","","",""
"","430.7799999951385","stimulus-presentation","192","686509","0.0-17.0-1.38","SS1604513240126","<img src='images/simple/6.png' width ='500' height = '500' style='border:5px solid black'>","40","mixed_simple_deviant","images/complex/11.png","images/complex/18.png","images/simple/3.png,images/simple/2.png,images/simple/12.png,images/simple/6.png,images/simple/16.png,images/simple/5.png,images/simple/9.png","1","null","","200","630.7799999951385","","","","deviant","",""
"","null","html-keyboard-response","193","687604","0.0-17.0-0.39","SS1604513240126","","null","","","","","","","","","","","","<img src=images/blank.png width =""500"" height = ""500"" style=""border:5px solid black"">","","",""
"","192.0700000046054","stimulus-presentation","194","688005","0.0-17.0-1.39","SS1604513240126","<img src='images/complex/18.png' width ='500' height = '500' style='border:5px solid black'>","40","mixed_simple_deviant","images/complex/11.png","images/complex/18.png","images/simple/3.png,images/simple/2.png,images/simple/12.png,images/simple/6.png,images/simple/16.png,images/simple/5.png,images/simple/9.png","1","null","","200","392.0700000046054","","","","background","",""
"","null","html-keyboard-response","195","688859","0.0-17.0-0.40","SS1604513240126","","null","","","","","","","","","","","","<img src=images/blank.png width =""500"" height = ""500"" style=""border:5px solid black"">","","",""
"","182.61999999231193","stimulus-presentation","196","689246","0.0-17.0-1.40","SS1604513240126","<img src='images/complex/18.png' width ='500' height = '500' style='border:5px solid black'>","40","mixed_simple_deviant","images/complex/11.png","images/complex/18.png","images/simple/3.png,images/simple/2.png,images/simple/12.png,images/simple/6.png,images/simple/16.png,images/simple/5.png,images/simple/9.png","1","null","","200","382.61999999231193","","","","background","",""
"","null","html-keyboard-response","197","690152","0.0-17.0-0.41","SS1604513240126","","null","","","","","","","","","","","","<img src=images/blank.png width =""500"" height = ""500"" style=""border:5px solid black"">","","",""
"","2060.039999996661","stimulus-presentation","198","692422","0.0-17.0-1.41","SS1604513240126","<img src='images/complex/18.png' width ='500' height = '500' style='border:5px solid black'>","40","mixed_simple_deviant","images/complex/11.png","images/complex/18.png","images/simple/3.png,images/simple/2.png,images/simple/12.png,images/simple/6.png,images/simple/16.png,images/simple/5.png,images/simple/9.png","1","null","","200","2260.039999996661","","","","background","",""
"","null","html-keyboard-response","199","693602","0.0-17.0-0.42","SS1604513240126","","null","","","","","","","","","","","","<img src=images/blank.png width =""500"" height = ""500"" style=""border:5px solid black"">","","",""
"","163.5449999885168","stimulus-presentation","200","693975","0.0-17.0-1.42","SS1604513240126","<img src='images/complex/18.png' width ='500' height = '500' style='border:5px solid black'>","40","mixed_simple_deviant","images/complex/11.png","images/complex/18.png","images/simple/3.png,images/simple/2.png,images/simple/12.png,images/simple/6.png,images/simple/16.png,images/simple/5.png,images/simple/9.png","1","null","","200","363.5449999885168","","","","background","",""
"","null","html-keyboard-response","201","694971","0.0-17.0-0.43","SS1604513240126","","null","","","","","","","","","","","","<img src=images/blank.png width =""500"" height = ""500"" style=""border:5px solid black"">","","",""
"","3786.3450000004377","stimulus-presentation","202","698967","0.0-17.0-1.43","SS1604513240126","<img src='images/complex/11.png' width ='500' height = '500' style='border:5px solid black'>","40","mixed_simple_deviant","images/complex/11.png","images/complex/18.png","images/simple/3.png,images/simple/2.png,images/simple/12.png,images/simple/6.png,images/simple/16.png,images/simple/5.png,images/simple/9.png","1","null","","200","3986.3450000004377","yes","969.6249999979045","","target","",""
"","null","html-keyboard-response","203","700235","0.0-17.0-0.44","SS1604513240126","","null","","","","","","","","","","","","<img src=images/blank.png width =""500"" height = ""500"" style=""border:5px solid black"">","","",""
"","383.48499999847263","stimulus-presentation","204","700828","0.0-17.0-1.44","SS1604513240126","<img src='images/complex/18.png' width ='500' height = '500' style='border:5px solid black'>","40","mixed_simple_deviant","images/complex/11.png","images/complex/18.png","images/simple/3.png,images/simple/2.png,images/simple/12.png,images/simple/6.png,images/simple/16.png,images/simple/5.png,images/simple/9.png","1","null","","200","583.4849999984726","","","","background","",""
"","null","html-keyboard-response","205","701840","0.0-17.0-0.45","SS1604513240126","","null","","","","","","","","","","","","<img src=images/blank.png width =""500"" height = ""500"" style=""border:5px solid black"">","","",""
"","250.8499999967171","stimulus-presentation","206","702301","0.0-17.0-1.45","SS1604513240126","<img src='images/complex/18.png' width ='500' height = '500' style='border:5px solid black'>","40","mixed_simple_deviant","images/complex/11.png","images/complex/18.png","images/simple/3.png,images/simple/2.png,images/simple/12.png,images/simple/6.png,images/simple/16.png,images/simple/5.png,images/simple/9.png","1","null","","200","450.8499999967171","","","","background","",""
"","null","html-keyboard-response","207","703509","0.0-17.0-0.46","SS1604513240126","","null","","","","","","","","","","","","<img src=images/blank.png width =""500"" height = ""500"" style=""border:5px solid black"">","","",""
"","111.78500000096392","stimulus-presentation","208","703829","0.0-17.0-1.46","SS1604513240126","<img src='images/complex/18.png' width ='500' height = '500' style='border:5px solid black'>","40","mixed_simple_deviant","images/complex/11.png","images/complex/18.png","images/simple/3.png,images/simple/2.png,images/simple/12.png,images/simple/6.png,images/simple/16.png,images/simple/5.png,images/simple/9.png","1","null","","200","311.7850000009639","","","","background","",""
"","null","html-keyboard-response","209","704773","0.0-17.0-0.47","SS1604513240126","","null","","","","","","","","","","","","<img src=images/blank.png width =""500"" height = ""500"" style=""border:5px solid black"">","","",""
"","116.29000000539236","stimulus-presentation","210","705094","0.0-17.0-1.47","SS1604513240126","<img src='images/complex/18.png' width ='500' height = '500' style='border:5px solid black'>","40","mixed_simple_deviant","images/complex/11.png","images/complex/18.png","images/simple/3.png,images/simple/2.png,images/simple/12.png,images/simple/6.png,images/simple/16.png,images/simple/5.png,images/simple/9.png","1","null","","200","316.29000000539236","","","","background","",""
"","null","html-keyboard-response","211","706171","0.0-17.0-0.48","SS1604513240126","","null","","","","","","","","","","","","<img src=images/blank.png width =""500"" height = ""500"" style=""border:5px solid black"">","","",""
"","130.7600000000093","stimulus-presentation","212","706511","0.0-17.0-1.48","SS1604513240126","<img src='images/complex/18.png' width ='500' height = '500' style='border:5px solid black'>","40","mixed_simple_deviant","images/complex/11.png","images/complex/18.png","images/simple/3.png,images/simple/2.png,images/simple/12.png,images/simple/6.png,images/simple/16.png,images/simple/5.png,images/simple/9.png","1","null","","200","330.7600000000093","","","","background","",""
"[{""page_index"":0,""viewing_time"":9153}]","9153","task-instructions","213","715667","0.0-18.0","SS1604513240126","","","","","","","","","","","","","","","","",""
"[{""page_index"":0,""viewing_time"":4665.435000002617},{""page_index"":1,""viewing_time"":3704.4699999969453},{""page_index"":2,""viewing_time"":1466.0700000094948}]","9836.210000008577","instructions","214","725507","0.0-19.0","SS1604513240126","","","","","","","","","","","","","","","","",""
"","null","html-keyboard-response","215","726740","0.0-20.0-0.0","SS1604513240126","","null","","","","","","","","","","","","<img src=images/blank.png width =""500"" height = ""500"" style=""border:5px solid black"">","","",""
"","776.8400000059046","stimulus-presentation","216","727727","0.0-20.0-1.0","SS1604513240126","<img src='images/complex/3.png' width ='500' height = '500' style='border:5px solid black'>","40","all_complex","images/complex/14.png","images/complex/3.png","images/complex/8.png,images/complex/7.png,images/complex/2.png,images/complex/12.png,images/complex/6.png,images/complex/9.png,images/complex/1.png","2","null","","200","976.8400000059046","","","","background","",""
"","null","html-keyboard-response","217","728753","0.0-20.0-0.1","SS1604513240126","","null","","","","","","","","","","","","<img src=images/blank.png width =""500"" height = ""500"" style=""border:5px solid black"">","","",""
"","118.39999999210704","stimulus-presentation","218","729082","0.0-20.0-1.1","SS1604513240126","<img src='images/complex/3.png' width ='500' height = '500' style='border:5px solid black'>","40","all_complex","images/complex/14.png","images/complex/3.png","images/complex/8.png,images/complex/7.png,images/complex/2.png,images/complex/12.png,images/complex/6.png,images/complex/9.png,images/complex/1.png","2","null","","200","318.39999999210704","","","","background","",""
"","null","html-keyboard-response","219","730049","0.0-20.0-0.2","SS1604513240126","","null","","","","","","","","","","","","<img src=images/blank.png width =""500"" height = ""500"" style=""border:5px solid black"">","","",""
"","395.22500000020955","stimulus-presentation","220","730650","0.0-20.0-1.2","SS1604513240126","<img src='images/complex/9.png' width ='500' height = '500' style='border:5px solid black'>","40","all_complex","images/complex/14.png","images/complex/3.png","images/complex/8.png,images/complex/7.png,images/complex/2.png,images/complex/12.png,images/complex/6.png,images/complex/9.png,images/complex/1.png","2","null","","200","595.2250000002095","","","","deviant","",""
"","null","html-keyboard-response","221","731583","0.0-20.0-0.3","SS1604513240126","","null","","","","","","","","","","","","<img src=images/blank.png width =""500"" height = ""500"" style=""border:5px solid black"">","","",""
"","232.20499999297317","stimulus-presentation","222","732024","0.0-20.0-1.3","SS1604513240126","<img src='images/complex/3.png' width ='500' height = '500' style='border:5px solid black'>","40","all_complex","images/complex/14.png","images/complex/3.png","images/complex/8.png,images/complex/7.png,images/complex/2.png,images/complex/12.png,images/complex/6.png,images/complex/9.png,images/complex/1.png","2","null","","200","432.20499999297317","","","","background","",""
"","null","html-keyboard-response","223","732925","0.0-20.0-0.4","SS1604513240126","","null","","","","","","","","","","","","<img src=images/blank.png width =""500"" height = ""500"" style=""border:5px solid black"">","","",""
"","108.2650000025751","stimulus-presentation","224","733239","0.0-20.0-1.4","SS1604513240126","<img src='images/complex/3.png' width ='500' height = '500' style='border:5px solid black'>","40","all_complex","images/complex/14.png","images/complex/3.png","images/complex/8.png,images/complex/7.png,images/complex/2.png,images/complex/12.png,images/complex/6.png,images/complex/9.png,images/complex/1.png","2","null","","200","308.2650000025751","","","","background","",""
"","null","html-keyboard-response","225","734365","0.0-20.0-0.5","SS1604513240126","","null","","","","","","","","","","","","<img src=images/blank.png width =""500"" height = ""500"" style=""border:5px solid black"">","","",""
"","89.77999999478925","stimulus-presentation","226","734661","0.0-20.0-1.5","SS1604513240126","<img src='images/complex/3.png' width ='500' height = '500' style='border:5px solid black'>","40","all_complex","images/complex/14.png","images/complex/3.png","images/complex/8.png,images/complex/7.png,images/complex/2.png,images/complex/12.png,images/complex/6.png,images/complex/9.png,images/complex/1.png","2","null","","200","289.77999999478925","","","","background","",""
"","null","html-keyboard-response","227","735581","0.0-20.0-0.6","SS1604513240126","","null","","","","","","","","","","","","<img src=images/blank.png width =""500"" height = ""500"" style=""border:5px solid black"">","","",""
"","2112.634999997681","stimulus-presentation","228","737904","0.0-20.0-1.6","SS1604513240126","<img src='images/complex/14.png' width ='500' height = '500' style='border:5px solid black'>","40","all_complex","images/complex/14.png","images/complex/3.png","images/complex/8.png,images/complex/7.png,images/complex/2.png,images/complex/12.png,images/complex/6.png,images/complex/9.png,images/complex/1.png","2","null","","200","2312.634999997681","yes","561.7800000036368","","target","",""
"","null","html-keyboard-response","229","739102","0.0-20.0-0.7","SS1604513240126","","null","","","","","","","","","","","","<img src=images/blank.png width =""500"" height = ""500"" style=""border:5px solid black"">","","",""
"","740.9249999909662","stimulus-presentation","230","740053","0.0-20.0-1.7","SS1604513240126","<img src='images/complex/3.png' width ='500' height = '500' style='border:5px solid black'>","40","all_complex","images/complex/14.png","images/complex/3.png","images/complex/8.png,images/complex/7.png,images/complex/2.png,images/complex/12.png,images/complex/6.png,images/complex/9.png,images/complex/1.png","2","null","","200","940.9249999909662","","","","background","",""
"","null","html-keyboard-response","231","741251","0.0-20.0-0.8","SS1604513240126","","null","","","","","","","","","","","","<img src=images/blank.png width =""500"" height = ""500"" style=""border:5px solid black"">","","",""
"","491.4799999969546","stimulus-presentation","232","741950","0.0-20.0-1.8","SS1604513240126","<img src='images/complex/3.png' width ='500' height = '500' style='border:5px solid black'>","40","all_complex","images/complex/14.png","images/complex/3.png","images/complex/8.png,images/complex/7.png,images/complex/2.png,images/complex/12.png,images/complex/6.png,images/complex/9.png,images/complex/1.png","2","null","","200","691.4799999969546","","","","background","",""
"","null","html-keyboard-response","233","742976","0.0-20.0-0.9","SS1604513240126","","null","","","","","","","","","","","","<img src=images/blank.png width =""500"" height = ""500"" style=""border:5px solid black"">","","",""
"","680.4249999986496","stimulus-presentation","234","743866","0.0-20.0-1.9","SS1604513240126","<img src='images/complex/12.png' width ='500' height = '500' style='border:5px solid black'>","40","all_complex","images/complex/14.png","images/complex/3.png","images/complex/8.png,images/complex/7.png,images/complex/2.png,images/complex/12.png,images/complex/6.png,images/complex/9.png,images/complex/1.png","2","null","","200","880.4249999986496","","","","deviant","",""
"","null","html-keyboard-response","235","744976","0.0-20.0-0.10","SS1604513240126","","null","","","","","","","","","","","","<img src=images/blank.png width =""500"" height = ""500"" style=""border:5px solid black"">","","",""
"","129.48499999765772","stimulus-presentation","236","745311","0.0-20.0-1.10","SS1604513240126","<img src='images/complex/3.png' width ='500' height = '500' style='border:5px solid black'>","40","all_complex","images/complex/14.png","images/complex/3.png","images/complex/8.png,images/complex/7.png,images/complex/2.png,images/complex/12.png,images/complex/6.png,images/complex/9.png,images/complex/1.png","2","null","","200","329.4849999976577","","","","background","",""
"","null","html-keyboard-response","237","746245","0.0-20.0-0.11","SS1604513240126","","null","","","","","","","","","","","","<img src=images/blank.png width =""500"" height = ""500"" style=""border:5px solid black"">","","",""
"","110.40499999944586","stimulus-presentation","238","746564","0.0-20.0-1.11","SS1604513240126","<img src='images/complex/3.png' width ='500' height = '500' style='border:5px solid black'>","40","all_complex","images/complex/14.png","images/complex/3.png","images/complex/8.png,images/complex/7.png,images/complex/2.png,images/complex/12.png,images/complex/6.png,images/complex/9.png,images/complex/1.png","2","null","","200","310.40499999944586","","","","background","",""
"","null","html-keyboard-response","239","747441","0.0-20.0-0.12","SS1604513240126","","null","","","","","","","","","","","","<img src=images/blank.png width =""500"" height = ""500"" style=""border:5px solid black"">","","",""
"","321.07999999425374","stimulus-presentation","240","747968","0.0-20.0-1.12","SS1604513240126","<img src='images/complex/3.png' width ='500' height = '500' style='border:5px solid black'>","40","all_complex","images/complex/14.png","images/complex/3.png","images/complex/8.png,images/complex/7.png,images/complex/2.png,images/complex/12.png,images/complex/6.png,images/complex/9.png,images/complex/1.png","2","null","","200","521.0799999942537","","","","background","",""
"","null","html-keyboard-response","241","749014","0.0-20.0-0.13","SS1604513240126","","null","","","","","","","","","","","","<img src=images/blank.png width =""500"" height = ""500"" style=""border:5px solid black"">","","",""
"","1233.9050000009593","stimulus-presentation","242","750453","0.0-20.0-1.13","SS1604513240126","<img src='images/complex/14.png' width ='500' height = '500' style='border:5px solid black'>","40","all_complex","images/complex/14.png","images/complex/3.png","images/complex/8.png,images/complex/7.png,images/complex/2.png,images/complex/12.png,images/complex/6.png,images/complex/9.png,images/complex/1.png","2","null","","200","1433.9050000009593","yes","266.72499999403954","","target","",""
"","null","html-keyboard-response","243","751302","0.0-20.0-0.14","SS1604513240126","","null","","","","","","","","","","","","<img src=images/blank.png width =""500"" height = ""500"" style=""border:5px solid black"">","","",""
"","113.22499999369029","stimulus-presentation","244","751620","0.0-20.0-1.14","SS1604513240126","<img src='images/complex/3.png' width ='500' height = '500' style='border:5px solid black'>","40","all_complex","images/complex/14.png","images/complex/3.png","images/complex/8.png,images/complex/7.png,images/complex/2.png,images/complex/12.png,images/complex/6.png,images/complex/9.png,images/complex/1.png","2","null","","200","313.2249999936903","","","","background","",""
"","null","html-keyboard-response","245","752715","0.0-20.0-0.15","SS1604513240126","","null","","","","","","","","","","","","<img src=images/blank.png width =""500"" height = ""500"" style=""border:5px solid black"">","","",""
"","120.75500001083128","stimulus-presentation","246","753041","0.0-20.0-1.15","SS1604513240126","<img src='images/complex/3.png' width ='500' height = '500' style='border:5px solid black'>","40","all_complex","images/complex/14.png","images/complex/3.png","images/complex/8.png,images/complex/7.png,images/complex/2.png,images/complex/12.png,images/complex/6.png,images/complex/9.png,images/complex/1.png","2","null","","200","320.7550000108313","","","","background","",""
"","null","html-keyboard-response","247","754319","0.0-20.0-0.16","SS1604513240126","","null","","","","","","","","","","","","<img src=images/blank.png width =""500"" height = ""500"" style=""border:5px solid black"">","","",""
"","110.10000000533182","stimulus-presentation","248","754640","0.0-20.0-1.16","SS1604513240126","<img src='images/complex/3.png' width ='500' height = '500' style='border:5px solid black'>","40","all_complex","images/complex/14.png","images/complex/3.png","images/complex/8.png,images/complex/7.png,images/complex/2.png,images/complex/12.png,images/complex/6.png,images/complex/9.png,images/complex/1.png","2","null","","200","310.1000000053318","","","","background","",""
"","null","html-keyboard-response","249","755643","0.0-20.0-0.17","SS1604513240126","","null","","","","","","","","","","","","<img src=images/blank.png width =""500"" height = ""500"" style=""border:5px solid black"">","","",""
"","37.57000000041444","stimulus-presentation","250","755890","0.0-20.0-1.17","SS1604513240126","<img src='images/complex/3.png' width ='500' height = '500' style='border:5px solid black'>","40","all_complex","images/complex/14.png","images/complex/3.png","images/complex/8.png,images/complex/7.png,images/complex/2.png,images/complex/12.png,images/complex/6.png,images/complex/9.png,images/complex/1.png","2","null","","200","237.57000000041444","","","","background","",""
"","null","html-keyboard-response","251","757006","0.0-20.0-0.18","SS1604513240126","","null","","","","","","","","","","","","<img src=images/blank.png width =""500"" height = ""500"" style=""border:5px solid black"">","","",""
"","85.86999999533873","stimulus-presentation","252","757299","0.0-20.0-1.18","SS1604513240126","<img src='images/complex/14.png' width ='500' height = '500' style='border:5px solid black'>","40","all_complex","images/complex/14.png","images/complex/3.png","images/complex/8.png,images/complex/7.png,images/complex/2.png,images/complex/12.png,images/complex/6.png,images/complex/9.png,images/complex/1.png","2","null","","200","285.86999999533873","","","","target","",""
"","null","html-keyboard-response","253","758355","0.0-20.0-0.19","SS1604513240126","","null","","","","","","","","","","","","<img src=images/blank.png width =""500"" height = ""500"" style=""border:5px solid black"">","","",""
"","535.7899999944493","stimulus-presentation","254","759097","0.0-20.0-1.19","SS1604513240126","<img src='images/complex/2.png' width ='500' height = '500' style='border:5px solid black'>","40","all_complex","images/complex/14.png","images/complex/3.png","images/complex/8.png,images/complex/7.png,images/complex/2.png,images/complex/12.png,images/complex/6.png,images/complex/9.png,images/complex/1.png","2","null","","200","735.7899999944493","","","","deviant","",""
"","null","html-keyboard-response","255","759990","0.0-20.0-0.20","SS1604513240126","","null","","","","","","","","","","","","<img src=images/blank.png width =""500"" height = ""500"" style=""border:5px solid black"">","","",""
"","372.9049999965355","stimulus-presentation","256","760573","0.0-20.0-1.20","SS1604513240126","<img src='images/complex/3.png' width ='500' height = '500' style='border:5px solid black'>","40","all_complex","images/complex/14.png","images/complex/3.png","images/complex/8.png,images/complex/7.png,images/complex/2.png,images/complex/12.png,images/complex/6.png,images/complex/9.png,images/complex/1.png","2","null","","200","572.9049999965355","","","","background","",""
"","null","html-keyboard-response","257","761786","0.0-20.0-0.21","SS1604513240126","","null","","","","","","","","","","","","<img src=images/blank.png width =""500"" height = ""500"" style=""border:5px solid black"">","","",""
"","266.89499999338295","stimulus-presentation","258","762261","0.0-20.0-1.21","SS1604513240126","<img src='images/complex/3.png' width ='500' height = '500' style='border:5px solid black'>","40","all_complex","images/complex/14.png","images/complex/3.png","images/complex/8.png,images/complex/7.png,images/complex/2.png,images/complex/12.png,images/complex/6.png,images/complex/9.png,images/complex/1.png","2","null","","200","466.89499999338295","","","","background","",""
"","null","html-keyboard-response","259","763412","0.0-20.0-0.22","SS1604513240126","","null","","","","","","","","","","","","<img src=images/blank.png width =""500"" height = ""500"" style=""border:5px solid black"">","","",""
"","251.9250000041211","stimulus-presentation","260","763892","0.0-20.0-1.22","SS1604513240126","<img src='images/complex/3.png' width ='500' height = '500' style='border:5px solid black'>","40","all_complex","images/complex/14.png","images/complex/3.png","images/complex/8.png,images/complex/7.png,images/complex/2.png,images/complex/12.png,images/complex/6.png,images/complex/9.png,images/complex/1.png","2","null","","200","451.9250000041211","","","","background","",""
"","null","html-keyboard-response","261","764902","0.0-20.0-0.23","SS1604513240126","","null","","","","","","","","","","","","<img src=images/blank.png width =""500"" height = ""500"" style=""border:5px solid black"">","","",""
"","774.5649999997113","stimulus-presentation","262","765880","0.0-20.0-1.23","SS1604513240126","<img src='images/complex/8.png' width ='500' height = '500' style='border:5px solid black'>","40","all_complex","images/complex/14.png","images/complex/3.png","images/complex/8.png,images/complex/7.png,images/complex/2.png,images/complex/12.png,images/complex/6.png,images/complex/9.png,images/complex/1.png","2","null","","200","974.5649999997113","","","","deviant","",""
"","null","html-keyboard-response","263","767025","0.0-20.0-0.24","SS1604513240126","","null","","","","","","","","","","","","<img src=images/blank.png width =""500"" height = ""500"" style=""border:5px solid black"">","","",""
"","390.8700000029057","stimulus-presentation","264","767626","0.0-20.0-1.24","SS1604513240126","<img src='images/complex/3.png' width ='500' height = '500' style='border:5px solid black'>","40","all_complex","images/complex/14.png","images/complex/3.png","images/complex/8.png,images/complex/7.png,images/complex/2.png,images/complex/12.png,images/complex/6.png,images/complex/9.png,images/complex/1.png","2","null","","200","590.8700000029057","","","","background","",""
"","null","html-keyboard-response","265","768676","0.0-20.0-0.25","SS1604513240126","","null","","","","","","","","","","","","<img src=images/blank.png width =""500"" height = ""500"" style=""border:5px solid black"">","","",""
"","1222.475000002305","stimulus-presentation","266","770107","0.0-20.0-1.25","SS1604513240126","<img src='images/complex/14.png' width ='500' height = '500' style='border:5px solid black'>","40","all_complex","images/complex/14.png","images/complex/3.png","images/complex/8.png,images/complex/7.png,images/complex/2.png,images/complex/12.png,images/complex/6.png,images/complex/9.png,images/complex/1.png","2","null","","200","1422.475000002305","yes","332.02000000164844","","target","",""
"","null","html-keyboard-response","267","771047","0.0-20.0-0.26","SS1604513240126","","null","","","","","","","","","","","","<img src=images/blank.png width =""500"" height = ""500"" style=""border:5px solid black"">","","",""
"","344.92499999760184","stimulus-presentation","268","771603","0.0-20.0-1.26","SS1604513240126","<img src='images/complex/7.png' width ='500' height = '500' style='border:5px solid black'>","40","all_complex","images/complex/14.png","images/complex/3.png","images/complex/8.png,images/complex/7.png,images/complex/2.png,images/complex/12.png,images/complex/6.png,images/complex/9.png,images/complex/1.png","2","null","","200","544.9249999976018","","","","deviant","",""
"","null","html-keyboard-response","269","772481","0.0-20.0-0.27","SS1604513240126","","null","","","","","","","","","","","","<img src=images/blank.png width =""500"" height = ""500"" style=""border:5px solid black"">","","",""
"","328.2700000127079","stimulus-presentation","270","773017","0.0-20.0-1.27","SS1604513240126","<img src='images/complex/3.png' width ='500' height = '500' style='border:5px solid black'>","40","all_complex","images/complex/14.png","images/complex/3.png","images/complex/8.png,images/complex/7.png,images/complex/2.png,images/complex/12.png,images/complex/6.png,images/complex/9.png,images/complex/1.png","2","null","","200","528.2700000127079","","","","background","",""
"","null","html-keyboard-response","271","774099","0.0-20.0-0.28","SS1604513240126","","null","","","","","","","","","","","","<img src=images/blank.png width =""500"" height = ""500"" style=""border:5px solid black"">","","",""
"","217.52500000002328","stimulus-presentation","272","774526","0.0-20.0-1.28","SS1604513240126","<img src='images/complex/3.png' width ='500' height = '500' style='border:5px solid black'>","40","all_complex","images/complex/14.png","images/complex/3.png","images/complex/8.png,images/complex/7.png,images/complex/2.png,images/complex/12.png,images/complex/6.png,images/complex/9.png,images/complex/1.png","2","null","","200","417.5250000000233","","","","background","",""
"","null","html-keyboard-response","273","775436","0.0-20.0-0.29","SS1604513240126","","null","","","","","","","","","","","","<img src=images/blank.png width =""500"" height = ""500"" style=""border:5px solid black"">","","",""
"","132.98499998927582","stimulus-presentation","274","775779","0.0-20.0-1.29","SS1604513240126","<img src='images/complex/3.png' width ='500' height = '500' style='border:5px solid black'>","40","all_complex","images/complex/14.png","images/complex/3.png","images/complex/8.png,images/complex/7.png,images/complex/2.png,images/complex/12.png,images/complex/6.png,images/complex/9.png,images/complex/1.png","2","null","","200","332.9849999892758","","","","background","",""
"","null","html-keyboard-response","275","777009","0.0-20.0-0.30","SS1604513240126","","null","","","","","","","","","","","","<img src=images/blank.png width =""500"" height = ""500"" style=""border:5px solid black"">","","",""
"","329.9799999949755","stimulus-presentation","276","777550","0.0-20.0-1.30","SS1604513240126","<img src='images/complex/3.png' width ='500' height = '500' style='border:5px solid black'>","40","all_complex","images/complex/14.png","images/complex/3.png","images/complex/8.png,images/complex/7.png,images/complex/2.png,images/complex/12.png,images/complex/6.png,images/complex/9.png,images/complex/1.png","2","null","","200","529.9799999949755","","","","background","",""
"","null","html-keyboard-response","277","778550","0.0-20.0-0.31","SS1604513240126","","null","","","","","","","","","","","","<img src=images/blank.png width =""500"" height = ""500"" style=""border:5px solid black"">","","",""
"","959.4050000014249","stimulus-presentation","278","779720","0.0-20.0-1.31","SS1604513240126","<img src='images/complex/6.png' width ='500' height = '500' style='border:5px solid black'>","40","all_complex","images/complex/14.png","images/complex/3.png","images/complex/8.png,images/complex/7.png,images/complex/2.png,images/complex/12.png,images/complex/6.png,images/complex/9.png,images/complex/1.png","2","null","","200","1159.405000001425","yes","380.0699999992503","","deviant","",""
"","null","html-keyboard-response","279","780867","0.0-20.0-0.32","SS1604513240126","","null","","","","","","","","","","","","<img src=images/blank.png width =""500"" height = ""500"" style=""border:5px solid black"">","","",""
"","266.2549999949988","stimulus-presentation","280","781340","0.0-20.0-1.32","SS1604513240126","<img src='images/complex/3.png' width ='500' height = '500' style='border:5px solid black'>","40","all_complex","images/complex/14.png","images/complex/3.png","images/complex/8.png,images/complex/7.png,images/complex/2.png,images/complex/12.png,images/complex/6.png,images/complex/9.png,images/complex/1.png","2","null","","200","466.2549999949988","","","","background","",""
"","null","html-keyboard-response","281","782276","0.0-20.0-0.33","SS1604513240126","","null","","","","","","","","","","","","<img src=images/blank.png width =""500"" height = ""500"" style=""border:5px solid black"">","","",""
