"view_history","rt","trial_type","trial_index","time_elapsed","internal_node_id","subject","trial_stimulus","key_press","task_type","task_target_stimulus","task_background_stimulus","task_deviant_stimuli","task_order_number","block_order_number","trial_order_number","minimum_viewing_duration","trial_looking_time","trial_pressed_space_bar","trial_space_bar_rt","stimulus","trial_stimulus_type","responses","question_order"
"[{""page_index"":0,""viewing_time"":8807.980000041425}]","8808.735000086017","instructions","0","8851","0.0-0.0","SS1604610949174","","","","","","","","","","","","","","","","",""
"[{""page_index"":0,""viewing_time"":4272.869999986142},{""page_index"":1,""viewing_time"":2311.5100000286475},{""page_index"":2,""viewing_time"":1984.0649999678135},{""page_index"":3,""viewing_time"":3503.759999992326},{""page_index"":4,""viewing_time"":1503.8149999454618},{""page_index"":5,""viewing_time"":1543.500000028871},{""page_index"":6,""viewing_time"":1456.0950000304729},{""page_index"":7,""viewing_time"":1647.6849999744445},{""page_index"":8,""viewing_time"":1439.4249999895692}]","19663.14999992028","instructions","1","28519","0.0-1.0","SS1604610949174","","","","","","","","","","","","","","","","",""
"[{""page_index"":0,""viewing_time"":1748.3500000089407},{""page_index"":1,""viewing_time"":3440.0100000202656},{""page_index"":2,""viewing_time"":1327.5249999715015}]","6516.219999990426","instructions","2","35038","0.0-2.0","SS1604610949174","","","","","","","","","","","","","","","","",""
"","23685.219999984838","practice-block","3","58928","0.0-3.0","SS1604610949174","<img src='images/practice/practice_background.jpeg' width ='500' height = '500' style='border:5px solid black'>","40","null","images/practice/practice_target.jpg","null","null","null","null","","200","23885.219999984838","yes","1285.619999980554","","","",""
"","null","html-keyboard-response","4","59812","0.0-4.0","SS1604610949174","","null","","","","","","","","","","","","<img src=images/blank.png width =""500"" height = ""500"" style=""border:5px solid black"">","","",""
"","621.1899999761954","practice-block","5","60640","0.0-5.0","SS1604610949174","<img src='images/practice/practice_background.jpeg' width ='500' height = '500' style='border:5px solid black'>","40","null","images/practice/practice_target.jpg","null","null","null","null","","200","821.1899999761954","","","","","",""
"","null","html-keyboard-response","6","61500","0.0-6.0","SS1604610949174","","null","","","","","","","","","","","","<img src=images/blank.png width =""500"" height = ""500"" style=""border:5px solid black"">","","",""
"","509.4950000056997","practice-block","7","62224","0.0-7.0","SS1604610949174","<img src='images/practice/practice_deviant.jpeg' width ='500' height = '500' style='border:5px solid black'>","40","null","images/practice/practice_target.jpg","null","null","null","null","","200","709.4950000056997","","","","","",""
"","null","html-keyboard-response","8","63424","0.0-8.0","SS1604610949174","","null","","","","","","","","","","","","<img src=images/blank.png width =""500"" height = ""500"" style=""border:5px solid black"">","","",""
"","288.12000004108995","practice-block","9","65176","0.0-9.0-0.0","SS1604610949174","<img src='images/practice/practice_target.jpg' width ='500' height = '500' style='border:5px solid black'>","40","null","images/practice/practice_target.jpg","null","null","null","null","","200","488.12000004108995","","","","","",""
"","17193.334999959916","practice-block","10","82576","0.0-9.1-0.1","SS1604610949174","<img src='images/practice/practice_target.jpg' width ='500' height = '500' style='border:5px solid black'>","40","null","images/practice/practice_target.jpg","null","null","null","null","","200","17393.334999959916","yes","2744.6449999697506","","","",""
"","null","html-keyboard-response","11","83873","0.0-10.0","SS1604610949174","","null","","","","","","","","","","","","<img src=images/blank.png width =""500"" height = ""500"" style=""border:5px solid black"">","","",""
"","633.5299999918789","practice-block","12","84721","0.0-11.0","SS1604610949174","<img src='images/practice/practice_background.jpeg' width ='500' height = '500' style='border:5px solid black'>","40","null","images/practice/practice_target.jpg","null","null","null","null","","200","833.5299999918789","","","","","",""
"[{""page_index"":0,""viewing_time"":1969}]","1970","task-instructions","13","86695","0.0-12.0","SS1604610949174","","","","","","","","","","","","","","","","",""
"[{""page_index"":0,""viewing_time"":3227.100000018254},{""page_index"":1,""viewing_time"":6638.875000062399},{""page_index"":2,""viewing_time"":5375.104999984615}]","15241.475000046194","instructions","14","101940","0.0-13.0","SS1604610949174","","","","","","","","","","","","","","","","",""
"","null","html-keyboard-response","15","102867","0.0-14.0-0.0","SS1604610949174","","null","","","","","","","","","","","","<img src=images/blank.png width =""500"" height = ""500"" style=""border:5px solid black"">","","",""
"","6322.61999999173","stimulus-presentation","16","109402","0.0-14.0-1.0","SS1604610949174","<img src='images/complex/18.png' width ='500' height = '500' style='border:5px solid black'>","40","all_complex","images/complex/2.png","images/complex/8.png","images/complex/14.png,images/complex/3.png,images/complex/16.png,images/complex/4.png,images/complex/12.png,images/complex/5.png,images/complex/18.png","0","null","","200","6522.61999999173","","","","deviant","",""
"","null","html-keyboard-response","17","110230","0.0-14.0-0.1","SS1604610949174","","null","","","","","","","","","","","","<img src=images/blank.png width =""500"" height = ""500"" style=""border:5px solid black"">","","",""
"","543.500000028871","stimulus-presentation","18","110984","0.0-14.0-1.1","SS1604610949174","<img src='images/complex/8.png' width ='500' height = '500' style='border:5px solid black'>","40","all_complex","images/complex/2.png","images/complex/8.png","images/complex/14.png,images/complex/3.png,images/complex/16.png,images/complex/4.png,images/complex/12.png,images/complex/5.png,images/complex/18.png","0","null","","200","743.500000028871","","","","background","",""
"","null","html-keyboard-response","19","112129","0.0-14.0-0.2","SS1604610949174","","null","","","","","","","","","","","","<img src=images/blank.png width =""500"" height = ""500"" style=""border:5px solid black"">","","",""
"","502.7899999404326","stimulus-presentation","20","112848","0.0-14.0-1.2","SS1604610949174","<img src='images/complex/2.png' width ='500' height = '500' style='border:5px solid black'>","40","all_complex","images/complex/2.png","images/complex/8.png","images/complex/14.png,images/complex/3.png,images/complex/16.png,images/complex/4.png,images/complex/12.png,images/complex/5.png,images/complex/18.png","0","null","","200","702.7899999404326","","","","target","",""
"","null","html-keyboard-response","21","113979","0.0-14.0-0.3","SS1604610949174","","null","","","","","","","","","","","","<img src=images/blank.png width =""500"" height = ""500"" style=""border:5px solid black"">","","",""
"","390.1799999875948","stimulus-presentation","22","114575","0.0-14.0-1.3","SS1604610949174","<img src='images/complex/8.png' width ='500' height = '500' style='border:5px solid black'>","40","all_complex","images/complex/2.png","images/complex/8.png","images/complex/14.png,images/complex/3.png,images/complex/16.png,images/complex/4.png,images/complex/12.png,images/complex/5.png,images/complex/18.png","0","null","","200","590.1799999875948","","","","background","",""
"","null","html-keyboard-response","23","115432","0.0-14.0-0.4","SS1604610949174","","null","","","","","","","","","","","","<img src=images/blank.png width =""500"" height = ""500"" style=""border:5px solid black"">","","",""
"","425.8350000018254","stimulus-presentation","24","116065","0.0-14.0-1.4","SS1604610949174","<img src='images/complex/8.png' width ='500' height = '500' style='border:5px solid black'>","40","all_complex","images/complex/2.png","images/complex/8.png","images/complex/14.png,images/complex/3.png,images/complex/16.png,images/complex/4.png,images/complex/12.png,images/complex/5.png,images/complex/18.png","0","null","","200","625.8350000018254","","","","background","",""
"","null","html-keyboard-response","25","116877","0.0-14.0-0.5","SS1604610949174","","null","","","","","","","","","","","","<img src=images/blank.png width =""500"" height = ""500"" style=""border:5px solid black"">","","",""
"","499.39999997150153","stimulus-presentation","26","117584","0.0-14.0-1.5","SS1604610949174","<img src='images/complex/4.png' width ='500' height = '500' style='border:5px solid black'>","40","all_complex","images/complex/2.png","images/complex/8.png","images/complex/14.png,images/complex/3.png,images/complex/16.png,images/complex/4.png,images/complex/12.png,images/complex/5.png,images/complex/18.png","0","null","","200","699.3999999715015","","","","deviant","",""
"","null","html-keyboard-response","27","118420","0.0-14.0-0.6","SS1604610949174","","null","","","","","","","","","","","","<img src=images/blank.png width =""500"" height = ""500"" style=""border:5px solid black"">","","",""
"","902.669999981299","stimulus-presentation","28","119537","0.0-14.0-1.6","SS1604610949174","<img src='images/complex/8.png' width ='500' height = '500' style='border:5px solid black'>","40","all_complex","images/complex/2.png","images/complex/8.png","images/complex/14.png,images/complex/3.png,images/complex/16.png,images/complex/4.png,images/complex/12.png,images/complex/5.png,images/complex/18.png","0","null","","200","1102.669999981299","","","","background","",""
"","null","html-keyboard-response","29","120815","0.0-14.0-0.7","SS1604610949174","","null","","","","","","","","","","","","<img src=images/blank.png width =""500"" height = ""500"" style=""border:5px solid black"">","","",""
"","84933.10000002384","stimulus-presentation","30","205955","0.0-14.0-1.7","SS1604610949174","<img src='images/complex/8.png' width ='500' height = '500' style='border:5px solid black'>","40","all_complex","images/complex/2.png","images/complex/8.png","images/complex/14.png,images/complex/3.png,images/complex/16.png,images/complex/4.png,images/complex/12.png,images/complex/5.png,images/complex/18.png","0","null","","200","85133.10000002384","","","","background","",""
"","null","html-keyboard-response","31","206993","0.0-14.0-0.8","SS1604610949174","","null","","","","","","","","","","","","<img src=images/blank.png width =""500"" height = ""500"" style=""border:5px solid black"">","","",""
"","280.94500000588596","stimulus-presentation","32","207480","0.0-14.0-1.8","SS1604610949174","<img src='images/complex/8.png' width ='500' height = '500' style='border:5px solid black'>","40","all_complex","images/complex/2.png","images/complex/8.png","images/complex/14.png,images/complex/3.png,images/complex/16.png,images/complex/4.png,images/complex/12.png,images/complex/5.png,images/complex/18.png","0","null","","200","480.94500000588596","","","","background","",""
"","null","html-keyboard-response","33","208530","0.0-14.0-0.9","SS1604610949174","","null","","","","","","","","","","","","<img src=images/blank.png width =""500"" height = ""500"" style=""border:5px solid black"">","","",""
"","206.56500000040978","stimulus-presentation","34","208944","0.0-14.0-1.9","SS1604610949174","<img src='images/complex/2.png' width ='500' height = '500' style='border:5px solid black'>","40","all_complex","images/complex/2.png","images/complex/8.png","images/complex/14.png,images/complex/3.png,images/complex/16.png,images/complex/4.png,images/complex/12.png,images/complex/5.png,images/complex/18.png","0","null","","200","406.5650000004098","","","","target","",""
"","null","html-keyboard-response","35","210092","0.0-14.0-0.10","SS1604610949174","","null","","","","","","","","","","","","<img src=images/blank.png width =""500"" height = ""500"" style=""border:5px solid black"">","","",""
"","49668.390000006184","stimulus-presentation","36","260241","0.0-14.0-1.10","SS1604610949174","<img src='images/complex/8.png' width ='500' height = '500' style='border:5px solid black'>","40","all_complex","images/complex/2.png","images/complex/8.png","images/complex/14.png,images/complex/3.png,images/complex/16.png,images/complex/4.png,images/complex/12.png,images/complex/5.png,images/complex/18.png","0","null","","200","49868.390000006184","","","","background","",""
"","null","html-keyboard-response","37","261269","0.0-14.0-0.11","SS1604610949174","","null","","","","","","","","","","","","<img src=images/blank.png width =""500"" height = ""500"" style=""border:5px solid black"">","","",""
"","295.95500009600073","stimulus-presentation","38","261777","0.0-14.0-1.11","SS1604610949174","<img src='images/complex/14.png' width ='500' height = '500' style='border:5px solid black'>","40","all_complex","images/complex/2.png","images/complex/8.png","images/complex/14.png,images/complex/3.png,images/complex/16.png,images/complex/4.png,images/complex/12.png,images/complex/5.png,images/complex/18.png","0","null","","200","495.95500009600073","","","","deviant","",""
"","null","html-keyboard-response","39","262725","0.0-14.0-0.12","SS1604610949174","","null","","","","","","","","","","","","<img src=images/blank.png width =""500"" height = ""500"" style=""border:5px solid black"">","","",""
"","389.06499999575317","stimulus-presentation","40","263320","0.0-14.0-1.12","SS1604610949174","<img src='images/complex/8.png' width ='500' height = '500' style='border:5px solid black'>","40","all_complex","images/complex/2.png","images/complex/8.png","images/complex/14.png,images/complex/3.png,images/complex/16.png,images/complex/4.png,images/complex/12.png,images/complex/5.png,images/complex/18.png","0","null","","200","589.0649999957532","","","","background","",""
"","null","html-keyboard-response","41","264574","0.0-14.0-0.13","SS1604610949174","","null","","","","","","","","","","","","<img src=images/blank.png width =""500"" height = ""500"" style=""border:5px solid black"">","","",""
"","805.2600000519305","stimulus-presentation","42","265584","0.0-14.0-1.13","SS1604610949174","<img src='images/complex/8.png' width ='500' height = '500' style='border:5px solid black'>","40","all_complex","images/complex/2.png","images/complex/8.png","images/complex/14.png,images/complex/3.png,images/complex/16.png,images/complex/4.png,images/complex/12.png,images/complex/5.png,images/complex/18.png","0","null","","200","1005.2600000519305","","","","background","",""
"","null","html-keyboard-response","43","266639","0.0-14.0-0.14","SS1604610949174","","null","","","","","","","","","","","","<img src=images/blank.png width =""500"" height = ""500"" style=""border:5px solid black"">","","",""
"","162.40000003017485","stimulus-presentation","44","267009","0.0-14.0-1.14","SS1604610949174","<img src='images/complex/8.png' width ='500' height = '500' style='border:5px solid black'>","40","all_complex","images/complex/2.png","images/complex/8.png","images/complex/14.png,images/complex/3.png,images/complex/16.png,images/complex/4.png,images/complex/12.png,images/complex/5.png,images/complex/18.png","0","null","","200","362.40000003017485","","","","background","",""
"","null","html-keyboard-response","45","268095","0.0-14.0-0.15","SS1604610949174","","null","","","","","","","","","","","","<img src=images/blank.png width =""500"" height = ""500"" style=""border:5px solid black"">","","",""
"","128.5599999828264","stimulus-presentation","46","268433","0.0-14.0-1.15","SS1604610949174","<img src='images/complex/8.png' width ='500' height = '500' style='border:5px solid black'>","40","all_complex","images/complex/2.png","images/complex/8.png","images/complex/14.png,images/complex/3.png,images/complex/16.png,images/complex/4.png,images/complex/12.png,images/complex/5.png,images/complex/18.png","0","null","","200","328.5599999828264","","","","background","",""
"","null","html-keyboard-response","47","269601","0.0-14.0-0.16","SS1604610949174","","null","","","","","","","","","","","","<img src=images/blank.png width =""500"" height = ""500"" style=""border:5px solid black"">","","",""
"","119.68500004149973","stimulus-presentation","48","269929","0.0-14.0-1.16","SS1604610949174","<img src='images/complex/8.png' width ='500' height = '500' style='border:5px solid black'>","40","all_complex","images/complex/2.png","images/complex/8.png","images/complex/14.png,images/complex/3.png,images/complex/16.png,images/complex/4.png,images/complex/12.png,images/complex/5.png,images/complex/18.png","0","null","","200","319.68500004149973","","","","background","",""
"","null","html-keyboard-response","49","271026","0.0-14.0-0.17","SS1604610949174","","null","","","","","","","","","","","","<img src=images/blank.png width =""500"" height = ""500"" style=""border:5px solid black"">","","",""
"","981.1749999644235","stimulus-presentation","50","272217","0.0-14.0-1.17","SS1604610949174","<img src='images/complex/8.png' width ='500' height = '500' style='border:5px solid black'>","40","all_complex","images/complex/2.png","images/complex/8.png","images/complex/14.png,images/complex/3.png,images/complex/16.png,images/complex/4.png,images/complex/12.png,images/complex/5.png,images/complex/18.png","0","null","","200","1181.1749999644235","","","","background","",""
"","null","html-keyboard-response","51","273399","0.0-14.0-0.18","SS1604610949174","","null","","","","","","","","","","","","<img src=images/blank.png width =""500"" height = ""500"" style=""border:5px solid black"">","","",""
"","449.69500007573515","stimulus-presentation","52","274056","0.0-14.0-1.18","SS1604610949174","<img src='images/complex/2.png' width ='500' height = '500' style='border:5px solid black'>","40","all_complex","images/complex/2.png","images/complex/8.png","images/complex/14.png,images/complex/3.png,images/complex/16.png,images/complex/4.png,images/complex/12.png,images/complex/5.png,images/complex/18.png","0","null","","200","649.6950000757352","","","","target","",""
"","null","html-keyboard-response","53","275017","0.0-14.0-0.19","SS1604610949174","","null","","","","","","","","","","","","<img src=images/blank.png width =""500"" height = ""500"" style=""border:5px solid black"">","","",""
"","217.31500001624227","stimulus-presentation","54","275441","0.0-14.0-1.19","SS1604610949174","<img src='images/complex/8.png' width ='500' height = '500' style='border:5px solid black'>","40","all_complex","images/complex/2.png","images/complex/8.png","images/complex/14.png,images/complex/3.png,images/complex/16.png,images/complex/4.png,images/complex/12.png,images/complex/5.png,images/complex/18.png","0","null","","200","417.31500001624227","","","","background","",""
"","null","html-keyboard-response","55","276351","0.0-14.0-0.20","SS1604610949174","","null","","","","","","","","","","","","<img src=images/blank.png width =""500"" height = ""500"" style=""border:5px solid black"">","","",""
"","233.13999990932643","stimulus-presentation","56","276800","0.0-14.0-1.20","SS1604610949174","<img src='images/complex/8.png' width ='500' height = '500' style='border:5px solid black'>","40","all_complex","images/complex/2.png","images/complex/8.png","images/complex/14.png,images/complex/3.png,images/complex/16.png,images/complex/4.png,images/complex/12.png,images/complex/5.png,images/complex/18.png","0","null","","200","433.13999990932643","","","","background","",""
"","null","html-keyboard-response","57","277734","0.0-14.0-0.21","SS1604610949174","","null","","","","","","","","","","","","<img src=images/blank.png width =""500"" height = ""500"" style=""border:5px solid black"">","","",""
"","1.930000027641654","stimulus-presentation","58","277952","0.0-14.0-1.21","SS1604610949174","<img src='images/complex/8.png' width ='500' height = '500' style='border:5px solid black'>","40","all_complex","images/complex/2.png","images/complex/8.png","images/complex/14.png,images/complex/3.png,images/complex/16.png,images/complex/4.png,images/complex/12.png,images/complex/5.png,images/complex/18.png","0","null","","200","201.93000002764165","","","","background","",""
"","null","html-keyboard-response","59","279096","0.0-14.0-0.22","SS1604610949174","","null","","","","","","","","","","","","<img src=images/blank.png width =""500"" height = ""500"" style=""border:5px solid black"">","","",""
"","177.50500002875924","stimulus-presentation","60","279479","0.0-14.0-1.22","SS1604610949174","<img src='images/complex/8.png' width ='500' height = '500' style='border:5px solid black'>","40","all_complex","images/complex/2.png","images/complex/8.png","images/complex/14.png,images/complex/3.png,images/complex/16.png,images/complex/4.png,images/complex/12.png,images/complex/5.png,images/complex/18.png","0","null","","200","377.50500002875924","","","","background","",""
"","null","html-keyboard-response","61","280299","0.0-14.0-0.23","SS1604610949174","","null","","","","","","","","","","","","<img src=images/blank.png width =""500"" height = ""500"" style=""border:5px solid black"">","","",""
"","178.82000003010035","stimulus-presentation","62","280687","0.0-14.0-1.23","SS1604610949174","<img src='images/complex/8.png' width ='500' height = '500' style='border:5px solid black'>","40","all_complex","images/complex/2.png","images/complex/8.png","images/complex/14.png,images/complex/3.png,images/complex/16.png,images/complex/4.png,images/complex/12.png,images/complex/5.png,images/complex/18.png","0","null","","200","378.82000003010035","","","","background","",""
"","null","html-keyboard-response","63","281869","0.0-14.0-0.24","SS1604610949174","","null","","","","","","","","","","","","<img src=images/blank.png width =""500"" height = ""500"" style=""border:5px solid black"">","","",""
"","97.34500001650304","stimulus-presentation","64","282183","0.0-14.0-1.24","SS1604610949174","<img src='images/complex/16.png' width ='500' height = '500' style='border:5px solid black'>","40","all_complex","images/complex/2.png","images/complex/8.png","images/complex/14.png,images/complex/3.png,images/complex/16.png,images/complex/4.png,images/complex/12.png,images/complex/5.png,images/complex/18.png","0","null","","200","297.34500001650304","","","","deviant","",""
"","null","html-keyboard-response","65","283276","0.0-14.0-0.25","SS1604610949174","","null","","","","","","","","","","","","<img src=images/blank.png width =""500"" height = ""500"" style=""border:5px solid black"">","","",""
"","107.11500002071261","stimulus-presentation","66","283592","0.0-14.0-1.25","SS1604610949174","<img src='images/complex/2.png' width ='500' height = '500' style='border:5px solid black'>","40","all_complex","images/complex/2.png","images/complex/8.png","images/complex/14.png,images/complex/3.png,images/complex/16.png,images/complex/4.png,images/complex/12.png,images/complex/5.png,images/complex/18.png","0","null","","200","307.1150000207126","","","","target","",""
"","null","html-keyboard-response","67","284631","0.0-14.0-0.26","SS1604610949174","","null","","","","","","","","","","","","<img src=images/blank.png width =""500"" height = ""500"" style=""border:5px solid black"">","","",""
"","124.04000002425164","stimulus-presentation","68","284960","0.0-14.0-1.26","SS1604610949174","<img src='images/complex/2.png' width ='500' height = '500' style='border:5px solid black'>","40","all_complex","images/complex/2.png","images/complex/8.png","images/complex/14.png,images/complex/3.png,images/complex/16.png,images/complex/4.png,images/complex/12.png,images/complex/5.png,images/complex/18.png","0","null","","200","324.04000002425164","","","","target","",""
"","null","html-keyboard-response","69","285853","0.0-14.0-0.27","SS1604610949174","","null","","","","","","","","","","","","<img src=images/blank.png width =""500"" height = ""500"" style=""border:5px solid black"">","","",""
"","59.680000063963234","stimulus-presentation","70","286119","0.0-14.0-1.27","SS1604610949174","<img src='images/complex/8.png' width ='500' height = '500' style='border:5px solid black'>","40","all_complex","images/complex/2.png","images/complex/8.png","images/complex/14.png,images/complex/3.png,images/complex/16.png,images/complex/4.png,images/complex/12.png,images/complex/5.png,images/complex/18.png","0","null","","200","259.68000006396323","","","","background","",""
"","null","html-keyboard-response","71","286964","0.0-14.0-0.28","SS1604610949174","","null","","","","","","","","","","","","<img src=images/blank.png width =""500"" height = ""500"" style=""border:5px solid black"">","","",""
"","286.1999999731779","stimulus-presentation","72","287455","0.0-14.0-1.28","SS1604610949174","<img src='images/complex/2.png' width ='500' height = '500' style='border:5px solid black'>","40","all_complex","images/complex/2.png","images/complex/8.png","images/complex/14.png,images/complex/3.png,images/complex/16.png,images/complex/4.png,images/complex/12.png,images/complex/5.png,images/complex/18.png","0","null","","200","486.1999999731779","yes","94.3850000621751","","target","",""
"","null","html-keyboard-response","73","288546","0.0-14.0-0.29","SS1604610949174","","null","","","","","","","","","","","","<img src=images/blank.png width =""500"" height = ""500"" style=""border:5px solid black"">","","",""
"","37.49499993864447","stimulus-presentation","74","288791","0.0-14.0-1.29","SS1604610949174","<img src='images/complex/8.png' width ='500' height = '500' style='border:5px solid black'>","40","all_complex","images/complex/2.png","images/complex/8.png","images/complex/14.png,images/complex/3.png,images/complex/16.png,images/complex/4.png,images/complex/12.png,images/complex/5.png,images/complex/18.png","0","null","","200","237.49499993864447","","","","background","",""
"","null","html-keyboard-response","75","289751","0.0-14.0-0.30","SS1604610949174","","null","","","","","","","","","","","","<img src=images/blank.png width =""500"" height = ""500"" style=""border:5px solid black"">","","",""
"","317.8400000324473","stimulus-presentation","76","290287","0.0-14.0-1.30","SS1604610949174","<img src='images/complex/5.png' width ='500' height = '500' style='border:5px solid black'>","40","all_complex","images/complex/2.png","images/complex/8.png","images/complex/14.png,images/complex/3.png,images/complex/16.png,images/complex/4.png,images/complex/12.png,images/complex/5.png,images/complex/18.png","0","null","","200","517.8400000324473","yes","117.84500000067055","","deviant","",""
"","null","html-keyboard-response","77","291206","0.0-14.0-0.31","SS1604610949174","","null","","","","","","","","","","","","<img src=images/blank.png width =""500"" height = ""500"" style=""border:5px solid black"">","","",""
"","68.92999995034188","stimulus-presentation","78","291480","0.0-14.0-1.31","SS1604610949174","<img src='images/complex/8.png' width ='500' height = '500' style='border:5px solid black'>","40","all_complex","images/complex/2.png","images/complex/8.png","images/complex/14.png,images/complex/3.png,images/complex/16.png,images/complex/4.png,images/complex/12.png,images/complex/5.png,images/complex/18.png","0","null","","200","268.9299999503419","","","","background","",""
"","null","html-keyboard-response","79","292775","0.0-14.0-0.32","SS1604610949174","","null","","","","","","","","","","","","<img src=images/blank.png width =""500"" height = ""500"" style=""border:5px solid black"">","","",""
"","240.80499995034188","stimulus-presentation","80","293223","0.0-14.0-1.32","SS1604610949174","<img src='images/complex/8.png' width ='500' height = '500' style='border:5px solid black'>","40","all_complex","images/complex/2.png","images/complex/8.png","images/complex/14.png,images/complex/3.png,images/complex/16.png,images/complex/4.png,images/complex/12.png,images/complex/5.png,images/complex/18.png","0","null","","200","440.8049999503419","yes","64.63999999687076","","background","",""
"","null","html-keyboard-response","81","294259","0.0-14.0-0.33","SS1604610949174","","null","","","","","","","","","","","","<img src=images/blank.png width =""500"" height = ""500"" style=""border:5px solid black"">","","",""
"","194.37000004108995","stimulus-presentation","82","294664","0.0-14.0-1.33","SS1604610949174","<img src='images/complex/8.png' width ='500' height = '500' style='border:5px solid black'>","40","all_complex","images/complex/2.png","images/complex/8.png","images/complex/14.png,images/complex/3.png,images/complex/16.png,images/complex/4.png,images/complex/12.png,images/complex/5.png,images/complex/18.png","0","null","","200","394.37000004108995","","","","background","",""
"","null","html-keyboard-response","83","295883","0.0-14.0-0.34","SS1604610949174","","null","","","","","","","","","","","","<img src=images/blank.png width =""500"" height = ""500"" style=""border:5px solid black"">","","",""
"","448.97499994840473","stimulus-presentation","84","296545","0.0-14.0-1.34","SS1604610949174","<img src='images/complex/8.png' width ='500' height = '500' style='border:5px solid black'>","40","all_complex","images/complex/2.png","images/complex/8.png","images/complex/14.png,images/complex/3.png,images/complex/16.png,images/complex/4.png,images/complex/12.png,images/complex/5.png,images/complex/18.png","0","null","","200","648.9749999484047","","","","background","",""
"","null","html-keyboard-response","85","297475","0.0-14.0-0.35","SS1604610949174","","null","","","","","","","","","","","","<img src=images/blank.png width =""500"" height = ""500"" style=""border:5px solid black"">","","",""
"","427.93499992694706","stimulus-presentation","86","298111","0.0-14.0-1.35","SS1604610949174","<img src='images/complex/8.png' width ='500' height = '500' style='border:5px solid black'>","40","all_complex","images/complex/2.png","images/complex/8.png","images/complex/14.png,images/complex/3.png,images/complex/16.png,images/complex/4.png,images/complex/12.png,images/complex/5.png,images/complex/18.png","0","null","","200","627.9349999269471","","","","background","",""
"","null","html-keyboard-response","87","299094","0.0-14.0-0.36","SS1604610949174","","null","","","","","","","","","","","","<img src=images/blank.png width =""500"" height = ""500"" style=""border:5px solid black"">","","",""
"","531.3949999399483","stimulus-presentation","88","299832","0.0-14.0-1.36","SS1604610949174","<img src='images/complex/8.png' width ='500' height = '500' style='border:5px solid black'>","40","all_complex","images/complex/2.png","images/complex/8.png","images/complex/14.png,images/complex/3.png,images/complex/16.png,images/complex/4.png,images/complex/12.png,images/complex/5.png,images/complex/18.png","0","null","","200","731.3949999399483","yes","99.50499993283302","","background","",""
"","null","html-keyboard-response","89","301098","0.0-14.0-0.37","SS1604610949174","","null","","","","","","","","","","","","<img src=images/blank.png width =""500"" height = ""500"" style=""border:5px solid black"">","","",""
"","433.2949999952689","stimulus-presentation","90","301745","0.0-14.0-1.37","SS1604610949174","<img src='images/complex/8.png' width ='500' height = '500' style='border:5px solid black'>","40","all_complex","images/complex/2.png","images/complex/8.png","images/complex/14.png,images/complex/3.png,images/complex/16.png,images/complex/4.png,images/complex/12.png,images/complex/5.png,images/complex/18.png","0","null","","200","633.2949999952689","","","","background","",""
"","null","html-keyboard-response","91","302984","0.0-14.0-0.38","SS1604610949174","","null","","","","","","","","","","","","<img src=images/blank.png width =""500"" height = ""500"" style=""border:5px solid black"">","","",""
"","21.689999965019524","stimulus-presentation","92","303216","0.0-14.0-1.38","SS1604610949174","<img src='images/complex/8.png' width ='500' height = '500' style='border:5px solid black'>","40","all_complex","images/complex/2.png","images/complex/8.png","images/complex/14.png,images/complex/3.png,images/complex/16.png,images/complex/4.png,images/complex/12.png,images/complex/5.png,images/complex/18.png","0","null","","200","221.68999996501952","","","","background","",""
"","null","html-keyboard-response","93","304300","0.0-14.0-0.39","SS1604610949174","","null","","","","","","","","","","","","<img src=images/blank.png width =""500"" height = ""500"" style=""border:5px solid black"">","","",""
"","195.49000007100403","stimulus-presentation","94","304704","0.0-14.0-1.39","SS1604610949174","<img src='images/complex/3.png' width ='500' height = '500' style='border:5px solid black'>","40","all_complex","images/complex/2.png","images/complex/8.png","images/complex/14.png,images/complex/3.png,images/complex/16.png,images/complex/4.png,images/complex/12.png,images/complex/5.png,images/complex/18.png","0","null","","200","395.49000007100403","yes","11.840000050142407","","deviant","",""
"","null","html-keyboard-response","95","305639","0.0-14.0-0.40","SS1604610949174","","null","","","","","","","","","","","","<img src=images/blank.png width =""500"" height = ""500"" style=""border:5px solid black"">","","",""
"","138.93500005360693","stimulus-presentation","96","305994","0.0-14.0-1.40","SS1604610949174","<img src='images/complex/8.png' width ='500' height = '500' style='border:5px solid black'>","40","all_complex","images/complex/2.png","images/complex/8.png","images/complex/14.png,images/complex/3.png,images/complex/16.png,images/complex/4.png,images/complex/12.png,images/complex/5.png,images/complex/18.png","0","null","","200","338.9350000536069","","","","background","",""
"","null","html-keyboard-response","97","306839","0.0-14.0-0.41","SS1604610949174","","null","","","","","","","","","","","","<img src=images/blank.png width =""500"" height = ""500"" style=""border:5px solid black"">","","",""
"","225.7499999832362","stimulus-presentation","98","307279","0.0-14.0-1.41","SS1604610949174","<img src='images/complex/8.png' width ='500' height = '500' style='border:5px solid black'>","40","all_complex","images/complex/2.png","images/complex/8.png","images/complex/14.png,images/complex/3.png,images/complex/16.png,images/complex/4.png,images/complex/12.png,images/complex/5.png,images/complex/18.png","0","null","","200","425.7499999832362","","","","background","",""
"","null","html-keyboard-response","99","308527","0.0-14.0-0.42","SS1604610949174","","null","","","","","","","","","","","","<img src=images/blank.png width =""500"" height = ""500"" style=""border:5px solid black"">","","",""
"","143.69499997701496","stimulus-presentation","100","308889","0.0-14.0-1.42","SS1604610949174","<img src='images/complex/2.png' width ='500' height = '500' style='border:5px solid black'>","40","all_complex","images/complex/2.png","images/complex/8.png","images/complex/14.png,images/complex/3.png,images/complex/16.png,images/complex/4.png,images/complex/12.png,images/complex/5.png,images/complex/18.png","0","null","","200","343.69499997701496","","","","target","",""
"","null","html-keyboard-response","101","310005","0.0-14.0-0.43","SS1604610949174","","null","","","","","","","","","","","","<img src=images/blank.png width =""500"" height = ""500"" style=""border:5px solid black"">","","",""
"","216.9749999884516","stimulus-presentation","102","310433","0.0-14.0-1.43","SS1604610949174","<img src='images/complex/12.png' width ='500' height = '500' style='border:5px solid black'>","40","all_complex","images/complex/2.png","images/complex/8.png","images/complex/14.png,images/complex/3.png,images/complex/16.png,images/complex/4.png,images/complex/12.png,images/complex/5.png,images/complex/18.png","0","null","","200","416.9749999884516","","","","deviant","",""
"","null","html-keyboard-response","103","311602","0.0-14.0-0.44","SS1604610949174","","null","","","","","","","","","","","","<img src=images/blank.png width =""500"" height = ""500"" style=""border:5px solid black"">","","",""
"","127.01000005472451","stimulus-presentation","104","311936","0.0-14.0-1.44","SS1604610949174","<img src='images/complex/8.png' width ='500' height = '500' style='border:5px solid black'>","40","all_complex","images/complex/2.png","images/complex/8.png","images/complex/14.png,images/complex/3.png,images/complex/16.png,images/complex/4.png,images/complex/12.png,images/complex/5.png,images/complex/18.png","0","null","","200","327.0100000547245","","","","background","",""
"","null","html-keyboard-response","105","312957","0.0-14.0-0.45","SS1604610949174","","null","","","","","","","","","","","","<img src=images/blank.png width =""500"" height = ""500"" style=""border:5px solid black"">","","",""
"","263.03499995265156","stimulus-presentation","106","313431","0.0-14.0-1.45","SS1604610949174","<img src='images/complex/8.png' width ='500' height = '500' style='border:5px solid black'>","40","all_complex","images/complex/2.png","images/complex/8.png","images/complex/14.png,images/complex/3.png,images/complex/16.png,images/complex/4.png,images/complex/12.png,images/complex/5.png,images/complex/18.png","0","null","","200","463.03499995265156","","","","background","",""
"","null","html-keyboard-response","107","314440","0.0-14.0-0.46","SS1604610949174","","null","","","","","","","","","","","","<img src=images/blank.png width =""500"" height = ""500"" style=""border:5px solid black"">","","",""
"","188.39999998454005","stimulus-presentation","108","314849","0.0-14.0-1.46","SS1604610949174","<img src='images/complex/8.png' width ='500' height = '500' style='border:5px solid black'>","40","all_complex","images/complex/2.png","images/complex/8.png","images/complex/14.png,images/complex/3.png,images/complex/16.png,images/complex/4.png,images/complex/12.png,images/complex/5.png,images/complex/18.png","0","null","","200","388.39999998454005","yes","172.58499993477017","","background","",""
"","null","html-keyboard-response","109","315970","0.0-14.0-0.47","SS1604610949174","","null","","","","","","","","","","","","<img src=images/blank.png width =""500"" height = ""500"" style=""border:5px solid black"">","","",""
"","65.90500008314848","stimulus-presentation","110","316249","0.0-14.0-1.47","SS1604610949174","<img src='images/complex/8.png' width ='500' height = '500' style='border:5px solid black'>","40","all_complex","images/complex/2.png","images/complex/8.png","images/complex/14.png,images/complex/3.png,images/complex/16.png,images/complex/4.png,images/complex/12.png,images/complex/5.png,images/complex/18.png","0","null","","200","265.9050000831485","","","","background","",""
"","null","html-keyboard-response","111","317458","0.0-14.0-0.48","SS1604610949174","","null","","","","","","","","","","","","<img src=images/blank.png width =""500"" height = ""500"" style=""border:5px solid black"">","","",""
"","462.9799999529496","stimulus-presentation","112","318136","0.0-14.0-1.48","SS1604610949174","<img src='images/complex/8.png' width ='500' height = '500' style='border:5px solid black'>","40","all_complex","images/complex/2.png","images/complex/8.png","images/complex/14.png,images/complex/3.png,images/complex/16.png,images/complex/4.png,images/complex/12.png,images/complex/5.png,images/complex/18.png","0","null","","200","662.9799999529496","","","","background","",""
"[{""page_index"":0,""viewing_time"":3288}]","3289","task-instructions","113","321431","0.0-15.0","SS1604610949174","","","","","","","","","","","","","","","","",""
"[{""page_index"":0,""viewing_time"":2311.60000001546},{""page_index"":1,""viewing_time"":3063.704999978654},{""page_index"":2,""viewing_time"":1616.0150000359863}]","6991.799999959767","instructions","114","328431","0.0-16.0","SS1604610949174","","","","","","","","","","","","","","","","",""
"","null","html-keyboard-response","115","329573","0.0-17.0-0.0","SS1604610949174","","null","","","","","","","","","","","","<img src=images/blank.png width =""500"" height = ""500"" style=""border:5px solid black"">","","",""
"","805.8799999998882","stimulus-presentation","116","330584","0.0-17.0-1.0","SS1604610949174","<img src='images/simple/17.png' width ='500' height = '500' style='border:5px solid black'>","40","all_simple","images/simple/1.png","images/simple/17.png","images/simple/2.png,images/simple/13.png,images/simple/4.png,images/simple/10.png,images/simple/8.png,images/simple/12.png,images/simple/18.png","1","null","","200","1005.8799999998882","","","","background","",""
"","null","html-keyboard-response","117","331397","0.0-17.0-0.1","SS1604610949174","","null","","","","","","","","","","","","<img src=images/blank.png width =""500"" height = ""500"" style=""border:5px solid black"">","","",""
"","265.055000083521","stimulus-presentation","118","331881","0.0-17.0-1.1","SS1604610949174","<img src='images/simple/17.png' width ='500' height = '500' style='border:5px solid black'>","40","all_simple","images/simple/1.png","images/simple/17.png","images/simple/2.png,images/simple/13.png,images/simple/4.png,images/simple/10.png,images/simple/8.png,images/simple/12.png,images/simple/18.png","1","null","","200","465.055000083521","","","","background","",""
"","null","html-keyboard-response","119","332792","0.0-17.0-0.2","SS1604610949174","","null","","","","","","","","","","","","<img src=images/blank.png width =""500"" height = ""500"" style=""border:5px solid black"">","","",""
"","749.4599999627098","stimulus-presentation","120","333752","0.0-17.0-1.2","SS1604610949174","<img src='images/simple/17.png' width ='500' height = '500' style='border:5px solid black'>","40","all_simple","images/simple/1.png","images/simple/17.png","images/simple/2.png,images/simple/13.png,images/simple/4.png,images/simple/10.png,images/simple/8.png,images/simple/12.png,images/simple/18.png","1","null","","200","949.4599999627098","","","","background","",""
"","null","html-keyboard-response","121","334893","0.0-17.0-0.3","SS1604610949174","","null","","","","","","","","","","","","<img src=images/blank.png width =""500"" height = ""500"" style=""border:5px solid black"">","","",""
"","136.33500004652888","stimulus-presentation","122","335249","0.0-17.0-1.3","SS1604610949174","<img src='images/simple/12.png' width ='500' height = '500' style='border:5px solid black'>","40","all_simple","images/simple/1.png","images/simple/17.png","images/simple/2.png,images/simple/13.png,images/simple/4.png,images/simple/10.png,images/simple/8.png,images/simple/12.png,images/simple/18.png","1","null","","200","336.3350000465289","","","","deviant","",""
"","null","html-keyboard-response","123","336426","0.0-17.0-0.4","SS1604610949174","","null","","","","","","","","","","","","<img src=images/blank.png width =""500"" height = ""500"" style=""border:5px solid black"">","","",""
"","197.6150000700727","stimulus-presentation","124","336834","0.0-17.0-1.4","SS1604610949174","<img src='images/simple/17.png' width ='500' height = '500' style='border:5px solid black'>","40","all_simple","images/simple/1.png","images/simple/17.png","images/simple/2.png,images/simple/13.png,images/simple/4.png,images/simple/10.png,images/simple/8.png,images/simple/12.png,images/simple/18.png","1","null","","200","397.6150000700727","","","","background","",""
"","null","html-keyboard-response","125","337760","0.0-17.0-0.5","SS1604610949174","","null","","","","","","","","","","","","<img src=images/blank.png width =""500"" height = ""500"" style=""border:5px solid black"">","","",""
"","421.89500003587455","stimulus-presentation","126","338393","0.0-17.0-1.5","SS1604610949174","<img src='images/simple/17.png' width ='500' height = '500' style='border:5px solid black'>","40","all_simple","images/simple/1.png","images/simple/17.png","images/simple/2.png,images/simple/13.png,images/simple/4.png,images/simple/10.png,images/simple/8.png,images/simple/12.png,images/simple/18.png","1","null","","200","621.8950000358745","","","","background","",""
"","null","html-keyboard-response","127","339389","0.0-17.0-0.6","SS1604610949174","","null","","","","","","","","","","","","<img src=images/blank.png width =""500"" height = ""500"" style=""border:5px solid black"">","","",""
"","1156.0250000329688","stimulus-presentation","128","340762","0.0-17.0-1.6","SS1604610949174","<img src='images/simple/17.png' width ='500' height = '500' style='border:5px solid black'>","40","all_simple","images/simple/1.png","images/simple/17.png","images/simple/2.png,images/simple/13.png,images/simple/4.png,images/simple/10.png,images/simple/8.png,images/simple/12.png,images/simple/18.png","1","null","","200","1356.0250000329688","","","","background","",""
"","null","html-keyboard-response","129","341775","0.0-17.0-0.7","SS1604610949174","","null","","","","","","","","","","","","<img src=images/blank.png width =""500"" height = ""500"" style=""border:5px solid black"">","","",""
"","207.9150000354275","stimulus-presentation","130","342194","0.0-17.0-1.7","SS1604610949174","<img src='images/simple/10.png' width ='500' height = '500' style='border:5px solid black'>","40","all_simple","images/simple/1.png","images/simple/17.png","images/simple/2.png,images/simple/13.png,images/simple/4.png,images/simple/10.png,images/simple/8.png,images/simple/12.png,images/simple/18.png","1","null","","200","407.9150000354275","","","","deviant","",""
"","null","html-keyboard-response","131","343165","0.0-17.0-0.8","SS1604610949174","","null","","","","","","","","","","","","<img src=images/blank.png width =""500"" height = ""500"" style=""border:5px solid black"">","","",""
"","257.77000002563","stimulus-presentation","132","343632","0.0-17.0-1.8","SS1604610949174","<img src='images/simple/17.png' width ='500' height = '500' style='border:5px solid black'>","40","all_simple","images/simple/1.png","images/simple/17.png","images/simple/2.png,images/simple/13.png,images/simple/4.png,images/simple/10.png,images/simple/8.png,images/simple/12.png,images/simple/18.png","1","null","","200","457.77000002563","","","","background","",""
"","null","html-keyboard-response","133","344580","0.0-17.0-0.9","SS1604610949174","","null","","","","","","","","","","","","<img src=images/blank.png width =""500"" height = ""500"" style=""border:5px solid black"">","","",""
"","238.94499999005347","stimulus-presentation","134","345024","0.0-17.0-1.9","SS1604610949174","<img src='images/simple/17.png' width ='500' height = '500' style='border:5px solid black'>","40","all_simple","images/simple/1.png","images/simple/17.png","images/simple/2.png,images/simple/13.png,images/simple/4.png,images/simple/10.png,images/simple/8.png,images/simple/12.png,images/simple/18.png","1","null","","200","438.9449999900535","","","","background","",""
"","null","html-keyboard-response","135","345942","0.0-17.0-0.10","SS1604610949174","","null","","","","","","","","","","","","<img src=images/blank.png width =""500"" height = ""500"" style=""border:5px solid black"">","","",""
"","406.97500004898757","stimulus-presentation","136","346560","0.0-17.0-1.10","SS1604610949174","<img src='images/simple/1.png' width ='500' height = '500' style='border:5px solid black'>","40","all_simple","images/simple/1.png","images/simple/17.png","images/simple/2.png,images/simple/13.png,images/simple/4.png,images/simple/10.png,images/simple/8.png,images/simple/12.png,images/simple/18.png","1","null","","200","606.9750000489876","","","","target","",""
"","null","html-keyboard-response","137","347719","0.0-17.0-0.11","SS1604610949174","","null","","","","","","","","","","","","<img src=images/blank.png width =""500"" height = ""500"" style=""border:5px solid black"">","","",""
"","309.15500002447516","stimulus-presentation","138","348240","0.0-17.0-1.11","SS1604610949174","<img src='images/simple/17.png' width ='500' height = '500' style='border:5px solid black'>","40","all_simple","images/simple/1.png","images/simple/17.png","images/simple/2.png,images/simple/13.png,images/simple/4.png,images/simple/10.png,images/simple/8.png,images/simple/12.png,images/simple/18.png","1","null","","200","509.15500002447516","","","","background","",""
"","null","html-keyboard-response","139","349157","0.0-17.0-0.12","SS1604610949174","","null","","","","","","","","","","","","<img src=images/blank.png width =""500"" height = ""500"" style=""border:5px solid black"">","","",""
"","39.4399999640882","stimulus-presentation","140","349409","0.0-17.0-1.12","SS1604610949174","<img src='images/simple/17.png' width ='500' height = '500' style='border:5px solid black'>","40","all_simple","images/simple/1.png","images/simple/17.png","images/simple/2.png,images/simple/13.png,images/simple/4.png,images/simple/10.png,images/simple/8.png,images/simple/12.png,images/simple/18.png","1","null","","200","239.4399999640882","","","","background","",""
"","null","html-keyboard-response","141","350561","0.0-17.0-0.13","SS1604610949174","","null","","","","","","","","","","","","<img src=images/blank.png width =""500"" height = ""500"" style=""border:5px solid black"">","","",""
"","506.580000044778","stimulus-presentation","142","351276","0.0-17.0-1.13","SS1604610949174","<img src='images/simple/17.png' width ='500' height = '500' style='border:5px solid black'>","40","all_simple","images/simple/1.png","images/simple/17.png","images/simple/2.png,images/simple/13.png,images/simple/4.png,images/simple/10.png,images/simple/8.png,images/simple/12.png,images/simple/18.png","1","null","","200","706.580000044778","","","","background","",""
"","null","html-keyboard-response","143","352144","0.0-17.0-0.14","SS1604610949174","","null","","","","","","","","","","","","<img src=images/blank.png width =""500"" height = ""500"" style=""border:5px solid black"">","","",""
"","176.5550000127405","stimulus-presentation","144","352528","0.0-17.0-1.14","SS1604610949174","<img src='images/simple/17.png' width ='500' height = '500' style='border:5px solid black'>","40","all_simple","images/simple/1.png","images/simple/17.png","images/simple/2.png,images/simple/13.png,images/simple/4.png,images/simple/10.png,images/simple/8.png,images/simple/12.png,images/simple/18.png","1","null","","200","376.5550000127405","","","","background","",""
"","null","html-keyboard-response","145","353538","0.0-17.0-0.15","SS1604610949174","","null","","","","","","","","","","","","<img src=images/blank.png width =""500"" height = ""500"" style=""border:5px solid black"">","","",""
"","593.1049999780953","stimulus-presentation","146","354344","0.0-17.0-1.15","SS1604610949174","<img src='images/simple/8.png' width ='500' height = '500' style='border:5px solid black'>","40","all_simple","images/simple/1.png","images/simple/17.png","images/simple/2.png,images/simple/13.png,images/simple/4.png,images/simple/10.png,images/simple/8.png,images/simple/12.png,images/simple/18.png","1","null","","200","793.1049999780953","","","","deviant","",""
"","null","html-keyboard-response","147","355365","0.0-17.0-0.16","SS1604610949174","","null","","","","","","","","","","","","<img src=images/blank.png width =""500"" height = ""500"" style=""border:5px solid black"">","","",""
"","560.6850000331178","stimulus-presentation","148","356136","0.0-17.0-1.16","SS1604610949174","<img src='images/simple/17.png' width ='500' height = '500' style='border:5px solid black'>","40","all_simple","images/simple/1.png","images/simple/17.png","images/simple/2.png,images/simple/13.png,images/simple/4.png,images/simple/10.png,images/simple/8.png,images/simple/12.png,images/simple/18.png","1","null","","200","760.6850000331178","","","","background","",""
"","null","html-keyboard-response","149","357275","0.0-17.0-0.17","SS1604610949174","","null","","","","","","","","","","","","<img src=images/blank.png width =""500"" height = ""500"" style=""border:5px solid black"">","","",""
"","441.34500005748123","stimulus-presentation","150","357930","0.0-17.0-1.17","SS1604610949174","<img src='images/simple/17.png' width ='500' height = '500' style='border:5px solid black'>","40","all_simple","images/simple/1.png","images/simple/17.png","images/simple/2.png,images/simple/13.png,images/simple/4.png,images/simple/10.png,images/simple/8.png,images/simple/12.png,images/simple/18.png","1","null","","200","641.3450000574812","","","","background","",""
"","null","html-keyboard-response","151","359217","0.0-17.0-0.18","SS1604610949174","","null","","","","","","","","","","","","<img src=images/blank.png width =""500"" height = ""500"" style=""border:5px solid black"">","","",""
"","228.08000002987683","stimulus-presentation","152","359657","0.0-17.0-1.18","SS1604610949174","<img src='images/simple/17.png' width ='500' height = '500' style='border:5px solid black'>","40","all_simple","images/simple/1.png","images/simple/17.png","images/simple/2.png,images/simple/13.png,images/simple/4.png,images/simple/10.png,images/simple/8.png,images/simple/12.png,images/simple/18.png","1","null","","200","428.0800000298768","","","","background","",""
"","null","html-keyboard-response","153","360585","0.0-17.0-0.19","SS1604610949174","","null","","","","","","","","","","","","<img src=images/blank.png width =""500"" height = ""500"" style=""border:5px solid black"">","","",""
"","319.8199999751523","stimulus-presentation","154","361112","0.0-17.0-1.19","SS1604610949174","<img src='images/simple/2.png' width ='500' height = '500' style='border:5px solid black'>","40","all_simple","images/simple/1.png","images/simple/17.png","images/simple/2.png,images/simple/13.png,images/simple/4.png,images/simple/10.png,images/simple/8.png,images/simple/12.png,images/simple/18.png","1","null","","200","519.8199999751523","","","","deviant","",""
"","null","html-keyboard-response","155","362004","0.0-17.0-0.20","SS1604610949174","","null","","","","","","","","","","","","<img src=images/blank.png width =""500"" height = ""500"" style=""border:5px solid black"">","","",""
"","22.705000010319054","stimulus-presentation","156","362240","0.0-17.0-1.20","SS1604610949174","<img src='images/simple/17.png' width ='500' height = '500' style='border:5px solid black'>","40","all_simple","images/simple/1.png","images/simple/17.png","images/simple/2.png,images/simple/13.png,images/simple/4.png,images/simple/10.png,images/simple/8.png,images/simple/12.png,images/simple/18.png","1","null","","200","222.70500001031905","","","","background","",""
"","null","html-keyboard-response","157","363059","0.0-17.0-0.21","SS1604610949174","","null","","","","","","","","","","","","<img src=images/blank.png width =""500"" height = ""500"" style=""border:5px solid black"">","","",""
"","197.85499991849065","stimulus-presentation","158","363473","0.0-17.0-1.21","SS1604610949174","<img src='images/simple/17.png' width ='500' height = '500' style='border:5px solid black'>","40","all_simple","images/simple/1.png","images/simple/17.png","images/simple/2.png,images/simple/13.png,images/simple/4.png,images/simple/10.png,images/simple/8.png,images/simple/12.png,images/simple/18.png","1","null","","200","397.85499991849065","","","","background","",""
"","null","html-keyboard-response","159","364606","0.0-17.0-0.22","SS1604610949174","","null","","","","","","","","","","","","<img src=images/blank.png width =""500"" height = ""500"" style=""border:5px solid black"">","","",""
"","189.75499994121492","stimulus-presentation","160","365008","0.0-17.0-1.22","SS1604610949174","<img src='images/simple/17.png' width ='500' height = '500' style='border:5px solid black'>","40","all_simple","images/simple/1.png","images/simple/17.png","images/simple/2.png,images/simple/13.png,images/simple/4.png,images/simple/10.png,images/simple/8.png,images/simple/12.png,images/simple/18.png","1","null","","200","389.7549999412149","","","","background","",""
"","null","html-keyboard-response","161","365921","0.0-17.0-0.23","SS1604610949174","","null","","","","","","","","","","","","<img src=images/blank.png width =""500"" height = ""500"" style=""border:5px solid black"">","","",""
"","11.350000044330955","stimulus-presentation","162","366145","0.0-17.0-1.23","SS1604610949174","<img src='images/simple/1.png' width ='500' height = '500' style='border:5px solid black'>","40","all_simple","images/simple/1.png","images/simple/17.png","images/simple/2.png,images/simple/13.png,images/simple/4.png,images/simple/10.png,images/simple/8.png,images/simple/12.png,images/simple/18.png","1","null","","200","211.35000004433095","","","","target","",""
"","null","html-keyboard-response","163","367315","0.0-17.0-0.24","SS1604610949174","","null","","","","","","","","","","","","<img src=images/blank.png width =""500"" height = ""500"" style=""border:5px solid black"">","","",""
"","404.31000001262873","stimulus-presentation","164","367938","0.0-17.0-1.24","SS1604610949174","<img src='images/simple/1.png' width ='500' height = '500' style='border:5px solid black'>","40","all_simple","images/simple/1.png","images/simple/17.png","images/simple/2.png,images/simple/13.png,images/simple/4.png,images/simple/10.png,images/simple/8.png,images/simple/12.png,images/simple/18.png","1","null","","200","604.3100000126287","","","","target","",""
"","null","html-keyboard-response","165","368905","0.0-17.0-0.25","SS1604610949174","","null","","","","","","","","","","","","<img src=images/blank.png width =""500"" height = ""500"" style=""border:5px solid black"">","","",""
"","15.70500002708286","stimulus-presentation","166","369128","0.0-17.0-1.25","SS1604610949174","<img src='images/simple/17.png' width ='500' height = '500' style='border:5px solid black'>","40","all_simple","images/simple/1.png","images/simple/17.png","images/simple/2.png,images/simple/13.png,images/simple/4.png,images/simple/10.png,images/simple/8.png,images/simple/12.png,images/simple/18.png","1","null","","200","215.70500002708286","","","","background","",""
"","null","html-keyboard-response","167","370222","0.0-17.0-0.26","SS1604610949174","","null","","","","","","","","","","","","<img src=images/blank.png width =""500"" height = ""500"" style=""border:5px solid black"">","","",""
"","499.69500000588596","stimulus-presentation","168","370936","0.0-17.0-1.26","SS1604610949174","<img src='images/simple/17.png' width ='500' height = '500' style='border:5px solid black'>","40","all_simple","images/simple/1.png","images/simple/17.png","images/simple/2.png,images/simple/13.png,images/simple/4.png,images/simple/10.png,images/simple/8.png,images/simple/12.png,images/simple/18.png","1","null","","200","699.695000005886","","","","background","",""
"","null","html-keyboard-response","169","372128","0.0-17.0-0.27","SS1604610949174","","null","","","","","","","","","","","","<img src=images/blank.png width =""500"" height = ""500"" style=""border:5px solid black"">","","",""
"","484.08500000368804","stimulus-presentation","170","372825","0.0-17.0-1.27","SS1604610949174","<img src='images/simple/4.png' width ='500' height = '500' style='border:5px solid black'>","40","all_simple","images/simple/1.png","images/simple/17.png","images/simple/2.png,images/simple/13.png,images/simple/4.png,images/simple/10.png,images/simple/8.png,images/simple/12.png,images/simple/18.png","1","null","","200","684.085000003688","","","","deviant","",""
"","null","html-keyboard-response","171","373659","0.0-17.0-0.28","SS1604610949174","","null","","","","","","","","","","","","<img src=images/blank.png width =""500"" height = ""500"" style=""border:5px solid black"">","","",""
"","225.95500003080815","stimulus-presentation","172","374096","0.0-17.0-1.28","SS1604610949174","<img src='images/simple/17.png' width ='500' height = '500' style='border:5px solid black'>","40","all_simple","images/simple/1.png","images/simple/17.png","images/simple/2.png,images/simple/13.png,images/simple/4.png,images/simple/10.png,images/simple/8.png,images/simple/12.png,images/simple/18.png","1","null","","200","425.95500003080815","","","","background","",""
"","null","html-keyboard-response","173","375292","0.0-17.0-0.29","SS1604610949174","","null","","","","","","","","","","","","<img src=images/blank.png width =""500"" height = ""500"" style=""border:5px solid black"">","","",""
"","448.0850000400096","stimulus-presentation","174","375960","0.0-17.0-1.29","SS1604610949174","<img src='images/simple/1.png' width ='500' height = '500' style='border:5px solid black'>","40","all_simple","images/simple/1.png","images/simple/17.png","images/simple/2.png,images/simple/13.png,images/simple/4.png,images/simple/10.png,images/simple/8.png,images/simple/12.png,images/simple/18.png","1","null","","200","648.0850000400096","","","","target","",""
"","null","html-keyboard-response","175","377026","0.0-17.0-0.30","SS1604610949174","","null","","","","","","","","","","","","<img src=images/blank.png width =""500"" height = ""500"" style=""border:5px solid black"">","","",""
"","577.6449999539182","stimulus-presentation","176","377816","0.0-17.0-1.30","SS1604610949174","<img src='images/simple/1.png' width ='500' height = '500' style='border:5px solid black'>","40","all_simple","images/simple/1.png","images/simple/17.png","images/simple/2.png,images/simple/13.png,images/simple/4.png,images/simple/10.png,images/simple/8.png,images/simple/12.png,images/simple/18.png","1","null","","200","777.6449999539182","","","","target","",""
"","null","html-keyboard-response","177","378737","0.0-17.0-0.31","SS1604610949174","","null","","","","","","","","","","","","<img src=images/blank.png width =""500"" height = ""500"" style=""border:5px solid black"">","","",""
"","290.1150000980124","stimulus-presentation","178","379234","0.0-17.0-1.31","SS1604610949174","<img src='images/simple/18.png' width ='500' height = '500' style='border:5px solid black'>","40","all_simple","images/simple/1.png","images/simple/17.png","images/simple/2.png,images/simple/13.png,images/simple/4.png,images/simple/10.png,images/simple/8.png,images/simple/12.png,images/simple/18.png","1","null","","200","490.1150000980124","","","","deviant","",""
"","null","html-keyboard-response","179","380343","0.0-17.0-0.32","SS1604610949174","","null","","","","","","","","","","","","<img src=images/blank.png width =""500"" height = ""500"" style=""border:5px solid black"">","","",""
"","347.0550000201911","stimulus-presentation","180","380913","0.0-17.0-1.32","SS1604610949174","<img src='images/simple/17.png' width ='500' height = '500' style='border:5px solid black'>","40","all_simple","images/simple/1.png","images/simple/17.png","images/simple/2.png,images/simple/13.png,images/simple/4.png,images/simple/10.png,images/simple/8.png,images/simple/12.png,images/simple/18.png","1","null","","200","547.0550000201911","","","","background","",""
"","null","html-keyboard-response","181","382189","0.0-17.0-0.33","SS1604610949174","","null","","","","","","","","","","","","<img src=images/blank.png width =""500"" height = ""500"" style=""border:5px solid black"">","","",""
"","310.3800000390038","stimulus-presentation","182","382712","0.0-17.0-1.33","SS1604610949174","<img src='images/simple/17.png' width ='500' height = '500' style='border:5px solid black'>","40","all_simple","images/simple/1.png","images/simple/17.png","images/simple/2.png,images/simple/13.png,images/simple/4.png,images/simple/10.png,images/simple/8.png,images/simple/12.png,images/simple/18.png","1","null","","200","510.3800000390038","","","","background","",""
"","null","html-keyboard-response","183","384021","0.0-17.0-0.34","SS1604610949174","","null","","","","","","","","","","","","<img src=images/blank.png width =""500"" height = ""500"" style=""border:5px solid black"">","","",""
"","309.75000001490116","stimulus-presentation","184","384552","0.0-17.0-1.34","SS1604610949174","<img src='images/simple/17.png' width ='500' height = '500' style='border:5px solid black'>","40","all_simple","images/simple/1.png","images/simple/17.png","images/simple/2.png,images/simple/13.png,images/simple/4.png,images/simple/10.png,images/simple/8.png,images/simple/12.png,images/simple/18.png","1","null","","200","509.75000001490116","","","","background","",""
"","null","html-keyboard-response","185","385822","0.0-17.0-0.35","SS1604610949174","","null","","","","","","","","","","","","<img src=images/blank.png width =""500"" height = ""500"" style=""border:5px solid black"">","","",""
"","269.33999999891967","stimulus-presentation","186","386313","0.0-17.0-1.35","SS1604610949174","<img src='images/simple/17.png' width ='500' height = '500' style='border:5px solid black'>","40","all_simple","images/simple/1.png","images/simple/17.png","images/simple/2.png,images/simple/13.png,images/simple/4.png,images/simple/10.png,images/simple/8.png,images/simple/12.png,images/simple/18.png","1","null","","200","469.33999999891967","","","","background","",""
"","null","html-keyboard-response","187","387509","0.0-17.0-0.36","SS1604610949174","","null","","","","","","","","","","","","<img src=images/blank.png width =""500"" height = ""500"" style=""border:5px solid black"">","","",""
"","358.50999993272126","stimulus-presentation","188","388080","0.0-17.0-1.36","SS1604610949174","<img src='images/simple/17.png' width ='500' height = '500' style='border:5px solid black'>","40","all_simple","images/simple/1.png","images/simple/17.png","images/simple/2.png,images/simple/13.png,images/simple/4.png,images/simple/10.png,images/simple/8.png,images/simple/12.png,images/simple/18.png","1","null","","200","558.5099999327213","","","","background","",""
"","null","html-keyboard-response","189","388954","0.0-17.0-0.37","SS1604610949174","","null","","","","","","","","","","","","<img src=images/blank.png width =""500"" height = ""500"" style=""border:5px solid black"">","","",""
"","234.67499995604157","stimulus-presentation","190","389402","0.0-17.0-1.37","SS1604610949174","<img src='images/simple/17.png' width ='500' height = '500' style='border:5px solid black'>","40","all_simple","images/simple/1.png","images/simple/17.png","images/simple/2.png,images/simple/13.png,images/simple/4.png,images/simple/10.png,images/simple/8.png,images/simple/12.png,images/simple/18.png","1","null","","200","434.6749999560416","","","","background","",""
"","null","html-keyboard-response","191","390317","0.0-17.0-0.38","SS1604610949174","","null","","","","","","","","","","","","<img src=images/blank.png width =""500"" height = ""500"" style=""border:5px solid black"">","","",""
"","321.21000008191913","stimulus-presentation","192","390872","0.0-17.0-1.38","SS1604610949174","<img src='images/simple/17.png' width ='500' height = '500' style='border:5px solid black'>","40","all_simple","images/simple/1.png","images/simple/17.png","images/simple/2.png,images/simple/13.png,images/simple/4.png,images/simple/10.png,images/simple/8.png,images/simple/12.png,images/simple/18.png","1","null","","200","521.2100000819191","","","","background","",""
"","null","html-keyboard-response","193","391715","0.0-17.0-0.39","SS1604610949174","","null","","","","","","","","","","","","<img src=images/blank.png width =""500"" height = ""500"" style=""border:5px solid black"">","","",""
"","449.2750000208616","stimulus-presentation","194","392376","0.0-17.0-1.39","SS1604610949174","<img src='images/simple/17.png' width ='500' height = '500' style='border:5px solid black'>","40","all_simple","images/simple/1.png","images/simple/17.png","images/simple/2.png,images/simple/13.png,images/simple/4.png,images/simple/10.png,images/simple/8.png,images/simple/12.png,images/simple/18.png","1","null","","200","649.2750000208616","","","","background","",""
"","null","html-keyboard-response","195","393350","0.0-17.0-0.40","SS1604610949174","","null","","","","","","","","","","","","<img src=images/blank.png width =""500"" height = ""500"" style=""border:5px solid black"">","","",""
"","185.8500000089407","stimulus-presentation","196","393744","0.0-17.0-1.40","SS1604610949174","<img src='images/simple/13.png' width ='500' height = '500' style='border:5px solid black'>","40","all_simple","images/simple/1.png","images/simple/17.png","images/simple/2.png,images/simple/13.png,images/simple/4.png,images/simple/10.png,images/simple/8.png,images/simple/12.png,images/simple/18.png","1","null","","200","385.8500000089407","","","","deviant","",""
"","null","html-keyboard-response","197","394607","0.0-17.0-0.41","SS1604610949174","","null","","","","","","","","","","","","<img src=images/blank.png width =""500"" height = ""500"" style=""border:5px solid black"">","","",""
"","308.62000002525747","stimulus-presentation","198","395128","0.0-17.0-1.41","SS1604610949174","<img src='images/simple/17.png' width ='500' height = '500' style='border:5px solid black'>","40","all_simple","images/simple/1.png","images/simple/17.png","images/simple/2.png,images/simple/13.png,images/simple/4.png,images/simple/10.png,images/simple/8.png,images/simple/12.png,images/simple/18.png","1","null","","200","508.62000002525747","","","","background","",""
"","null","html-keyboard-response","199","396032","0.0-17.0-0.42","SS1604610949174","","null","","","","","","","","","","","","<img src=images/blank.png width =""500"" height = ""500"" style=""border:5px solid black"">","","",""
"","372.304999968037","stimulus-presentation","200","396616","0.0-17.0-1.42","SS1604610949174","<img src='images/simple/17.png' width ='500' height = '500' style='border:5px solid black'>","40","all_simple","images/simple/1.png","images/simple/17.png","images/simple/2.png,images/simple/13.png,images/simple/4.png,images/simple/10.png,images/simple/8.png,images/simple/12.png,images/simple/18.png","1","null","","200","572.304999968037","","","","background","",""
"","null","html-keyboard-response","201","397520","0.0-17.0-0.43","SS1604610949174","","null","","","","","","","","","","","","<img src=images/blank.png width =""500"" height = ""500"" style=""border:5px solid black"">","","",""
"","184.82500000391155","stimulus-presentation","202","397913","0.0-17.0-1.43","SS1604610949174","<img src='images/simple/17.png' width ='500' height = '500' style='border:5px solid black'>","40","all_simple","images/simple/1.png","images/simple/17.png","images/simple/2.png,images/simple/13.png,images/simple/4.png,images/simple/10.png,images/simple/8.png,images/simple/12.png,images/simple/18.png","1","null","","200","384.82500000391155","","","","background","",""
"","null","html-keyboard-response","203","398915","0.0-17.0-0.44","SS1604610949174","","null","","","","","","","","","","","","<img src=images/blank.png width =""500"" height = ""500"" style=""border:5px solid black"">","","",""
"","260.2050000568852","stimulus-presentation","204","399392","0.0-17.0-1.44","SS1604610949174","<img src='images/simple/17.png' width ='500' height = '500' style='border:5px solid black'>","40","all_simple","images/simple/1.png","images/simple/17.png","images/simple/2.png,images/simple/13.png,images/simple/4.png,images/simple/10.png,images/simple/8.png,images/simple/12.png,images/simple/18.png","1","null","","200","460.2050000568852","","","","background","",""
"","null","html-keyboard-response","205","400373","0.0-17.0-0.45","SS1604610949174","","null","","","","","","","","","","","","<img src=images/blank.png width =""500"" height = ""500"" style=""border:5px solid black"">","","",""
"","48.16000000573695","stimulus-presentation","206","400632","0.0-17.0-1.45","SS1604610949174","<img src='images/simple/1.png' width ='500' height = '500' style='border:5px solid black'>","40","all_simple","images/simple/1.png","images/simple/17.png","images/simple/2.png,images/simple/13.png,images/simple/4.png,images/simple/10.png,images/simple/8.png,images/simple/12.png,images/simple/18.png","1","null","","200","248.16000000573695","","","","target","",""
"","null","html-keyboard-response","207","401817","0.0-17.0-0.46","SS1604610949174","","null","","","","","","","","","","","","<img src=images/blank.png width =""500"" height = ""500"" style=""border:5px solid black"">","","",""
"","94.71500001382083","stimulus-presentation","208","402128","0.0-17.0-1.46","SS1604610949174","<img src='images/simple/17.png' width ='500' height = '500' style='border:5px solid black'>","40","all_simple","images/simple/1.png","images/simple/17.png","images/simple/2.png,images/simple/13.png,images/simple/4.png,images/simple/10.png,images/simple/8.png,images/simple/12.png,images/simple/18.png","1","null","","200","294.7150000138208","","","","background","",""
"","null","html-keyboard-response","209","403403","0.0-17.0-0.47","SS1604610949174","","null","","","","","","","","","","","","<img src=images/blank.png width =""500"" height = ""500"" style=""border:5px solid black"">","","",""
"","246.38999998569489","stimulus-presentation","210","403857","0.0-17.0-1.47","SS1604610949174","<img src='images/simple/1.png' width ='500' height = '500' style='border:5px solid black'>","40","all_simple","images/simple/1.png","images/simple/17.png","images/simple/2.png,images/simple/13.png,images/simple/4.png,images/simple/10.png,images/simple/8.png,images/simple/12.png,images/simple/18.png","1","null","","200","446.3899999856949","","","","target","",""
"","null","html-keyboard-response","211","404991","0.0-17.0-0.48","SS1604610949174","","null","","","","","","","","","","","","<img src=images/blank.png width =""500"" height = ""500"" style=""border:5px solid black"">","","",""
"","140.33500000368804","stimulus-presentation","212","405345","0.0-17.0-1.48","SS1604610949174","<img src='images/simple/17.png' width ='500' height = '500' style='border:5px solid black'>","40","all_simple","images/simple/1.png","images/simple/17.png","images/simple/2.png,images/simple/13.png,images/simple/4.png,images/simple/10.png,images/simple/8.png,images/simple/12.png,images/simple/18.png","1","null","","200","340.33500000368804","","","","background","",""
"[{""page_index"":0,""viewing_time"":26348}]","26349","task-instructions","213","431705","0.0-18.0","SS1604610949174","","","","","","","","","","","","","","","","",""
"[{""page_index"":0,""viewing_time"":1840.4899999732152},{""page_index"":1,""viewing_time"":4519.52000008896},{""page_index"":2,""viewing_time"":1832.0199999725446}]","8192.494999966584","instructions","214","439904","0.0-19.0","SS1604610949174","","","","","","","","","","","","","","","","",""
"","null","html-keyboard-response","215","440797","0.0-20.0-0.0","SS1604610949174","","null","","","","","","","","","","","","<img src=images/blank.png width =""500"" height = ""500"" style=""border:5px solid black"">","","",""
"","270.9000000031665","stimulus-presentation","216","441280","0.0-20.0-1.0","SS1604610949174","<img src='images/complex/6.png' width ='500' height = '500' style='border:5px solid black'>","40","mixed_simple_deviant","images/complex/11.png","images/complex/6.png","images/simple/11.png,images/simple/16.png,images/simple/15.png,images/simple/9.png,images/simple/5.png,images/simple/3.png,images/simple/7.png","2","null","","200","470.9000000031665","","","","background","",""
"","null","html-keyboard-response","217","442359","0.0-20.0-0.1","SS1604610949174","","null","","","","","","","","","","","","<img src=images/blank.png width =""500"" height = ""500"" style=""border:5px solid black"">","","",""
"","10.220000054687262","stimulus-presentation","218","442584","0.0-20.0-1.1","SS1604610949174","<img src='images/simple/3.png' width ='500' height = '500' style='border:5px solid black'>","40","mixed_simple_deviant","images/complex/11.png","images/complex/6.png","images/simple/11.png,images/simple/16.png,images/simple/15.png,images/simple/9.png,images/simple/5.png,images/simple/3.png,images/simple/7.png","2","null","","200","210.22000005468726","","","","deviant","",""
"","null","html-keyboard-response","219","443533","0.0-20.0-0.2","SS1604610949174","","null","","","","","","","","","","","","<img src=images/blank.png width =""500"" height = ""500"" style=""border:5px solid black"">","","",""
"","74.26499994471669","stimulus-presentation","220","443817","0.0-20.0-1.2","SS1604610949174","<img src='images/complex/6.png' width ='500' height = '500' style='border:5px solid black'>","40","mixed_simple_deviant","images/complex/11.png","images/complex/6.png","images/simple/11.png,images/simple/16.png,images/simple/15.png,images/simple/9.png,images/simple/5.png,images/simple/3.png,images/simple/7.png","2","null","","200","274.2649999447167","","","","background","",""
"","null","html-keyboard-response","221","444999","0.0-20.0-0.3","SS1604610949174","","null","","","","","","","","","","","","<img src=images/blank.png width =""500"" height = ""500"" style=""border:5px solid black"">","","",""
"","171.0050000110641","stimulus-presentation","222","445384","0.0-20.0-1.3","SS1604610949174","<img src='images/complex/6.png' width ='500' height = '500' style='border:5px solid black'>","40","mixed_simple_deviant","images/complex/11.png","images/complex/6.png","images/simple/11.png,images/simple/16.png,images/simple/15.png,images/simple/9.png,images/simple/5.png,images/simple/3.png,images/simple/7.png","2","null","","200","371.0050000110641","","","","background","",""
"","null","html-keyboard-response","223","446356","0.0-20.0-0.4","SS1604610949174","","null","","","","","","","","","","","","<img src=images/blank.png width =""500"" height = ""500"" style=""border:5px solid black"">","","",""
"","159.0050000231713","stimulus-presentation","224","446728","0.0-20.0-1.4","SS1604610949174","<img src='images/simple/15.png' width ='500' height = '500' style='border:5px solid black'>","40","mixed_simple_deviant","images/complex/11.png","images/complex/6.png","images/simple/11.png,images/simple/16.png,images/simple/15.png,images/simple/9.png,images/simple/5.png,images/simple/3.png,images/simple/7.png","2","null","","200","359.0050000231713","","","","deviant","",""
"","null","html-keyboard-response","225","447655","0.0-20.0-0.5","SS1604610949174","","null","","","","","","","","","","","","<img src=images/blank.png width =""500"" height = ""500"" style=""border:5px solid black"">","","",""
"","100.32000008504838","stimulus-presentation","226","448000","0.0-20.0-1.5","SS1604610949174","<img src='images/complex/6.png' width ='500' height = '500' style='border:5px solid black'>","40","mixed_simple_deviant","images/complex/11.png","images/complex/6.png","images/simple/11.png,images/simple/16.png,images/simple/15.png,images/simple/9.png,images/simple/5.png,images/simple/3.png,images/simple/7.png","2","null","","200","300.3200000850484","","","","background","",""
"","null","html-keyboard-response","227","449132","0.0-20.0-0.6","SS1604610949174","","null","","","","","","","","","","","","<img src=images/blank.png width =""500"" height = ""500"" style=""border:5px solid black"">","","",""
"","149.41000007092953","stimulus-presentation","228","449489","0.0-20.0-1.6","SS1604610949174","<img src='images/complex/6.png' width ='500' height = '500' style='border:5px solid black'>","40","mixed_simple_deviant","images/complex/11.png","images/complex/6.png","images/simple/11.png,images/simple/16.png,images/simple/15.png,images/simple/9.png,images/simple/5.png,images/simple/3.png,images/simple/7.png","2","null","","200","349.4100000709295","","","","background","",""
"","null","html-keyboard-response","229","450354","0.0-20.0-0.7","SS1604610949174","","null","","","","","","","","","","","","<img src=images/blank.png width =""500"" height = ""500"" style=""border:5px solid black"">","","",""
"","14.280000003054738","stimulus-presentation","230","450584","0.0-20.0-1.7","SS1604610949174","<img src='images/complex/6.png' width ='500' height = '500' style='border:5px solid black'>","40","mixed_simple_deviant","images/complex/11.png","images/complex/6.png","images/simple/11.png,images/simple/16.png,images/simple/15.png,images/simple/9.png,images/simple/5.png,images/simple/3.png,images/simple/7.png","2","null","","200","214.28000000305474","","","","background","",""
"","null","html-keyboard-response","231","451614","0.0-20.0-0.8","SS1604610949174","","null","","","","","","","","","","","","<img src=images/blank.png width =""500"" height = ""500"" style=""border:5px solid black"">","","",""
"","157.00000000651926","stimulus-presentation","232","451984","0.0-20.0-1.8","SS1604610949174","<img src='images/simple/9.png' width ='500' height = '500' style='border:5px solid black'>","40","mixed_simple_deviant","images/complex/11.png","images/complex/6.png","images/simple/11.png,images/simple/16.png,images/simple/15.png,images/simple/9.png,images/simple/5.png,images/simple/3.png,images/simple/7.png","2","null","","200","357.00000000651926","","","","deviant","",""
"","null","html-keyboard-response","233","453118","0.0-20.0-0.9","SS1604610949174","","null","","","","","","","","","","","","<img src=images/blank.png width =""500"" height = ""500"" style=""border:5px solid black"">","","",""
"","127.48500006273389","stimulus-presentation","234","453457","0.0-20.0-1.9","SS1604610949174","<img src='images/complex/6.png' width ='500' height = '500' style='border:5px solid black'>","40","mixed_simple_deviant","images/complex/11.png","images/complex/6.png","images/simple/11.png,images/simple/16.png,images/simple/15.png,images/simple/9.png,images/simple/5.png,images/simple/3.png,images/simple/7.png","2","null","","200","327.4850000627339","","","","background","",""
"","null","html-keyboard-response","235","454285","0.0-20.0-0.10","SS1604610949174","","null","","","","","","","","","","","","<img src=images/blank.png width =""500"" height = ""500"" style=""border:5px solid black"">","","",""
"","17.945000086911023","stimulus-presentation","236","454520","0.0-20.0-1.10","SS1604610949174","<img src='images/complex/6.png' width ='500' height = '500' style='border:5px solid black'>","40","mixed_simple_deviant","images/complex/11.png","images/complex/6.png","images/simple/11.png,images/simple/16.png,images/simple/15.png,images/simple/9.png,images/simple/5.png,images/simple/3.png,images/simple/7.png","2","null","","200","217.94500008691102","","","","background","",""
"","null","html-keyboard-response","237","455618","0.0-20.0-0.11","SS1604610949174","","null","","","","","","","","","","","","<img src=images/blank.png width =""500"" height = ""500"" style=""border:5px solid black"">","","",""
"","159.92999996524304","stimulus-presentation","238","455992","0.0-20.0-1.11","SS1604610949174","<img src='images/complex/11.png' width ='500' height = '500' style='border:5px solid black'>","40","mixed_simple_deviant","images/complex/11.png","images/complex/6.png","images/simple/11.png,images/simple/16.png,images/simple/15.png,images/simple/9.png,images/simple/5.png,images/simple/3.png,images/simple/7.png","2","null","","200","359.92999996524304","","","","target","",""
"","null","html-keyboard-response","239","457541","0.0-20.0-0.12","SS1604610949174","","null","","","","","","","","","","","","<img src=images/blank.png width =""500"" height = ""500"" style=""border:5px solid black"">","","",""
"","30324.5449999813","stimulus-presentation","240","488881","0.0-20.0-1.12","SS1604610949174","<img src='images/complex/6.png' width ='500' height = '500' style='border:5px solid black'>","40","mixed_simple_deviant","images/complex/11.png","images/complex/6.png","images/simple/11.png,images/simple/16.png,images/simple/15.png,images/simple/9.png,images/simple/5.png,images/simple/3.png,images/simple/7.png","2","null","","200","30524.5449999813","","","","background","",""
"","null","html-keyboard-response","241","489761","0.0-20.0-0.13","SS1604610949174","","null","","","","","","","","","","","","<img src=images/blank.png width =""500"" height = ""500"" style=""border:5px solid black"">","","",""
"","94.68499990180135","stimulus-presentation","242","490064","0.0-20.0-1.13","SS1604610949174","<img src='images/complex/6.png' width ='500' height = '500' style='border:5px solid black'>","40","mixed_simple_deviant","images/complex/11.png","images/complex/6.png","images/simple/11.png,images/simple/16.png,images/simple/15.png,images/simple/9.png,images/simple/5.png,images/simple/3.png,images/simple/7.png","2","null","","200","294.68499990180135","","","","background","",""
"","null","html-keyboard-response","243","490969","0.0-20.0-0.14","SS1604610949174","","null","","","","","","","","","","","","<img src=images/blank.png width =""500"" height = ""500"" style=""border:5px solid black"">","","",""
"","133.9000000152737","stimulus-presentation","244","491313","0.0-20.0-1.14","SS1604610949174","<img src='images/complex/6.png' width ='500' height = '500' style='border:5px solid black'>","40","mixed_simple_deviant","images/complex/11.png","images/complex/6.png","images/simple/11.png,images/simple/16.png,images/simple/15.png,images/simple/9.png,images/simple/5.png,images/simple/3.png,images/simple/7.png","2","null","","200","333.9000000152737","","","","background","",""
"","null","html-keyboard-response","245","492462","0.0-20.0-0.15","SS1604610949174","","null","","","","","","","","","","","","<img src=images/blank.png width =""500"" height = ""500"" style=""border:5px solid black"">","","",""
"","352.1499999333173","stimulus-presentation","246","493027","0.0-20.0-1.15","SS1604610949174","<img src='images/complex/6.png' width ='500' height = '500' style='border:5px solid black'>","40","mixed_simple_deviant","images/complex/11.png","images/complex/6.png","images/simple/11.png,images/simple/16.png,images/simple/15.png,images/simple/9.png,images/simple/5.png,images/simple/3.png,images/simple/7.png","2","null","","200","552.1499999333173","","","","background","",""
"","null","html-keyboard-response","247","493855","0.0-20.0-0.16","SS1604610949174","","null","","","","","","","","","","","","<img src=images/blank.png width =""500"" height = ""500"" style=""border:5px solid black"">","","",""
"","234.349999926053","stimulus-presentation","248","494305","0.0-20.0-1.16","SS1604610949174","<img src='images/complex/11.png' width ='500' height = '500' style='border:5px solid black'>","40","mixed_simple_deviant","images/complex/11.png","images/complex/6.png","images/simple/11.png,images/simple/16.png,images/simple/15.png,images/simple/9.png,images/simple/5.png,images/simple/3.png,images/simple/7.png","2","null","","200","434.349999926053","","","","target","",""
"","null","html-keyboard-response","249","495525","0.0-20.0-0.17","SS1604610949174","","null","","","","","","","","","","","","<img src=images/blank.png width =""500"" height = ""500"" style=""border:5px solid black"">","","",""
"","122.15499999001622","stimulus-presentation","250","495864","0.0-20.0-1.17","SS1604610949174","<img src='images/complex/6.png' width ='500' height = '500' style='border:5px solid black'>","40","mixed_simple_deviant","images/complex/11.png","images/complex/6.png","images/simple/11.png,images/simple/16.png,images/simple/15.png,images/simple/9.png,images/simple/5.png,images/simple/3.png,images/simple/7.png","2","null","","200","322.1549999900162","","","","background","",""
"","null","html-keyboard-response","251","496904","0.0-20.0-0.18","SS1604610949174","","null","","","","","","","","","","","","<img src=images/blank.png width =""500"" height = ""500"" style=""border:5px solid black"">","","",""
"","260.04500000271946","stimulus-presentation","252","497376","0.0-20.0-1.18","SS1604610949174","<img src='images/complex/6.png' width ='500' height = '500' style='border:5px solid black'>","40","mixed_simple_deviant","images/complex/11.png","images/complex/6.png","images/simple/11.png,images/simple/16.png,images/simple/15.png,images/simple/9.png,images/simple/5.png,images/simple/3.png,images/simple/7.png","2","null","","200","460.04500000271946","","","","background","",""
"","null","html-keyboard-response","253","498328","0.0-20.0-0.19","SS1604610949174","","null","","","","","","","","","","","","<img src=images/blank.png width =""500"" height = ""500"" style=""border:5px solid black"">","","",""
"","146.4350000023842","stimulus-presentation","254","498688","0.0-20.0-1.19","SS1604610949174","<img src='images/complex/6.png' width ='500' height = '500' style='border:5px solid black'>","40","mixed_simple_deviant","images/complex/11.png","images/complex/6.png","images/simple/11.png,images/simple/16.png,images/simple/15.png,images/simple/9.png,images/simple/5.png,images/simple/3.png,images/simple/7.png","2","null","","200","346.4350000023842","","","","background","",""
"","null","html-keyboard-response","255","499544","0.0-20.0-0.20","SS1604610949174","","null","","","","","","","","","","","","<img src=images/blank.png width =""500"" height = ""500"" style=""border:5px solid black"">","","",""
"","120.21500000264496","stimulus-presentation","256","499880","0.0-20.0-1.20","SS1604610949174","<img src='images/complex/6.png' width ='500' height = '500' style='border:5px solid black'>","40","mixed_simple_deviant","images/complex/11.png","images/complex/6.png","images/simple/11.png,images/simple/16.png,images/simple/15.png,images/simple/9.png,images/simple/5.png,images/simple/3.png,images/simple/7.png","2","null","","200","320.21500000264496","","","","background","",""
"","null","html-keyboard-response","257","501003","0.0-20.0-0.21","SS1604610949174","","null","","","","","","","","","","","","<img src=images/blank.png width =""500"" height = ""500"" style=""border:5px solid black"">","","",""
"","6.859999964945018","stimulus-presentation","258","501225","0.0-20.0-1.21","SS1604610949174","<img src='images/complex/6.png' width ='500' height = '500' style='border:5px solid black'>","40","mixed_simple_deviant","images/complex/11.png","images/complex/6.png","images/simple/11.png,images/simple/16.png,images/simple/15.png,images/simple/9.png,images/simple/5.png,images/simple/3.png,images/simple/7.png","2","null","","200","206.85999996494502","","","","background","",""
"","null","html-keyboard-response","259","502291","0.0-20.0-0.22","SS1604610949174","","null","","","","","","","","","","","","<img src=images/blank.png width =""500"" height = ""500"" style=""border:5px solid black"">","","",""
"","15.295000048354268","stimulus-presentation","260","502514","0.0-20.0-1.22","SS1604610949174","<img src='images/simple/16.png' width ='500' height = '500' style='border:5px solid black'>","40","mixed_simple_deviant","images/complex/11.png","images/complex/6.png","images/simple/11.png,images/simple/16.png,images/simple/15.png,images/simple/9.png,images/simple/5.png,images/simple/3.png,images/simple/7.png","2","null","","200","215.29500004835427","","","","deviant","",""
"","null","html-keyboard-response","261","503638","0.0-20.0-0.23","SS1604610949174","","null","","","","","","","","","","","","<img src=images/blank.png width =""500"" height = ""500"" style=""border:5px solid black"">","","",""
"","140.69000002928078","stimulus-presentation","262","503993","0.0-20.0-1.23","SS1604610949174","<img src='images/complex/6.png' width ='500' height = '500' style='border:5px solid black'>","40","mixed_simple_deviant","images/complex/11.png","images/complex/6.png","images/simple/11.png,images/simple/16.png,images/simple/15.png,images/simple/9.png,images/simple/5.png,images/simple/3.png,images/simple/7.png","2","null","","200","340.6900000292808","","","","background","",""
"","null","html-keyboard-response","263","505277","0.0-20.0-0.24","SS1604610949174","","null","","","","","","","","","","","","<img src=images/blank.png width =""500"" height = ""500"" style=""border:5px solid black"">","","",""
"","116.38000002130866","stimulus-presentation","264","505618","0.0-20.0-1.24","SS1604610949174","<img src='images/complex/6.png' width ='500' height = '500' style='border:5px solid black'>","40","mixed_simple_deviant","images/complex/11.png","images/complex/6.png","images/simple/11.png,images/simple/16.png,images/simple/15.png,images/simple/9.png,images/simple/5.png,images/simple/3.png,images/simple/7.png","2","null","","200","316.38000002130866","","","","background","",""
"","null","html-keyboard-response","265","506673","0.0-20.0-0.25","SS1604610949174","","null","","","","","","","","","","","","<img src=images/blank.png width =""500"" height = ""500"" style=""border:5px solid black"">","","",""
"","251.29500008188188","stimulus-presentation","266","507136","0.0-20.0-1.25","SS1604610949174","<img src='images/complex/6.png' width ='500' height = '500' style='border:5px solid black'>","40","mixed_simple_deviant","images/complex/11.png","images/complex/6.png","images/simple/11.png,images/simple/16.png,images/simple/15.png,images/simple/9.png,images/simple/5.png,images/simple/3.png,images/simple/7.png","2","null","","200","451.2950000818819","","","","background","",""
"","null","html-keyboard-response","267","508362","0.0-20.0-0.26","SS1604610949174","","null","","","","","","","","","","","","<img src=images/blank.png width =""500"" height = ""500"" style=""border:5px solid black"">","","",""
"","190.1799999177456","stimulus-presentation","268","508768","0.0-20.0-1.26","SS1604610949174","<img src='images/simple/5.png' width ='500' height = '500' style='border:5px solid black'>","40","mixed_simple_deviant","images/complex/11.png","images/complex/6.png","images/simple/11.png,images/simple/16.png,images/simple/15.png,images/simple/9.png,images/simple/5.png,images/simple/3.png,images/simple/7.png","2","null","","200","390.1799999177456","","","","deviant","",""
"","null","html-keyboard-response","269","509644","0.0-20.0-0.27","SS1604610949174","","null","","","","","","","","","","","","<img src=images/blank.png width =""500"" height = ""500"" style=""border:5px solid black"">","","",""
"","13.084999984130263","stimulus-presentation","270","509873","0.0-20.0-1.27","SS1604610949174","<img src='images/complex/6.png' width ='500' height = '500' style='border:5px solid black'>","40","mixed_simple_deviant","images/complex/11.png","images/complex/6.png","images/simple/11.png,images/simple/16.png,images/simple/15.png,images/simple/9.png,images/simple/5.png,images/simple/3.png,images/simple/7.png","2","null","","200","213.08499998413026","","","","background","",""
"","null","html-keyboard-response","271","510919","0.0-20.0-0.28","SS1604610949174","","null","","","","","","","","","","","","<img src=images/blank.png width =""500"" height = ""500"" style=""border:5px solid black"">","","",""
"","66.83499994687736","stimulus-presentation","272","511200","0.0-20.0-1.28","SS1604610949174","<img src='images/complex/11.png' width ='500' height = '500' style='border:5px solid black'>","40","mixed_simple_deviant","images/complex/11.png","images/complex/6.png","images/simple/11.png,images/simple/16.png,images/simple/15.png,images/simple/9.png,images/simple/5.png,images/simple/3.png,images/simple/7.png","2","null","","200","266.83499994687736","","","","target","",""
"","null","html-keyboard-response","273","512148","0.0-20.0-0.29","SS1604610949174","","null","","","","","","","","","","","","<img src=images/blank.png width =""500"" height = ""500"" style=""border:5px solid black"">","","",""
"","82.70500006619841","stimulus-presentation","274","512448","0.0-20.0-1.29","SS1604610949174","<img src='images/complex/6.png' width ='500' height = '500' style='border:5px solid black'>","40","mixed_simple_deviant","images/complex/11.png","images/complex/6.png","images/simple/11.png,images/simple/16.png,images/simple/15.png,images/simple/9.png,images/simple/5.png,images/simple/3.png,images/simple/7.png","2","null","","200","282.7050000661984","","","","background","",""
"","null","html-keyboard-response","275","513757","0.0-20.0-0.30","SS1604610949174","","null","","","","","","","","","","","","<img src=images/blank.png width =""500"" height = ""500"" style=""border:5px solid black"">","","",""
"","325.0850000185892","stimulus-presentation","276","514297","0.0-20.0-1.30","SS1604610949174","<img src='images/complex/6.png' width ='500' height = '500' style='border:5px solid black'>","40","mixed_simple_deviant","images/complex/11.png","images/complex/6.png","images/simple/11.png,images/simple/16.png,images/simple/15.png,images/simple/9.png,images/simple/5.png,images/simple/3.png,images/simple/7.png","2","null","","200","525.0850000185892","","","","background","",""
"","null","html-keyboard-response","277","515436","0.0-20.0-0.31","SS1604610949174","","null","","","","","","","","","","","","<img src=images/blank.png width =""500"" height = ""500"" style=""border:5px solid black"">","","",""
"","123.6100000096485","stimulus-presentation","278","515784","0.0-20.0-1.31","SS1604610949174","<img src='images/complex/6.png' width ='500' height = '500' style='border:5px solid black'>","40","mixed_simple_deviant","images/complex/11.png","images/complex/6.png","images/simple/11.png,images/simple/16.png,images/simple/15.png,images/simple/9.png,images/simple/5.png,images/simple/3.png,images/simple/7.png","2","null","","200","323.6100000096485","","","","background","",""
"","null","html-keyboard-response","279","517006","0.0-20.0-0.32","SS1604610949174","","null","","","","","","","","","","","","<img src=images/blank.png width =""500"" height = ""500"" style=""border:5px solid black"">","","",""
"","132.6100000878796","stimulus-presentation","280","517353","0.0-20.0-1.32","SS1604610949174","<img src='images/complex/6.png' width ='500' height = '500' style='border:5px solid black'>","40","mixed_simple_deviant","images/complex/11.png","images/complex/6.png","images/simple/11.png,images/simple/16.png,images/simple/15.png,images/simple/9.png,images/simple/5.png,images/simple/3.png,images/simple/7.png","2","null","","200","332.6100000878796","","","","background","",""
"","null","html-keyboard-response","281","518200","0.0-20.0-0.33","SS1604610949174","","null","","","","","","","","","","","","<img src=images/blank.png width =""500"" height = ""500"" style=""border:5px solid black"">","","",""
"","225.8600000059232","stimulus-presentation","282","518640","0.0-20.0-1.33","SS1604610949174","<img src='images/complex/6.png' width ='500' height = '500' style='border:5px solid black'>","40","mixed_simple_deviant","images/complex/11.png","images/complex/6.png","images/simple/11.png,images/simple/16.png,images/simple/15.png,images/simple/9.png,images/simple/5.png,images/simple/3.png,images/simple/7.png","2","null","","200","425.8600000059232","","","","background","",""
"","null","html-keyboard-response","283","519571","0.0-20.0-0.34","SS1604610949174","","null","","","","","","","","","","","","<img src=images/blank.png width =""500"" height = ""500"" style=""border:5px solid black"">","","",""
"","133.78999999258667","stimulus-presentation","284","519920","0.0-20.0-1.34","SS1604610949174","<img src='images/complex/11.png' width ='500' height = '500' style='border:5px solid black'>","40","mixed_simple_deviant","images/complex/11.png","images/complex/6.png","images/simple/11.png,images/simple/16.png,images/simple/15.png,images/simple/9.png,images/simple/5.png,images/simple/3.png,images/simple/7.png","2","null","","200","333.7899999925867","","","","target","",""
"","null","html-keyboard-response","285","521059","0.0-20.0-0.35","SS1604610949174","","null","","","","","","","","","","","","<img src=images/blank.png width =""500"" height = ""500"" style=""border:5px solid black"">","","",""
