"view_history","rt","trial_type","trial_index","time_elapsed","internal_node_id","subject","trial_stimulus","key_press","task_type","task_target_stimulus","task_background_stimulus","task_deviant_stimuli","task_order_number","block_order_number","trial_order_number","minimum_viewing_duration","trial_looking_time","trial_pressed_space_bar","trial_space_bar_rt","stimulus","trial_stimulus_type","responses","question_order"
"[{""page_index"":0,""viewing_time"":1513.3500000229105}]","1513.5149999987334","instructions","0","1527","0.0-0.0","SS1604513963567","","","","","","","","","","","","","","","","",""
"[{""page_index"":0,""viewing_time"":6155.325000057928},{""page_index"":1,""viewing_time"":25427.93999996502},{""page_index"":2,""viewing_time"":5667.855000006966},{""page_index"":3,""viewing_time"":7546.179999946617},{""page_index"":4,""viewing_time"":6460.00500000082},{""page_index"":5,""viewing_time"":3404.1500000748783},{""page_index"":6,""viewing_time"":2193.540000007488},{""page_index"":7,""viewing_time"":1334.279999951832},{""page_index"":8,""viewing_time"":706.0500000370666}]","58895.44999995269","instructions","1","60424","0.0-1.0","SS1604513963567","","","","","","","","","","","","","","","","",""
"[{""page_index"":0,""viewing_time"":1543.4449999593198},{""page_index"":1,""viewing_time"":15095.910000032745},{""page_index"":2,""viewing_time"":1619.6399999316782}]","18259.149999939837","instructions","2","78684","0.0-2.0","SS1604513963567","","","","","","","","","","","","","","","","",""
"","3489.380000042729","practice-block","3","82376","0.0-3.0","SS1604513963567","<img src='images/practice/practice_background.jpeg' width ='500' height = '500' style='border:5px solid black'>","40","null","images/practice/practice_target.jpg","null","null","null","null","","200","3689.380000042729","","","","","",""
"","null","html-keyboard-response","4","83451","0.0-4.0","SS1604513963567","","null","","","","","","","","","","","","<img src=images/blank.png width =""500"" height = ""500"" style=""border:5px solid black"">","","",""
"","11603.340000030585","practice-block","5","95256","0.0-5.0","SS1604513963567","<img src='images/practice/practice_background.jpeg' width ='500' height = '500' style='border:5px solid black'>","40","null","images/practice/practice_target.jpg","null","null","null","null","","200","11803.340000030585","yes","629.3650000588968","","","",""
"","null","html-keyboard-response","6","96170","0.0-6.0","SS1604513963567","","null","","","","","","","","","","","","<img src=images/blank.png width =""500"" height = ""500"" style=""border:5px solid black"">","","",""
"","993.4449999127537","practice-block","7","97366","0.0-7.0","SS1604513963567","<img src='images/practice/practice_deviant.jpeg' width ='500' height = '500' style='border:5px solid black'>","40","null","images/practice/practice_target.jpg","null","null","null","null","","200","1193.4449999127537","","","","","",""
"","null","html-keyboard-response","8","98583","0.0-8.0","SS1604513963567","","null","","","","","","","","","","","","<img src=images/blank.png width =""500"" height = ""500"" style=""border:5px solid black"">","","",""
"","6141.339999972843","practice-block","9","104926","0.0-9.0-0.0","SS1604513963567","<img src='images/practice/practice_target.jpg' width ='500' height = '500' style='border:5px solid black'>","40","null","images/practice/practice_target.jpg","null","null","null","null","","200","6341.339999972843","yes","3247.209999943152","","","",""
"","null","html-keyboard-response","10","106218","0.0-10.0","SS1604513963567","","null","","","","","","","","","","","","<img src=images/blank.png width =""500"" height = ""500"" style=""border:5px solid black"">","","",""
"","1140.8799999626353","practice-block","11","107561","0.0-11.0","SS1604513963567","<img src='images/practice/practice_background.jpeg' width ='500' height = '500' style='border:5px solid black'>","40","null","images/practice/practice_target.jpg","null","null","null","null","","200","1340.8799999626353","","","","","",""
"[{""page_index"":0,""viewing_time"":6299}]","6300","task-instructions","12","113862","0.0-12.0","SS1604513963567","","","","","","","","","","","","","","","","",""
"[{""page_index"":0,""viewing_time"":2099.1800000192598},{""page_index"":1,""viewing_time"":4969.485000008717},{""page_index"":2,""viewing_time"":1983.5049998946488}]","9052.494999952614","instructions","13","122915","0.0-13.0","SS1604513963567","","","","","","","","","","","","","","","","",""
"","null","html-keyboard-response","14","123969","0.0-14.0-0.0","SS1604513963567","","null","","","","","","","","","","","","<img src=images/blank.png width =""500"" height = ""500"" style=""border:5px solid black"">","","",""
"","1730.3700000047684","stimulus-presentation","15","125902","0.0-14.0-1.0","SS1604513963567","<img src='images/simple/4.png' width ='500' height = '500' style='border:5px solid black'>","40","mixed_complex_deviant","images/simple/14.png","images/simple/4.png","images/complex/3.png,images/complex/4.png,images/complex/15.png,images/complex/7.png,images/complex/9.png,images/complex/18.png,images/complex/1.png","0","null","","200","1930.3700000047684","","","","background","",""
"","null","html-keyboard-response","16","126862","0.0-14.0-0.1","SS1604513963567","","null","","","","","","","","","","","","<img src=images/blank.png width =""500"" height = ""500"" style=""border:5px solid black"">","","",""
"","236.47000000346452","stimulus-presentation","17","127301","0.0-14.0-1.1","SS1604513963567","<img src='images/simple/4.png' width ='500' height = '500' style='border:5px solid black'>","40","mixed_complex_deviant","images/simple/14.png","images/simple/4.png","images/complex/3.png,images/complex/4.png,images/complex/15.png,images/complex/7.png,images/complex/9.png,images/complex/18.png,images/complex/1.png","0","null","","200","436.4700000034645","","","","background","",""
"","null","html-keyboard-response","18","128160","0.0-14.0-0.2","SS1604513963567","","null","","","","","","","","","","","","<img src=images/blank.png width =""500"" height = ""500"" style=""border:5px solid black"">","","",""
"","194.0050000557676","stimulus-presentation","19","128557","0.0-14.0-1.2","SS1604513963567","<img src='images/simple/4.png' width ='500' height = '500' style='border:5px solid black'>","40","mixed_complex_deviant","images/simple/14.png","images/simple/4.png","images/complex/3.png,images/complex/4.png,images/complex/15.png,images/complex/7.png,images/complex/9.png,images/complex/18.png,images/complex/1.png","0","null","","200","394.0050000557676","","","","background","",""
"","null","html-keyboard-response","20","129574","0.0-14.0-0.3","SS1604513963567","","null","","","","","","","","","","","","<img src=images/blank.png width =""500"" height = ""500"" style=""border:5px solid black"">","","",""
"","449.07500001136214","stimulus-presentation","21","130226","0.0-14.0-1.3","SS1604513963567","<img src='images/complex/4.png' width ='500' height = '500' style='border:5px solid black'>","40","mixed_complex_deviant","images/simple/14.png","images/simple/4.png","images/complex/3.png,images/complex/4.png,images/complex/15.png,images/complex/7.png,images/complex/9.png,images/complex/18.png,images/complex/1.png","0","null","","200","649.0750000113621","","","","deviant","",""
"","null","html-keyboard-response","22","131401","0.0-14.0-0.4","SS1604513963567","","null","","","","","","","","","","","","<img src=images/blank.png width =""500"" height = ""500"" style=""border:5px solid black"">","","",""
"","231.99000000022352","stimulus-presentation","23","131836","0.0-14.0-1.4","SS1604513963567","<img src='images/simple/4.png' width ='500' height = '500' style='border:5px solid black'>","40","mixed_complex_deviant","images/simple/14.png","images/simple/4.png","images/complex/3.png,images/complex/4.png,images/complex/15.png,images/complex/7.png,images/complex/9.png,images/complex/18.png,images/complex/1.png","0","null","","200","431.9900000002235","","","","background","",""
"","null","html-keyboard-response","24","133100","0.0-14.0-0.5","SS1604513963567","","null","","","","","","","","","","","","<img src=images/blank.png width =""500"" height = ""500"" style=""border:5px solid black"">","","",""
"","190.35000004805624","stimulus-presentation","25","133493","0.0-14.0-1.5","SS1604513963567","<img src='images/simple/4.png' width ='500' height = '500' style='border:5px solid black'>","40","mixed_complex_deviant","images/simple/14.png","images/simple/4.png","images/complex/3.png,images/complex/4.png,images/complex/15.png,images/complex/7.png,images/complex/9.png,images/complex/18.png,images/complex/1.png","0","null","","200","390.35000004805624","","","","background","",""
"","null","html-keyboard-response","26","134324","0.0-14.0-0.6","SS1604513963567","","null","","","","","","","","","","","","<img src=images/blank.png width =""500"" height = ""500"" style=""border:5px solid black"">","","",""
"","9653.165000025183","stimulus-presentation","27","144179","0.0-14.0-1.6","SS1604513963567","<img src='images/simple/14.png' width ='500' height = '500' style='border:5px solid black'>","40","mixed_complex_deviant","images/simple/14.png","images/simple/4.png","images/complex/3.png,images/complex/4.png,images/complex/15.png,images/complex/7.png,images/complex/9.png,images/complex/18.png,images/complex/1.png","0","null","","200","9853.165000025183","yes","721.3750000810251","","target","",""
"","null","html-keyboard-response","28","145242","0.0-14.0-0.7","SS1604513963567","","null","","","","","","","","","","","","<img src=images/blank.png width =""500"" height = ""500"" style=""border:5px solid black"">","","",""
"","253.98499995935708","stimulus-presentation","29","145698","0.0-14.0-1.7","SS1604513963567","<img src='images/simple/4.png' width ='500' height = '500' style='border:5px solid black'>","40","mixed_complex_deviant","images/simple/14.png","images/simple/4.png","images/complex/3.png,images/complex/4.png,images/complex/15.png,images/complex/7.png,images/complex/9.png,images/complex/18.png,images/complex/1.png","0","null","","200","453.9849999593571","","","","background","",""
"","null","html-keyboard-response","30","146805","0.0-14.0-0.8","SS1604513963567","","null","","","","","","","","","","","","<img src=images/blank.png width =""500"" height = ""500"" style=""border:5px solid black"">","","",""
"","2579.2699999874458","stimulus-presentation","31","149587","0.0-14.0-1.8","SS1604513963567","<img src='images/simple/14.png' width ='500' height = '500' style='border:5px solid black'>","40","mixed_complex_deviant","images/simple/14.png","images/simple/4.png","images/complex/3.png,images/complex/4.png,images/complex/15.png,images/complex/7.png,images/complex/9.png,images/complex/18.png,images/complex/1.png","0","null","","200","2779.2699999874458","yes","781.0899999458343","","target","",""
"","null","html-keyboard-response","32","150838","0.0-14.0-0.9","SS1604513963567","","null","","","","","","","","","","","","<img src=images/blank.png width =""500"" height = ""500"" style=""border:5px solid black"">","","",""
"","465.9100000280887","stimulus-presentation","33","151506","0.0-14.0-1.9","SS1604513963567","<img src='images/simple/4.png' width ='500' height = '500' style='border:5px solid black'>","40","mixed_complex_deviant","images/simple/14.png","images/simple/4.png","images/complex/3.png,images/complex/4.png,images/complex/15.png,images/complex/7.png,images/complex/9.png,images/complex/18.png,images/complex/1.png","0","null","","200","665.9100000280887","","","","background","",""
"","null","html-keyboard-response","34","152333","0.0-14.0-0.10","SS1604513963567","","null","","","","","","","","","","","","<img src=images/blank.png width =""500"" height = ""500"" style=""border:5px solid black"">","","",""
"","2057.215000037104","stimulus-presentation","35","154593","0.0-14.0-1.10","SS1604513963567","<img src='images/simple/14.png' width ='500' height = '500' style='border:5px solid black'>","40","mixed_complex_deviant","images/simple/14.png","images/simple/4.png","images/complex/3.png,images/complex/4.png,images/complex/15.png,images/complex/7.png,images/complex/9.png,images/complex/18.png,images/complex/1.png","0","null","","200","2257.215000037104","yes","816.6300000157207","","target","",""
"","null","html-keyboard-response","36","155645","0.0-14.0-0.11","SS1604513963567","","null","","","","","","","","","","","","<img src=images/blank.png width =""500"" height = ""500"" style=""border:5px solid black"">","","",""
"","345.70499998517334","stimulus-presentation","37","156193","0.0-14.0-1.11","SS1604513963567","<img src='images/simple/4.png' width ='500' height = '500' style='border:5px solid black'>","40","mixed_complex_deviant","images/simple/14.png","images/simple/4.png","images/complex/3.png,images/complex/4.png,images/complex/15.png,images/complex/7.png,images/complex/9.png,images/complex/18.png,images/complex/1.png","0","null","","200","545.7049999851733","","","","background","",""
"","null","html-keyboard-response","38","156995","0.0-14.0-0.12","SS1604513963567","","null","","","","","","","","","","","","<img src=images/blank.png width =""500"" height = ""500"" style=""border:5px solid black"">","","",""
"","186.7399999173358","stimulus-presentation","39","157384","0.0-14.0-1.12","SS1604513963567","<img src='images/complex/3.png' width ='500' height = '500' style='border:5px solid black'>","40","mixed_complex_deviant","images/simple/14.png","images/simple/4.png","images/complex/3.png,images/complex/4.png,images/complex/15.png,images/complex/7.png,images/complex/9.png,images/complex/18.png,images/complex/1.png","0","null","","200","386.7399999173358","","","","deviant","",""
"","null","html-keyboard-response","40","158625","0.0-14.0-0.13","SS1604513963567","","null","","","","","","","","","","","","<img src=images/blank.png width =""500"" height = ""500"" style=""border:5px solid black"">","","",""
"","293.65500004496425","stimulus-presentation","41","159122","0.0-14.0-1.13","SS1604513963567","<img src='images/simple/4.png' width ='500' height = '500' style='border:5px solid black'>","40","mixed_complex_deviant","images/simple/14.png","images/simple/4.png","images/complex/3.png,images/complex/4.png,images/complex/15.png,images/complex/7.png,images/complex/9.png,images/complex/18.png,images/complex/1.png","0","null","","200","493.65500004496425","","","","background","",""
"","null","html-keyboard-response","42","160324","0.0-14.0-0.14","SS1604513963567","","null","","","","","","","","","","","","<img src=images/blank.png width =""500"" height = ""500"" style=""border:5px solid black"">","","",""
"","478.39000006206334","stimulus-presentation","43","161005","0.0-14.0-1.14","SS1604513963567","<img src='images/simple/4.png' width ='500' height = '500' style='border:5px solid black'>","40","mixed_complex_deviant","images/simple/14.png","images/simple/4.png","images/complex/3.png,images/complex/4.png,images/complex/15.png,images/complex/7.png,images/complex/9.png,images/complex/18.png,images/complex/1.png","0","null","","200","678.3900000620633","","","","background","",""
"","null","html-keyboard-response","44","161926","0.0-14.0-0.15","SS1604513963567","","null","","","","","","","","","","","","<img src=images/blank.png width =""500"" height = ""500"" style=""border:5px solid black"">","","",""
"","2120.939999935217","stimulus-presentation","45","164251","0.0-14.0-1.15","SS1604513963567","<img src='images/simple/14.png' width ='500' height = '500' style='border:5px solid black'>","40","mixed_complex_deviant","images/simple/14.png","images/simple/4.png","images/complex/3.png,images/complex/4.png,images/complex/15.png,images/complex/7.png,images/complex/9.png,images/complex/18.png,images/complex/1.png","0","null","","200","2320.939999935217","yes","244.6849999250844","","target","",""
"","null","html-keyboard-response","46","165160","0.0-14.0-0.16","SS1604513963567","","null","","","","","","","","","","","","<img src=images/blank.png width =""500"" height = ""500"" style=""border:5px solid black"">","","",""
"","349.7200000565499","stimulus-presentation","47","165712","0.0-14.0-1.16","SS1604513963567","<img src='images/simple/4.png' width ='500' height = '500' style='border:5px solid black'>","40","mixed_complex_deviant","images/simple/14.png","images/simple/4.png","images/complex/3.png,images/complex/4.png,images/complex/15.png,images/complex/7.png,images/complex/9.png,images/complex/18.png,images/complex/1.png","0","null","","200","549.7200000565499","","","","background","",""
"","null","html-keyboard-response","48","166551","0.0-14.0-0.17","SS1604513963567","","null","","","","","","","","","","","","<img src=images/blank.png width =""500"" height = ""500"" style=""border:5px solid black"">","","",""
"","498.3400000492111","stimulus-presentation","49","167252","0.0-14.0-1.17","SS1604513963567","<img src='images/simple/4.png' width ='500' height = '500' style='border:5px solid black'>","40","mixed_complex_deviant","images/simple/14.png","images/simple/4.png","images/complex/3.png,images/complex/4.png,images/complex/15.png,images/complex/7.png,images/complex/9.png,images/complex/18.png,images/complex/1.png","0","null","","200","698.3400000492111","","","","background","",""
"","null","html-keyboard-response","50","168073","0.0-14.0-0.18","SS1604513963567","","null","","","","","","","","","","","","<img src=images/blank.png width =""500"" height = ""500"" style=""border:5px solid black"">","","",""
"","298.8950000144541","stimulus-presentation","51","168576","0.0-14.0-1.18","SS1604513963567","<img src='images/simple/4.png' width ='500' height = '500' style='border:5px solid black'>","40","mixed_complex_deviant","images/simple/14.png","images/simple/4.png","images/complex/3.png,images/complex/4.png,images/complex/15.png,images/complex/7.png,images/complex/9.png,images/complex/18.png,images/complex/1.png","0","null","","200","498.8950000144541","","","","background","",""
"","null","html-keyboard-response","52","169736","0.0-14.0-0.19","SS1604513963567","","null","","","","","","","","","","","","<img src=images/blank.png width =""500"" height = ""500"" style=""border:5px solid black"">","","",""
"","1441.069999942556","stimulus-presentation","53","171380","0.0-14.0-1.19","SS1604513963567","<img src='images/simple/14.png' width ='500' height = '500' style='border:5px solid black'>","40","mixed_complex_deviant","images/simple/14.png","images/simple/4.png","images/complex/3.png,images/complex/4.png,images/complex/15.png,images/complex/7.png,images/complex/9.png,images/complex/18.png,images/complex/1.png","0","null","","200","1641.069999942556","yes","364.9250000016764","","target","",""
"","null","html-keyboard-response","54","172488","0.0-14.0-0.20","SS1604513963567","","null","","","","","","","","","","","","<img src=images/blank.png width =""500"" height = ""500"" style=""border:5px solid black"">","","",""
"","225.8750000037253","stimulus-presentation","55","172917","0.0-14.0-1.20","SS1604513963567","<img src='images/simple/4.png' width ='500' height = '500' style='border:5px solid black'>","40","mixed_complex_deviant","images/simple/14.png","images/simple/4.png","images/complex/3.png,images/complex/4.png,images/complex/15.png,images/complex/7.png,images/complex/9.png,images/complex/18.png,images/complex/1.png","0","null","","200","425.8750000037253","","","","background","",""
"","null","html-keyboard-response","56","173864","0.0-14.0-0.21","SS1604513963567","","null","","","","","","","","","","","","<img src=images/blank.png width =""500"" height = ""500"" style=""border:5px solid black"">","","",""
"","219.00499996263534","stimulus-presentation","57","174286","0.0-14.0-1.21","SS1604513963567","<img src='images/simple/4.png' width ='500' height = '500' style='border:5px solid black'>","40","mixed_complex_deviant","images/simple/14.png","images/simple/4.png","images/complex/3.png,images/complex/4.png,images/complex/15.png,images/complex/7.png,images/complex/9.png,images/complex/18.png,images/complex/1.png","0","null","","200","419.00499996263534","","","","background","",""
"","null","html-keyboard-response","58","175204","0.0-14.0-0.22","SS1604513963567","","null","","","","","","","","","","","","<img src=images/blank.png width =""500"" height = ""500"" style=""border:5px solid black"">","","",""
"","2359.3549999641255","stimulus-presentation","59","177766","0.0-14.0-1.22","SS1604513963567","<img src='images/simple/14.png' width ='500' height = '500' style='border:5px solid black'>","40","mixed_complex_deviant","images/simple/14.png","images/simple/4.png","images/complex/3.png,images/complex/4.png,images/complex/15.png,images/complex/7.png,images/complex/9.png,images/complex/18.png,images/complex/1.png","0","null","","200","2559.3549999641255","yes","387.33000005595386","","target","",""
"","null","html-keyboard-response","60","178958","0.0-14.0-0.23","SS1604513963567","","null","","","","","","","","","","","","<img src=images/blank.png width =""500"" height = ""500"" style=""border:5px solid black"">","","",""
"","787.1649999869987","stimulus-presentation","61","179947","0.0-14.0-1.23","SS1604513963567","<img src='images/simple/4.png' width ='500' height = '500' style='border:5px solid black'>","40","mixed_complex_deviant","images/simple/14.png","images/simple/4.png","images/complex/3.png,images/complex/4.png,images/complex/15.png,images/complex/7.png,images/complex/9.png,images/complex/18.png,images/complex/1.png","0","null","","200","987.1649999869987","","","","background","",""
"","null","html-keyboard-response","62","181243","0.0-14.0-0.24","SS1604513963567","","null","","","","","","","","","","","","<img src=images/blank.png width =""500"" height = ""500"" style=""border:5px solid black"">","","",""
"","521.2899999460205","stimulus-presentation","63","181967","0.0-14.0-1.24","SS1604513963567","<img src='images/complex/15.png' width ='500' height = '500' style='border:5px solid black'>","40","mixed_complex_deviant","images/simple/14.png","images/simple/4.png","images/complex/3.png,images/complex/4.png,images/complex/15.png,images/complex/7.png,images/complex/9.png,images/complex/18.png,images/complex/1.png","0","null","","200","721.2899999460205","","","","deviant","",""
"","null","html-keyboard-response","64","183221","0.0-14.0-0.25","SS1604513963567","","null","","","","","","","","","","","","<img src=images/blank.png width =""500"" height = ""500"" style=""border:5px solid black"">","","",""
"","318.51500004995614","stimulus-presentation","65","183742","0.0-14.0-1.25","SS1604513963567","<img src='images/simple/4.png' width ='500' height = '500' style='border:5px solid black'>","40","mixed_complex_deviant","images/simple/14.png","images/simple/4.png","images/complex/3.png,images/complex/4.png,images/complex/15.png,images/complex/7.png,images/complex/9.png,images/complex/18.png,images/complex/1.png","0","null","","200","518.5150000499561","","","","background","",""
"","null","html-keyboard-response","66","184865","0.0-14.0-0.26","SS1604513963567","","null","","","","","","","","","","","","<img src=images/blank.png width =""500"" height = ""500"" style=""border:5px solid black"">","","",""
"","207.82500004861504","stimulus-presentation","67","185275","0.0-14.0-1.26","SS1604513963567","<img src='images/simple/4.png' width ='500' height = '500' style='border:5px solid black'>","40","mixed_complex_deviant","images/simple/14.png","images/simple/4.png","images/complex/3.png,images/complex/4.png,images/complex/15.png,images/complex/7.png,images/complex/9.png,images/complex/18.png,images/complex/1.png","0","null","","200","407.82500004861504","","","","background","",""
"","null","html-keyboard-response","68","186406","0.0-14.0-0.27","SS1604513963567","","null","","","","","","","","","","","","<img src=images/blank.png width =""500"" height = ""500"" style=""border:5px solid black"">","","",""
"","330.2449999609962","stimulus-presentation","69","186939","0.0-14.0-1.27","SS1604513963567","<img src='images/simple/4.png' width ='500' height = '500' style='border:5px solid black'>","40","mixed_complex_deviant","images/simple/14.png","images/simple/4.png","images/complex/3.png,images/complex/4.png,images/complex/15.png,images/complex/7.png,images/complex/9.png,images/complex/18.png,images/complex/1.png","0","null","","200","530.2449999609962","","","","background","",""
"","null","html-keyboard-response","70","187875","0.0-14.0-0.28","SS1604513963567","","null","","","","","","","","","","","","<img src=images/blank.png width =""500"" height = ""500"" style=""border:5px solid black"">","","",""
"","217.25499990861863","stimulus-presentation","71","188295","0.0-14.0-1.28","SS1604513963567","<img src='images/simple/4.png' width ='500' height = '500' style='border:5px solid black'>","40","mixed_complex_deviant","images/simple/14.png","images/simple/4.png","images/complex/3.png,images/complex/4.png,images/complex/15.png,images/complex/7.png,images/complex/9.png,images/complex/18.png,images/complex/1.png","0","null","","200","417.25499990861863","","","","background","",""
"","null","html-keyboard-response","72","189476","0.0-14.0-0.29","SS1604513963567","","null","","","","","","","","","","","","<img src=images/blank.png width =""500"" height = ""500"" style=""border:5px solid black"">","","",""
"","189.36499999836087","stimulus-presentation","73","189868","0.0-14.0-1.29","SS1604513963567","<img src='images/simple/4.png' width ='500' height = '500' style='border:5px solid black'>","40","mixed_complex_deviant","images/simple/14.png","images/simple/4.png","images/complex/3.png,images/complex/4.png,images/complex/15.png,images/complex/7.png,images/complex/9.png,images/complex/18.png,images/complex/1.png","0","null","","200","389.3649999983609","","","","background","",""
"","null","html-keyboard-response","74","190853","0.0-14.0-0.30","SS1604513963567","","null","","","","","","","","","","","","<img src=images/blank.png width =""500"" height = ""500"" style=""border:5px solid black"">","","",""
"","1388.4600000455976","stimulus-presentation","75","192444","0.0-14.0-1.30","SS1604513963567","<img src='images/simple/14.png' width ='500' height = '500' style='border:5px solid black'>","40","mixed_complex_deviant","images/simple/14.png","images/simple/4.png","images/complex/3.png,images/complex/4.png,images/complex/15.png,images/complex/7.png,images/complex/9.png,images/complex/18.png,images/complex/1.png","0","null","","200","1588.4600000455976","yes","288.6850000359118","","target","",""
"","null","html-keyboard-response","76","193651","0.0-14.0-0.31","SS1604513963567","","null","","","","","","","","","","","","<img src=images/blank.png width =""500"" height = ""500"" style=""border:5px solid black"">","","",""
"","280.1699999254197","stimulus-presentation","77","194135","0.0-14.0-1.31","SS1604513963567","<img src='images/simple/4.png' width ='500' height = '500' style='border:5px solid black'>","40","mixed_complex_deviant","images/simple/14.png","images/simple/4.png","images/complex/3.png,images/complex/4.png,images/complex/15.png,images/complex/7.png,images/complex/9.png,images/complex/18.png,images/complex/1.png","0","null","","200","480.1699999254197","","","","background","",""
"","null","html-keyboard-response","78","195349","0.0-14.0-0.32","SS1604513963567","","null","","","","","","","","","","","","<img src=images/blank.png width =""500"" height = ""500"" style=""border:5px solid black"">","","",""
"","1056.8949999287724","stimulus-presentation","79","196608","0.0-14.0-1.32","SS1604513963567","<img src='images/complex/18.png' width ='500' height = '500' style='border:5px solid black'>","40","mixed_complex_deviant","images/simple/14.png","images/simple/4.png","images/complex/3.png,images/complex/4.png,images/complex/15.png,images/complex/7.png,images/complex/9.png,images/complex/18.png,images/complex/1.png","0","null","","200","1256.8949999287724","","","","deviant","",""
"","null","html-keyboard-response","80","197861","0.0-14.0-0.33","SS1604513963567","","null","","","","","","","","","","","","<img src=images/blank.png width =""500"" height = ""500"" style=""border:5px solid black"">","","",""
"","169.65000005438924","stimulus-presentation","81","198233","0.0-14.0-1.33","SS1604513963567","<img src='images/simple/4.png' width ='500' height = '500' style='border:5px solid black'>","40","mixed_complex_deviant","images/simple/14.png","images/simple/4.png","images/complex/3.png,images/complex/4.png,images/complex/15.png,images/complex/7.png,images/complex/9.png,images/complex/18.png,images/complex/1.png","0","null","","200","369.65000005438924","","","","background","",""
"","null","html-keyboard-response","82","199065","0.0-14.0-0.34","SS1604513963567","","null","","","","","","","","","","","","<img src=images/blank.png width =""500"" height = ""500"" style=""border:5px solid black"">","","",""
"","187.1149999788031","stimulus-presentation","83","199455","0.0-14.0-1.34","SS1604513963567","<img src='images/simple/4.png' width ='500' height = '500' style='border:5px solid black'>","40","mixed_complex_deviant","images/simple/14.png","images/simple/4.png","images/complex/3.png,images/complex/4.png,images/complex/15.png,images/complex/7.png,images/complex/9.png,images/complex/18.png,images/complex/1.png","0","null","","200","387.1149999788031","","","","background","",""
"","null","html-keyboard-response","84","200437","0.0-14.0-0.35","SS1604513963567","","null","","","","","","","","","","","","<img src=images/blank.png width =""500"" height = ""500"" style=""border:5px solid black"">","","",""
"","234.45999994874","stimulus-presentation","85","200876","0.0-14.0-1.35","SS1604513963567","<img src='images/simple/4.png' width ='500' height = '500' style='border:5px solid black'>","40","mixed_complex_deviant","images/simple/14.png","images/simple/4.png","images/complex/3.png,images/complex/4.png,images/complex/15.png,images/complex/7.png,images/complex/9.png,images/complex/18.png,images/complex/1.png","0","null","","200","434.45999994874","","","","background","",""
"","null","html-keyboard-response","86","201924","0.0-14.0-0.36","SS1604513963567","","null","","","","","","","","","","","","<img src=images/blank.png width =""500"" height = ""500"" style=""border:5px solid black"">","","",""
"","159.4399999594316","stimulus-presentation","87","202287","0.0-14.0-1.36","SS1604513963567","<img src='images/simple/4.png' width ='500' height = '500' style='border:5px solid black'>","40","mixed_complex_deviant","images/simple/14.png","images/simple/4.png","images/complex/3.png,images/complex/4.png,images/complex/15.png,images/complex/7.png,images/complex/9.png,images/complex/18.png,images/complex/1.png","0","null","","200","359.4399999594316","","","","background","",""
"","null","html-keyboard-response","88","203335","0.0-14.0-0.37","SS1604513963567","","null","","","","","","","","","","","","<img src=images/blank.png width =""500"" height = ""500"" style=""border:5px solid black"">","","",""
"","431.74499995075166","stimulus-presentation","89","203970","0.0-14.0-1.37","SS1604513963567","<img src='images/complex/7.png' width ='500' height = '500' style='border:5px solid black'>","40","mixed_complex_deviant","images/simple/14.png","images/simple/4.png","images/complex/3.png,images/complex/4.png,images/complex/15.png,images/complex/7.png,images/complex/9.png,images/complex/18.png,images/complex/1.png","0","null","","200","631.7449999507517","","","","deviant","",""
"","null","html-keyboard-response","90","204872","0.0-14.0-0.38","SS1604513963567","","null","","","","","","","","","","","","<img src=images/blank.png width =""500"" height = ""500"" style=""border:5px solid black"">","","",""
"","239.14000007789582","stimulus-presentation","91","205315","0.0-14.0-1.38","SS1604513963567","<img src='images/simple/4.png' width ='500' height = '500' style='border:5px solid black'>","40","mixed_complex_deviant","images/simple/14.png","images/simple/4.png","images/complex/3.png,images/complex/4.png,images/complex/15.png,images/complex/7.png,images/complex/9.png,images/complex/18.png,images/complex/1.png","0","null","","200","439.1400000778958","","","","background","",""
"","null","html-keyboard-response","92","206187","0.0-14.0-0.39","SS1604513963567","","null","","","","","","","","","","","","<img src=images/blank.png width =""500"" height = ""500"" style=""border:5px solid black"">","","",""
"","191.55500002671033","stimulus-presentation","93","206582","0.0-14.0-1.39","SS1604513963567","<img src='images/simple/4.png' width ='500' height = '500' style='border:5px solid black'>","40","mixed_complex_deviant","images/simple/14.png","images/simple/4.png","images/complex/3.png,images/complex/4.png,images/complex/15.png,images/complex/7.png,images/complex/9.png,images/complex/18.png,images/complex/1.png","0","null","","200","391.55500002671033","","","","background","",""
"","null","html-keyboard-response","94","207735","0.0-14.0-0.40","SS1604513963567","","null","","","","","","","","","","","","<img src=images/blank.png width =""500"" height = ""500"" style=""border:5px solid black"">","","",""
"","309.8549999995157","stimulus-presentation","95","208248","0.0-14.0-1.40","SS1604513963567","<img src='images/simple/4.png' width ='500' height = '500' style='border:5px solid black'>","40","mixed_complex_deviant","images/simple/14.png","images/simple/4.png","images/complex/3.png,images/complex/4.png,images/complex/15.png,images/complex/7.png,images/complex/9.png,images/complex/18.png,images/complex/1.png","0","null","","200","509.8549999995157","","","","background","",""
"","null","html-keyboard-response","96","209090","0.0-14.0-0.41","SS1604513963567","","null","","","","","","","","","","","","<img src=images/blank.png width =""500"" height = ""500"" style=""border:5px solid black"">","","",""
"","570.7649999530986","stimulus-presentation","97","209864","0.0-14.0-1.41","SS1604513963567","<img src='images/complex/9.png' width ='500' height = '500' style='border:5px solid black'>","40","mixed_complex_deviant","images/simple/14.png","images/simple/4.png","images/complex/3.png,images/complex/4.png,images/complex/15.png,images/complex/7.png,images/complex/9.png,images/complex/18.png,images/complex/1.png","0","null","","200","770.7649999530986","","","","deviant","",""
"","null","html-keyboard-response","98","211058","0.0-14.0-0.42","SS1604513963567","","null","","","","","","","","","","","","<img src=images/blank.png width =""500"" height = ""500"" style=""border:5px solid black"">","","",""
"","192.0549999922514","stimulus-presentation","99","211453","0.0-14.0-1.42","SS1604513963567","<img src='images/simple/4.png' width ='500' height = '500' style='border:5px solid black'>","40","mixed_complex_deviant","images/simple/14.png","images/simple/4.png","images/complex/3.png,images/complex/4.png,images/complex/15.png,images/complex/7.png,images/complex/9.png,images/complex/18.png,images/complex/1.png","0","null","","200","392.0549999922514","","","","background","",""
"","null","html-keyboard-response","100","212621","0.0-14.0-0.43","SS1604513963567","","null","","","","","","","","","","","","<img src=images/blank.png width =""500"" height = ""500"" style=""border:5px solid black"">","","",""
"","166.86500003561378","stimulus-presentation","101","212990","0.0-14.0-1.43","SS1604513963567","<img src='images/simple/4.png' width ='500' height = '500' style='border:5px solid black'>","40","mixed_complex_deviant","images/simple/14.png","images/simple/4.png","images/complex/3.png,images/complex/4.png,images/complex/15.png,images/complex/7.png,images/complex/9.png,images/complex/18.png,images/complex/1.png","0","null","","200","366.8650000356138","","","","background","",""
"","null","html-keyboard-response","102","214260","0.0-14.0-0.44","SS1604513963567","","null","","","","","","","","","","","","<img src=images/blank.png width =""500"" height = ""500"" style=""border:5px solid black"">","","",""
"","155.58500005863607","stimulus-presentation","103","214620","0.0-14.0-1.44","SS1604513963567","<img src='images/simple/4.png' width ='500' height = '500' style='border:5px solid black'>","40","mixed_complex_deviant","images/simple/14.png","images/simple/4.png","images/complex/3.png,images/complex/4.png,images/complex/15.png,images/complex/7.png,images/complex/9.png,images/complex/18.png,images/complex/1.png","0","null","","200","355.58500005863607","","","","background","",""
"","null","html-keyboard-response","104","215608","0.0-14.0-0.45","SS1604513963567","","null","","","","","","","","","","","","<img src=images/blank.png width =""500"" height = ""500"" style=""border:5px solid black"">","","",""
"","432.5249999528751","stimulus-presentation","105","216244","0.0-14.0-1.45","SS1604513963567","<img src='images/complex/1.png' width ='500' height = '500' style='border:5px solid black'>","40","mixed_complex_deviant","images/simple/14.png","images/simple/4.png","images/complex/3.png,images/complex/4.png,images/complex/15.png,images/complex/7.png,images/complex/9.png,images/complex/18.png,images/complex/1.png","0","null","","200","632.5249999528751","","","","deviant","",""
"","null","html-keyboard-response","106","217248","0.0-14.0-0.46","SS1604513963567","","null","","","","","","","","","","","","<img src=images/blank.png width =""500"" height = ""500"" style=""border:5px solid black"">","","",""
"","210.94499994069338","stimulus-presentation","107","217663","0.0-14.0-1.46","SS1604513963567","<img src='images/simple/4.png' width ='500' height = '500' style='border:5px solid black'>","40","mixed_complex_deviant","images/simple/14.png","images/simple/4.png","images/complex/3.png,images/complex/4.png,images/complex/15.png,images/complex/7.png,images/complex/9.png,images/complex/18.png,images/complex/1.png","0","null","","200","410.9449999406934","","","","background","",""
"","null","html-keyboard-response","108","218910","0.0-14.0-0.47","SS1604513963567","","null","","","","","","","","","","","","<img src=images/blank.png width =""500"" height = ""500"" style=""border:5px solid black"">","","",""
"","244.98999991919845","stimulus-presentation","109","219357","0.0-14.0-1.47","SS1604513963567","<img src='images/simple/4.png' width ='500' height = '500' style='border:5px solid black'>","40","mixed_complex_deviant","images/simple/14.png","images/simple/4.png","images/complex/3.png,images/complex/4.png,images/complex/15.png,images/complex/7.png,images/complex/9.png,images/complex/18.png,images/complex/1.png","0","null","","200","444.98999991919845","","","","background","",""
"","null","html-keyboard-response","110","220301","0.0-14.0-0.48","SS1604513963567","","null","","","","","","","","","","","","<img src=images/blank.png width =""500"" height = ""500"" style=""border:5px solid black"">","","",""
"","277.39499998278916","stimulus-presentation","111","220781","0.0-14.0-1.48","SS1604513963567","<img src='images/simple/4.png' width ='500' height = '500' style='border:5px solid black'>","40","mixed_complex_deviant","images/simple/14.png","images/simple/4.png","images/complex/3.png,images/complex/4.png,images/complex/15.png,images/complex/7.png,images/complex/9.png,images/complex/18.png,images/complex/1.png","0","null","","200","477.39499998278916","","","","background","",""
"[{""page_index"":0,""viewing_time"":6111}]","6111","task-instructions","112","226894","0.0-15.0","SS1604513963567","","","","","","","","","","","","","","","","",""
"[{""page_index"":0,""viewing_time"":3324.320000014268},{""page_index"":1,""viewing_time"":5162.2300000162795},{""page_index"":2,""viewing_time"":1883.4949999582022}]","10370.175000047311","instructions","113","237265","0.0-16.0","SS1604513963567","","","","","","","","","","","","","","","","",""
"","null","html-keyboard-response","114","238518","0.0-17.0-0.0","SS1604513963567","","null","","","","","","","","","","","","<img src=images/blank.png width =""500"" height = ""500"" style=""border:5px solid black"">","","",""
"","788.730000029318","stimulus-presentation","115","239509","0.0-17.0-1.0","SS1604513963567","<img src='images/simple/17.png' width ='500' height = '500' style='border:5px solid black'>","40","all_simple","images/simple/10.png","images/simple/17.png","images/simple/15.png,images/simple/11.png,images/simple/3.png,images/simple/16.png,images/simple/2.png,images/simple/6.png,images/simple/9.png","1","null","","200","988.730000029318","","","","background","",""
"","null","html-keyboard-response","116","240604","0.0-17.0-0.1","SS1604513963567","","null","","","","","","","","","","","","<img src=images/blank.png width =""500"" height = ""500"" style=""border:5px solid black"">","","",""
"","259.6550000598654","stimulus-presentation","117","241066","0.0-17.0-1.1","SS1604513963567","<img src='images/simple/17.png' width ='500' height = '500' style='border:5px solid black'>","40","all_simple","images/simple/10.png","images/simple/17.png","images/simple/15.png,images/simple/11.png,images/simple/3.png,images/simple/16.png,images/simple/2.png,images/simple/6.png,images/simple/9.png","1","null","","200","459.6550000598654","","","","background","",""
"","null","html-keyboard-response","118","242278","0.0-17.0-0.2","SS1604513963567","","null","","","","","","","","","","","","<img src=images/blank.png width =""500"" height = ""500"" style=""border:5px solid black"">","","",""
"","353.7849999265745","stimulus-presentation","119","242834","0.0-17.0-1.2","SS1604513963567","<img src='images/simple/17.png' width ='500' height = '500' style='border:5px solid black'>","40","all_simple","images/simple/10.png","images/simple/17.png","images/simple/15.png,images/simple/11.png,images/simple/3.png,images/simple/16.png,images/simple/2.png,images/simple/6.png,images/simple/9.png","1","null","","200","553.7849999265745","","","","background","",""
"","null","html-keyboard-response","120","243756","0.0-17.0-0.3","SS1604513963567","","null","","","","","","","","","","","","<img src=images/blank.png width =""500"" height = ""500"" style=""border:5px solid black"">","","",""
"","367.0799999963492","stimulus-presentation","121","244326","0.0-17.0-1.3","SS1604513963567","<img src='images/simple/17.png' width ='500' height = '500' style='border:5px solid black'>","40","all_simple","images/simple/10.png","images/simple/17.png","images/simple/15.png,images/simple/11.png,images/simple/3.png,images/simple/16.png,images/simple/2.png,images/simple/6.png,images/simple/9.png","1","null","","200","567.0799999963492","","","","background","",""
"","null","html-keyboard-response","122","245142","0.0-17.0-0.4","SS1604513963567","","null","","","","","","","","","","","","<img src=images/blank.png width =""500"" height = ""500"" style=""border:5px solid black"">","","",""
"","296.0399999283254","stimulus-presentation","123","245642","0.0-17.0-1.4","SS1604513963567","<img src='images/simple/17.png' width ='500' height = '500' style='border:5px solid black'>","40","all_simple","images/simple/10.png","images/simple/17.png","images/simple/15.png,images/simple/11.png,images/simple/3.png,images/simple/16.png,images/simple/2.png,images/simple/6.png,images/simple/9.png","1","null","","200","496.0399999283254","","","","background","",""
"","null","html-keyboard-response","124","246539","0.0-17.0-0.5","SS1604513963567","","null","","","","","","","","","","","","<img src=images/blank.png width =""500"" height = ""500"" style=""border:5px solid black"">","","",""
"","379.06499998643994","stimulus-presentation","125","247121","0.0-17.0-1.5","SS1604513963567","<img src='images/simple/11.png' width ='500' height = '500' style='border:5px solid black'>","40","all_simple","images/simple/10.png","images/simple/17.png","images/simple/15.png,images/simple/11.png,images/simple/3.png,images/simple/16.png,images/simple/2.png,images/simple/6.png,images/simple/9.png","1","null","","200","579.06499998644","","","","deviant","",""
"","null","html-keyboard-response","126","248198","0.0-17.0-0.6","SS1604513963567","","null","","","","","","","","","","","","<img src=images/blank.png width =""500"" height = ""500"" style=""border:5px solid black"">","","",""
"","262.8049999475479","stimulus-presentation","127","248664","0.0-17.0-1.6","SS1604513963567","<img src='images/simple/17.png' width ='500' height = '500' style='border:5px solid black'>","40","all_simple","images/simple/10.png","images/simple/17.png","images/simple/15.png,images/simple/11.png,images/simple/3.png,images/simple/16.png,images/simple/2.png,images/simple/6.png,images/simple/9.png","1","null","","200","462.8049999475479","","","","background","",""
"","null","html-keyboard-response","128","249844","0.0-17.0-0.7","SS1604513963567","","null","","","","","","","","","","","","<img src=images/blank.png width =""500"" height = ""500"" style=""border:5px solid black"">","","",""
"","176.78499990142882","stimulus-presentation","129","250223","0.0-17.0-1.7","SS1604513963567","<img src='images/simple/17.png' width ='500' height = '500' style='border:5px solid black'>","40","all_simple","images/simple/10.png","images/simple/17.png","images/simple/15.png,images/simple/11.png,images/simple/3.png,images/simple/16.png,images/simple/2.png,images/simple/6.png,images/simple/9.png","1","null","","200","376.7849999014288","","","","background","",""
"","null","html-keyboard-response","130","251501","0.0-17.0-0.8","SS1604513963567","","null","","","","","","","","","","","","<img src=images/blank.png width =""500"" height = ""500"" style=""border:5px solid black"">","","",""
"","221.47500002756715","stimulus-presentation","131","251927","0.0-17.0-1.8","SS1604513963567","<img src='images/simple/17.png' width ='500' height = '500' style='border:5px solid black'>","40","all_simple","images/simple/10.png","images/simple/17.png","images/simple/15.png,images/simple/11.png,images/simple/3.png,images/simple/16.png,images/simple/2.png,images/simple/6.png,images/simple/9.png","1","null","","200","421.47500002756715","","","","background","",""
"","null","html-keyboard-response","132","253160","0.0-17.0-0.9","SS1604513963567","","null","","","","","","","","","","","","<img src=images/blank.png width =""500"" height = ""500"" style=""border:5px solid black"">","","",""
"","619.2299999529496","stimulus-presentation","133","253982","0.0-17.0-1.9","SS1604513963567","<img src='images/simple/9.png' width ='500' height = '500' style='border:5px solid black'>","40","all_simple","images/simple/10.png","images/simple/17.png","images/simple/15.png,images/simple/11.png,images/simple/3.png,images/simple/16.png,images/simple/2.png,images/simple/6.png,images/simple/9.png","1","null","","200","819.2299999529496","","","","deviant","",""
"","null","html-keyboard-response","134","255092","0.0-17.0-0.10","SS1604513963567","","null","","","","","","","","","","","","<img src=images/blank.png width =""500"" height = ""500"" style=""border:5px solid black"">","","",""
"","395.13499999884516","stimulus-presentation","135","255690","0.0-17.0-1.10","SS1604513963567","<img src='images/simple/17.png' width ='500' height = '500' style='border:5px solid black'>","40","all_simple","images/simple/10.png","images/simple/17.png","images/simple/15.png,images/simple/11.png,images/simple/3.png,images/simple/16.png,images/simple/2.png,images/simple/6.png,images/simple/9.png","1","null","","200","595.1349999988452","","","","background","",""
"","null","html-keyboard-response","136","256619","0.0-17.0-0.11","SS1604513963567","","null","","","","","","","","","","","","<img src=images/blank.png width =""500"" height = ""500"" style=""border:5px solid black"">","","",""
"","287.5899999635294","stimulus-presentation","137","257109","0.0-17.0-1.11","SS1604513963567","<img src='images/simple/17.png' width ='500' height = '500' style='border:5px solid black'>","40","all_simple","images/simple/10.png","images/simple/17.png","images/simple/15.png,images/simple/11.png,images/simple/3.png,images/simple/16.png,images/simple/2.png,images/simple/6.png,images/simple/9.png","1","null","","200","487.5899999635294","","","","background","",""
"","null","html-keyboard-response","138","258272","0.0-17.0-0.12","SS1604513963567","","null","","","","","","","","","","","","<img src=images/blank.png width =""500"" height = ""500"" style=""border:5px solid black"">","","",""
"","1887.6850000815466","stimulus-presentation","139","260363","0.0-17.0-1.12","SS1604513963567","<img src='images/simple/10.png' width ='500' height = '500' style='border:5px solid black'>","40","all_simple","images/simple/10.png","images/simple/17.png","images/simple/15.png,images/simple/11.png,images/simple/3.png,images/simple/16.png,images/simple/2.png,images/simple/6.png,images/simple/9.png","1","null","","200","2087.6850000815466","yes","689.1700000269338","","target","",""
"","null","html-keyboard-response","140","261181","0.0-17.0-0.13","SS1604513963567","","null","","","","","","","","","","","","<img src=images/blank.png width =""500"" height = ""500"" style=""border:5px solid black"">","","",""
"","386.76999998278916","stimulus-presentation","141","261772","0.0-17.0-1.13","SS1604513963567","<img src='images/simple/17.png' width ='500' height = '500' style='border:5px solid black'>","40","all_simple","images/simple/10.png","images/simple/17.png","images/simple/15.png,images/simple/11.png,images/simple/3.png,images/simple/16.png,images/simple/2.png,images/simple/6.png,images/simple/9.png","1","null","","200","586.7699999827892","","","","background","",""
"","null","html-keyboard-response","142","262889","0.0-17.0-0.14","SS1604513963567","","null","","","","","","","","","","","","<img src=images/blank.png width =""500"" height = ""500"" style=""border:5px solid black"">","","",""
"","1439.5200000144541","stimulus-presentation","143","264532","0.0-17.0-1.14","SS1604513963567","<img src='images/simple/10.png' width ='500' height = '500' style='border:5px solid black'>","40","all_simple","images/simple/10.png","images/simple/17.png","images/simple/15.png,images/simple/11.png,images/simple/3.png,images/simple/16.png,images/simple/2.png,images/simple/6.png,images/simple/9.png","1","null","","200","1639.5200000144541","yes","376.05000007897615","","target","",""
"","null","html-keyboard-response","144","265775","0.0-17.0-0.15","SS1604513963567","","null","","","","","","","","","","","","<img src=images/blank.png width =""500"" height = ""500"" style=""border:5px solid black"">","","",""
"","335.8049999224022","stimulus-presentation","145","266314","0.0-17.0-1.15","SS1604513963567","<img src='images/simple/17.png' width ='500' height = '500' style='border:5px solid black'>","40","all_simple","images/simple/10.png","images/simple/17.png","images/simple/15.png,images/simple/11.png,images/simple/3.png,images/simple/16.png,images/simple/2.png,images/simple/6.png,images/simple/9.png","1","null","","200","535.8049999224022","","","","background","",""
"","null","html-keyboard-response","146","267276","0.0-17.0-0.16","SS1604513963567","","null","","","","","","","","","","","","<img src=images/blank.png width =""500"" height = ""500"" style=""border:5px solid black"">","","",""
"","3484.8500000080094","stimulus-presentation","147","270964","0.0-17.0-1.16","SS1604513963567","<img src='images/simple/10.png' width ='500' height = '500' style='border:5px solid black'>","40","all_simple","images/simple/10.png","images/simple/17.png","images/simple/15.png,images/simple/11.png,images/simple/3.png,images/simple/16.png,images/simple/2.png,images/simple/6.png,images/simple/9.png","1","null","","200","3684.8500000080094","yes","481.6450000507757","","target","",""
"","null","html-keyboard-response","148","271847","0.0-17.0-0.17","SS1604513963567","","null","","","","","","","","","","","","<img src=images/blank.png width =""500"" height = ""500"" style=""border:5px solid black"">","","",""
"","272.1749999327585","stimulus-presentation","149","272323","0.0-17.0-1.17","SS1604513963567","<img src='images/simple/17.png' width ='500' height = '500' style='border:5px solid black'>","40","all_simple","images/simple/10.png","images/simple/17.png","images/simple/15.png,images/simple/11.png,images/simple/3.png,images/simple/16.png,images/simple/2.png,images/simple/6.png,images/simple/9.png","1","null","","200","472.1749999327585","","","","background","",""
"","null","html-keyboard-response","150","273358","0.0-17.0-0.18","SS1604513963567","","null","","","","","","","","","","","","<img src=images/blank.png width =""500"" height = ""500"" style=""border:5px solid black"">","","",""
"","142.43000000715256","stimulus-presentation","151","273704","0.0-17.0-1.18","SS1604513963567","<img src='images/simple/17.png' width ='500' height = '500' style='border:5px solid black'>","40","all_simple","images/simple/10.png","images/simple/17.png","images/simple/15.png,images/simple/11.png,images/simple/3.png,images/simple/16.png,images/simple/2.png,images/simple/6.png,images/simple/9.png","1","null","","200","342.43000000715256","","","","background","",""
"","null","html-keyboard-response","152","274629","0.0-17.0-0.19","SS1604513963567","","null","","","","","","","","","","","","<img src=images/blank.png width =""500"" height = ""500"" style=""border:5px solid black"">","","",""
"","213.759999955073","stimulus-presentation","153","275047","0.0-17.0-1.19","SS1604513963567","<img src='images/simple/17.png' width ='500' height = '500' style='border:5px solid black'>","40","all_simple","images/simple/10.png","images/simple/17.png","images/simple/15.png,images/simple/11.png,images/simple/3.png,images/simple/16.png,images/simple/2.png,images/simple/6.png,images/simple/9.png","1","null","","200","413.759999955073","","","","background","",""
"","null","html-keyboard-response","154","275923","0.0-17.0-0.20","SS1604513963567","","null","","","","","","","","","","","","<img src=images/blank.png width =""500"" height = ""500"" style=""border:5px solid black"">","","",""
"","216.14499995484948","stimulus-presentation","155","276342","0.0-17.0-1.20","SS1604513963567","<img src='images/simple/17.png' width ='500' height = '500' style='border:5px solid black'>","40","all_simple","images/simple/10.png","images/simple/17.png","images/simple/15.png,images/simple/11.png,images/simple/3.png,images/simple/16.png,images/simple/2.png,images/simple/6.png,images/simple/9.png","1","null","","200","416.1449999548495","","","","background","",""
"","null","html-keyboard-response","156","277191","0.0-17.0-0.21","SS1604513963567","","null","","","","","","","","","","","","<img src=images/blank.png width =""500"" height = ""500"" style=""border:5px solid black"">","","",""
"","2866.8249999172986","stimulus-presentation","157","280262","0.0-17.0-1.21","SS1604513963567","<img src='images/simple/10.png' width ='500' height = '500' style='border:5px solid black'>","40","all_simple","images/simple/10.png","images/simple/17.png","images/simple/15.png,images/simple/11.png,images/simple/3.png,images/simple/16.png,images/simple/2.png,images/simple/6.png,images/simple/9.png","1","null","","200","3066.8249999172986","yes","504.9550000112504","","target","",""
"","null","html-keyboard-response","158","281297","0.0-17.0-0.22","SS1604513963567","","null","","","","","","","","","","","","<img src=images/blank.png width =""500"" height = ""500"" style=""border:5px solid black"">","","",""
"","1333.5350000998005","stimulus-presentation","159","282834","0.0-17.0-1.22","SS1604513963567","<img src='images/simple/6.png' width ='500' height = '500' style='border:5px solid black'>","40","all_simple","images/simple/10.png","images/simple/17.png","images/simple/15.png,images/simple/11.png,images/simple/3.png,images/simple/16.png,images/simple/2.png,images/simple/6.png,images/simple/9.png","1","null","","200","1533.5350000998005","","","","deviant","",""
"","null","html-keyboard-response","160","283768","0.0-17.0-0.23","SS1604513963567","","null","","","","","","","","","","","","<img src=images/blank.png width =""500"" height = ""500"" style=""border:5px solid black"">","","",""
"","602.2649999940768","stimulus-presentation","161","284573","0.0-17.0-1.23","SS1604513963567","<img src='images/simple/17.png' width ='500' height = '500' style='border:5px solid black'>","40","all_simple","images/simple/10.png","images/simple/17.png","images/simple/15.png,images/simple/11.png,images/simple/3.png,images/simple/16.png,images/simple/2.png,images/simple/6.png,images/simple/9.png","1","null","","200","802.2649999940768","","","","background","",""
"","null","html-keyboard-response","162","285767","0.0-17.0-0.24","SS1604513963567","","null","","","","","","","","","","","","<img src=images/blank.png width =""500"" height = ""500"" style=""border:5px solid black"">","","",""
"","150.28000005986542","stimulus-presentation","163","286121","0.0-17.0-1.24","SS1604513963567","<img src='images/simple/17.png' width ='500' height = '500' style='border:5px solid black'>","40","all_simple","images/simple/10.png","images/simple/17.png","images/simple/15.png,images/simple/11.png,images/simple/3.png,images/simple/16.png,images/simple/2.png,images/simple/6.png,images/simple/9.png","1","null","","200","350.2800000598654","","","","background","",""
"","null","html-keyboard-response","164","286993","0.0-17.0-0.25","SS1604513963567","","null","","","","","","","","","","","","<img src=images/blank.png width =""500"" height = ""500"" style=""border:5px solid black"">","","",""
"","400.3899999661371","stimulus-presentation","165","287606","0.0-17.0-1.25","SS1604513963567","<img src='images/simple/2.png' width ='500' height = '500' style='border:5px solid black'>","40","all_simple","images/simple/10.png","images/simple/17.png","images/simple/15.png,images/simple/11.png,images/simple/3.png,images/simple/16.png,images/simple/2.png,images/simple/6.png,images/simple/9.png","1","null","","200","600.3899999661371","","","","deviant","",""
"","null","html-keyboard-response","166","288607","0.0-17.0-0.26","SS1604513963567","","null","","","","","","","","","","","","<img src=images/blank.png width =""500"" height = ""500"" style=""border:5px solid black"">","","",""
"","212.37500000279397","stimulus-presentation","167","289023","0.0-17.0-1.26","SS1604513963567","<img src='images/simple/17.png' width ='500' height = '500' style='border:5px solid black'>","40","all_simple","images/simple/10.png","images/simple/17.png","images/simple/15.png,images/simple/11.png,images/simple/3.png,images/simple/16.png,images/simple/2.png,images/simple/6.png,images/simple/9.png","1","null","","200","412.37500000279397","","","","background","",""
"","null","html-keyboard-response","168","290073","0.0-17.0-0.27","SS1604513963567","","null","","","","","","","","","","","","<img src=images/blank.png width =""500"" height = ""500"" style=""border:5px solid black"">","","",""
"","208.29499990213662","stimulus-presentation","169","290485","0.0-17.0-1.27","SS1604513963567","<img src='images/simple/17.png' width ='500' height = '500' style='border:5px solid black'>","40","all_simple","images/simple/10.png","images/simple/17.png","images/simple/15.png,images/simple/11.png,images/simple/3.png,images/simple/16.png,images/simple/2.png,images/simple/6.png,images/simple/9.png","1","null","","200","408.2949999021366","","","","background","",""
"","null","html-keyboard-response","170","291385","0.0-17.0-0.28","SS1604513963567","","null","","","","","","","","","","","","<img src=images/blank.png width =""500"" height = ""500"" style=""border:5px solid black"">","","",""
"","282.89500006940216","stimulus-presentation","171","291871","0.0-17.0-1.28","SS1604513963567","<img src='images/simple/17.png' width ='500' height = '500' style='border:5px solid black'>","40","all_simple","images/simple/10.png","images/simple/17.png","images/simple/15.png,images/simple/11.png,images/simple/3.png,images/simple/16.png,images/simple/2.png,images/simple/6.png,images/simple/9.png","1","null","","200","482.89500006940216","","","","background","",""
"","null","html-keyboard-response","172","292918","0.0-17.0-0.29","SS1604513963567","","null","","","","","","","","","","","","<img src=images/blank.png width =""500"" height = ""500"" style=""border:5px solid black"">","","",""
"","489.5000000251457","stimulus-presentation","173","293610","0.0-17.0-1.29","SS1604513963567","<img src='images/simple/3.png' width ='500' height = '500' style='border:5px solid black'>","40","all_simple","images/simple/10.png","images/simple/17.png","images/simple/15.png,images/simple/11.png,images/simple/3.png,images/simple/16.png,images/simple/2.png,images/simple/6.png,images/simple/9.png","1","null","","200","689.5000000251457","","","","deviant","",""
"","null","html-keyboard-response","174","294883","0.0-17.0-0.30","SS1604513963567","","null","","","","","","","","","","","","<img src=images/blank.png width =""500"" height = ""500"" style=""border:5px solid black"">","","",""
"","914.3349999794737","stimulus-presentation","175","296001","0.0-17.0-1.30","SS1604513963567","<img src='images/simple/17.png' width ='500' height = '500' style='border:5px solid black'>","40","all_simple","images/simple/10.png","images/simple/17.png","images/simple/15.png,images/simple/11.png,images/simple/3.png,images/simple/16.png,images/simple/2.png,images/simple/6.png,images/simple/9.png","1","null","","200","1114.3349999794737","","","","background","",""
"","null","html-keyboard-response","176","297140","0.0-17.0-0.31","SS1604513963567","","null","","","","","","","","","","","","<img src=images/blank.png width =""500"" height = ""500"" style=""border:5px solid black"">","","",""
"","211.94999990984797","stimulus-presentation","177","297555","0.0-17.0-1.31","SS1604513963567","<img src='images/simple/17.png' width ='500' height = '500' style='border:5px solid black'>","40","all_simple","images/simple/10.png","images/simple/17.png","images/simple/15.png,images/simple/11.png,images/simple/3.png,images/simple/16.png,images/simple/2.png,images/simple/6.png,images/simple/9.png","1","null","","200","411.949999909848","","","","background","",""
"","null","html-keyboard-response","178","298382","0.0-17.0-0.32","SS1604513963567","","null","","","","","","","","","","","","<img src=images/blank.png width =""500"" height = ""500"" style=""border:5px solid black"">","","",""
"","218.12500001396984","stimulus-presentation","179","298805","0.0-17.0-1.32","SS1604513963567","<img src='images/simple/17.png' width ='500' height = '500' style='border:5px solid black'>","40","all_simple","images/simple/10.png","images/simple/17.png","images/simple/15.png,images/simple/11.png,images/simple/3.png,images/simple/16.png,images/simple/2.png,images/simple/6.png,images/simple/9.png","1","null","","200","418.12500001396984","","","","background","",""
"","null","html-keyboard-response","180","299870","0.0-17.0-0.33","SS1604513963567","","null","","","","","","","","","","","","<img src=images/blank.png width =""500"" height = ""500"" style=""border:5px solid black"">","","",""
"","230.83999997470528","stimulus-presentation","181","300304","0.0-17.0-1.33","SS1604513963567","<img src='images/simple/17.png' width ='500' height = '500' style='border:5px solid black'>","40","all_simple","images/simple/10.png","images/simple/17.png","images/simple/15.png,images/simple/11.png,images/simple/3.png,images/simple/16.png,images/simple/2.png,images/simple/6.png,images/simple/9.png","1","null","","200","430.8399999747053","","","","background","",""
"","null","html-keyboard-response","182","301256","0.0-17.0-0.34","SS1604513963567","","null","","","","","","","","","","","","<img src=images/blank.png width =""500"" height = ""500"" style=""border:5px solid black"">","","",""
"","308.56999999377877","stimulus-presentation","183","301768","0.0-17.0-1.34","SS1604513963567","<img src='images/simple/17.png' width ='500' height = '500' style='border:5px solid black'>","40","all_simple","images/simple/10.png","images/simple/17.png","images/simple/15.png,images/simple/11.png,images/simple/3.png,images/simple/16.png,images/simple/2.png,images/simple/6.png,images/simple/9.png","1","null","","200","508.56999999377877","","","","background","",""
"","null","html-keyboard-response","184","303053","0.0-17.0-0.35","SS1604513963567","","null","","","","","","","","","","","","<img src=images/blank.png width =""500"" height = ""500"" style=""border:5px solid black"">","","",""
"","353.4199999412522","stimulus-presentation","185","303610","0.0-17.0-1.35","SS1604513963567","<img src='images/simple/17.png' width ='500' height = '500' style='border:5px solid black'>","40","all_simple","images/simple/10.png","images/simple/17.png","images/simple/15.png,images/simple/11.png,images/simple/3.png,images/simple/16.png,images/simple/2.png,images/simple/6.png,images/simple/9.png","1","null","","200","553.4199999412522","","","","background","",""
"","null","html-keyboard-response","186","304616","0.0-17.0-0.36","SS1604513963567","","null","","","","","","","","","","","","<img src=images/blank.png width =""500"" height = ""500"" style=""border:5px solid black"">","","",""
"","2368.0050000548363","stimulus-presentation","187","307188","0.0-17.0-1.36","SS1604513963567","<img src='images/simple/10.png' width ='500' height = '500' style='border:5px solid black'>","40","all_simple","images/simple/10.png","images/simple/17.png","images/simple/15.png,images/simple/11.png,images/simple/3.png,images/simple/16.png,images/simple/2.png,images/simple/6.png,images/simple/9.png","1","null","","200","2568.0050000548363","yes","513.1050000200048","","target","",""
"","null","html-keyboard-response","188","308402","0.0-17.0-0.37","SS1604513963567","","null","","","","","","","","","","","","<img src=images/blank.png width =""500"" height = ""500"" style=""border:5px solid black"">","","",""
"","809.514999971725","stimulus-presentation","189","309415","0.0-17.0-1.37","SS1604513963567","<img src='images/simple/15.png' width ='500' height = '500' style='border:5px solid black'>","40","all_simple","images/simple/10.png","images/simple/17.png","images/simple/15.png,images/simple/11.png,images/simple/3.png,images/simple/16.png,images/simple/2.png,images/simple/6.png,images/simple/9.png","1","null","","200","1009.514999971725","","","","deviant","",""
"","null","html-keyboard-response","190","310353","0.0-17.0-0.38","SS1604513963567","","null","","","","","","","","","","","","<img src=images/blank.png width =""500"" height = ""500"" style=""border:5px solid black"">","","",""
"","144.3100000033155","stimulus-presentation","191","310701","0.0-17.0-1.38","SS1604513963567","<img src='images/simple/17.png' width ='500' height = '500' style='border:5px solid black'>","40","all_simple","images/simple/10.png","images/simple/17.png","images/simple/15.png,images/simple/11.png,images/simple/3.png,images/simple/16.png,images/simple/2.png,images/simple/6.png,images/simple/9.png","1","null","","200","344.3100000033155","","","","background","",""
"","null","html-keyboard-response","192","311948","0.0-17.0-0.39","SS1604513963567","","null","","","","","","","","","","","","<img src=images/blank.png width =""500"" height = ""500"" style=""border:5px solid black"">","","",""
"","179.80000004172325","stimulus-presentation","193","312333","0.0-17.0-1.39","SS1604513963567","<img src='images/simple/17.png' width ='500' height = '500' style='border:5px solid black'>","40","all_simple","images/simple/10.png","images/simple/17.png","images/simple/15.png,images/simple/11.png,images/simple/3.png,images/simple/16.png,images/simple/2.png,images/simple/6.png,images/simple/9.png","1","null","","200","379.80000004172325","","","","background","",""
"","null","html-keyboard-response","194","313444","0.0-17.0-0.40","SS1604513963567","","null","","","","","","","","","","","","<img src=images/blank.png width =""500"" height = ""500"" style=""border:5px solid black"">","","",""
"","574.4649999542162","stimulus-presentation","195","314222","0.0-17.0-1.40","SS1604513963567","<img src='images/simple/16.png' width ='500' height = '500' style='border:5px solid black'>","40","all_simple","images/simple/10.png","images/simple/17.png","images/simple/15.png,images/simple/11.png,images/simple/3.png,images/simple/16.png,images/simple/2.png,images/simple/6.png,images/simple/9.png","1","null","","200","774.4649999542162","","","","deviant","",""
"","null","html-keyboard-response","196","315379","0.0-17.0-0.41","SS1604513963567","","null","","","","","","","","","","","","<img src=images/blank.png width =""500"" height = ""500"" style=""border:5px solid black"">","","",""
"","1572.7350000524893","stimulus-presentation","197","317156","0.0-17.0-1.41","SS1604513963567","<img src='images/simple/10.png' width ='500' height = '500' style='border:5px solid black'>","40","all_simple","images/simple/10.png","images/simple/17.png","images/simple/15.png,images/simple/11.png,images/simple/3.png,images/simple/16.png,images/simple/2.png,images/simple/6.png,images/simple/9.png","1","null","","200","1772.7350000524893","yes","835.8050000388175","","target","",""
"","null","html-keyboard-response","198","318162","0.0-17.0-0.42","SS1604513963567","","null","","","","","","","","","","","","<img src=images/blank.png width =""500"" height = ""500"" style=""border:5px solid black"">","","",""
"","385.6949999462813","stimulus-presentation","199","318753","0.0-17.0-1.42","SS1604513963567","<img src='images/simple/17.png' width ='500' height = '500' style='border:5px solid black'>","40","all_simple","images/simple/10.png","images/simple/17.png","images/simple/15.png,images/simple/11.png,images/simple/3.png,images/simple/16.png,images/simple/2.png,images/simple/6.png,images/simple/9.png","1","null","","200","585.6949999462813","","","","background","",""
"","null","html-keyboard-response","200","320011","0.0-17.0-0.43","SS1604513963567","","null","","","","","","","","","","","","<img src=images/blank.png width =""500"" height = ""500"" style=""border:5px solid black"">","","",""
"","109.88000000361353","stimulus-presentation","201","320324","0.0-17.0-1.43","SS1604513963567","<img src='images/simple/17.png' width ='500' height = '500' style='border:5px solid black'>","40","all_simple","images/simple/10.png","images/simple/17.png","images/simple/15.png,images/simple/11.png,images/simple/3.png,images/simple/16.png,images/simple/2.png,images/simple/6.png,images/simple/9.png","1","null","","200","309.88000000361353","","","","background","",""
"","null","html-keyboard-response","202","321180","0.0-17.0-0.44","SS1604513963567","","null","","","","","","","","","","","","<img src=images/blank.png width =""500"" height = ""500"" style=""border:5px solid black"">","","",""
"","203.02500005345792","stimulus-presentation","203","321587","0.0-17.0-1.44","SS1604513963567","<img src='images/simple/17.png' width ='500' height = '500' style='border:5px solid black'>","40","all_simple","images/simple/10.png","images/simple/17.png","images/simple/15.png,images/simple/11.png,images/simple/3.png,images/simple/16.png,images/simple/2.png,images/simple/6.png,images/simple/9.png","1","null","","200","403.0250000534579","","","","background","",""
"","null","html-keyboard-response","204","322562","0.0-17.0-0.45","SS1604513963567","","null","","","","","","","","","","","","<img src=images/blank.png width =""500"" height = ""500"" style=""border:5px solid black"">","","",""
"","1062.9649999318644","stimulus-presentation","205","323843","0.0-17.0-1.45","SS1604513963567","<img src='images/simple/10.png' width ='500' height = '500' style='border:5px solid black'>","40","all_simple","images/simple/10.png","images/simple/17.png","images/simple/15.png,images/simple/11.png,images/simple/3.png,images/simple/16.png,images/simple/2.png,images/simple/6.png,images/simple/9.png","1","null","","200","1262.9649999318644","yes","224.66999990865588","","target","",""
"","null","html-keyboard-response","206","324668","0.0-17.0-0.46","SS1604513963567","","null","","","","","","","","","","","","<img src=images/blank.png width =""500"" height = ""500"" style=""border:5px solid black"">","","",""
"","336.0950000351295","stimulus-presentation","207","325207","0.0-17.0-1.46","SS1604513963567","<img src='images/simple/17.png' width ='500' height = '500' style='border:5px solid black'>","40","all_simple","images/simple/10.png","images/simple/17.png","images/simple/15.png,images/simple/11.png,images/simple/3.png,images/simple/16.png,images/simple/2.png,images/simple/6.png,images/simple/9.png","1","null","","200","536.0950000351295","","","","background","",""
"","null","html-keyboard-response","208","326063","0.0-17.0-0.47","SS1604513963567","","null","","","","","","","","","","","","<img src=images/blank.png width =""500"" height = ""500"" style=""border:5px solid black"">","","",""
"","161.77999996580184","stimulus-presentation","209","326428","0.0-17.0-1.47","SS1604513963567","<img src='images/simple/17.png' width ='500' height = '500' style='border:5px solid black'>","40","all_simple","images/simple/10.png","images/simple/17.png","images/simple/15.png,images/simple/11.png,images/simple/3.png,images/simple/16.png,images/simple/2.png,images/simple/6.png,images/simple/9.png","1","null","","200","361.77999996580184","","","","background","",""
"","null","html-keyboard-response","210","327319","0.0-17.0-0.48","SS1604513963567","","null","","","","","","","","","","","","<img src=images/blank.png width =""500"" height = ""500"" style=""border:5px solid black"">","","",""
"","178.04000002797693","stimulus-presentation","211","327700","0.0-17.0-1.48","SS1604513963567","<img src='images/simple/17.png' width ='500' height = '500' style='border:5px solid black'>","40","all_simple","images/simple/10.png","images/simple/17.png","images/simple/15.png,images/simple/11.png,images/simple/3.png,images/simple/16.png,images/simple/2.png,images/simple/6.png,images/simple/9.png","1","null","","200","378.04000002797693","","","","background","",""
"[{""page_index"":0,""viewing_time"":5173}]","5174","task-instructions","212","332876","0.0-18.0","SS1604513963567","","","","","","","","","","","","","","","","",""
"[{""page_index"":0,""viewing_time"":3464.8400000296533},{""page_index"":1,""viewing_time"":7310.125000076368},{""page_index"":2,""viewing_time"":2913.979999953881}]","13689.060000004247","instructions","213","346569","0.0-19.0","SS1604513963567","","","","","","","","","","","","","","","","",""
"","null","html-keyboard-response","214","347458","0.0-20.0-0.0","SS1604513963567","","null","","","","","","","","","","","","<img src=images/blank.png width =""500"" height = ""500"" style=""border:5px solid black"">","","",""
"","907.3899999493733","stimulus-presentation","215","348569","0.0-20.0-1.0","SS1604513963567","<img src='images/complex/14.png' width ='500' height = '500' style='border:5px solid black'>","40","mixed_simple_deviant","images/complex/8.png","images/complex/14.png","images/simple/1.png,images/simple/7.png,images/simple/8.png,images/simple/12.png,images/simple/5.png,images/simple/13.png,images/simple/18.png","2","null","","200","1107.3899999493733","","","","background","",""
"","null","html-keyboard-response","216","349558","0.0-20.0-0.1","SS1604513963567","","null","","","","","","","","","","","","<img src=images/blank.png width =""500"" height = ""500"" style=""border:5px solid black"">","","",""
"","197.32499995734543","stimulus-presentation","217","349959","0.0-20.0-1.1","SS1604513963567","<img src='images/complex/14.png' width ='500' height = '500' style='border:5px solid black'>","40","mixed_simple_deviant","images/complex/8.png","images/complex/14.png","images/simple/1.png,images/simple/7.png,images/simple/8.png,images/simple/12.png,images/simple/5.png,images/simple/13.png,images/simple/18.png","2","null","","200","397.3249999573454","","","","background","",""
"","null","html-keyboard-response","218","350827","0.0-20.0-0.2","SS1604513963567","","null","","","","","","","","","","","","<img src=images/blank.png width =""500"" height = ""500"" style=""border:5px solid black"">","","",""
"","2107.1549999760464","stimulus-presentation","219","353139","0.0-20.0-1.2","SS1604513963567","<img src='images/complex/8.png' width ='500' height = '500' style='border:5px solid black'>","40","mixed_simple_deviant","images/complex/8.png","images/complex/14.png","images/simple/1.png,images/simple/7.png,images/simple/8.png,images/simple/12.png,images/simple/5.png,images/simple/13.png,images/simple/18.png","2","null","","200","2307.1549999760464","yes","425.7000000216067","","target","",""
"","null","html-keyboard-response","220","354163","0.0-20.0-0.3","SS1604513963567","","null","","","","","","","","","","","","<img src=images/blank.png width =""500"" height = ""500"" style=""border:5px solid black"">","","",""
"","269.8799999197945","stimulus-presentation","221","354638","0.0-20.0-1.3","SS1604513963567","<img src='images/complex/14.png' width ='500' height = '500' style='border:5px solid black'>","40","mixed_simple_deviant","images/complex/8.png","images/complex/14.png","images/simple/1.png,images/simple/7.png,images/simple/8.png,images/simple/12.png,images/simple/5.png,images/simple/13.png,images/simple/18.png","2","null","","200","469.8799999197945","","","","background","",""
"","null","html-keyboard-response","222","355470","0.0-20.0-0.4","SS1604513963567","","null","","","","","","","","","","","","<img src=images/blank.png width =""500"" height = ""500"" style=""border:5px solid black"">","","",""
"","246.46499997470528","stimulus-presentation","223","355921","0.0-20.0-1.4","SS1604513963567","<img src='images/complex/14.png' width ='500' height = '500' style='border:5px solid black'>","40","mixed_simple_deviant","images/complex/8.png","images/complex/14.png","images/simple/1.png,images/simple/7.png,images/simple/8.png,images/simple/12.png,images/simple/5.png,images/simple/13.png,images/simple/18.png","2","null","","200","446.4649999747053","","","","background","",""
"","null","html-keyboard-response","224","356796","0.0-20.0-0.5","SS1604513963567","","null","","","","","","","","","","","","<img src=images/blank.png width =""500"" height = ""500"" style=""border:5px solid black"">","","",""
"","247.899999958463","stimulus-presentation","225","357249","0.0-20.0-1.5","SS1604513963567","<img src='images/simple/12.png' width ='500' height = '500' style='border:5px solid black'>","40","mixed_simple_deviant","images/complex/8.png","images/complex/14.png","images/simple/1.png,images/simple/7.png,images/simple/8.png,images/simple/12.png,images/simple/5.png,images/simple/13.png,images/simple/18.png","2","null","","200","447.899999958463","","","","deviant","",""
"","null","html-keyboard-response","226","358284","0.0-20.0-0.6","SS1604513963567","","null","","","","","","","","","","","","<img src=images/blank.png width =""500"" height = ""500"" style=""border:5px solid black"">","","",""
"","234.69000007025898","stimulus-presentation","227","358723","0.0-20.0-1.6","SS1604513963567","<img src='images/complex/14.png' width ='500' height = '500' style='border:5px solid black'>","40","mixed_simple_deviant","images/complex/8.png","images/complex/14.png","images/simple/1.png,images/simple/7.png,images/simple/8.png,images/simple/12.png,images/simple/5.png,images/simple/13.png,images/simple/18.png","2","null","","200","434.690000070259","","","","background","",""
"","null","html-keyboard-response","228","359922","0.0-20.0-0.7","SS1604513963567","","null","","","","","","","","","","","","<img src=images/blank.png width =""500"" height = ""500"" style=""border:5px solid black"">","","",""
"","163.55999989900738","stimulus-presentation","229","360289","0.0-20.0-1.7","SS1604513963567","<img src='images/complex/14.png' width ='500' height = '500' style='border:5px solid black'>","40","mixed_simple_deviant","images/complex/8.png","images/complex/14.png","images/simple/1.png,images/simple/7.png,images/simple/8.png,images/simple/12.png,images/simple/5.png,images/simple/13.png,images/simple/18.png","2","null","","200","363.5599998990074","","","","background","",""
"","null","html-keyboard-response","230","361130","0.0-20.0-0.8","SS1604513963567","","null","","","","","","","","","","","","<img src=images/blank.png width =""500"" height = ""500"" style=""border:5px solid black"">","","",""
"","207.61499996297061","stimulus-presentation","231","361541","0.0-20.0-1.8","SS1604513963567","<img src='images/complex/14.png' width ='500' height = '500' style='border:5px solid black'>","40","mixed_simple_deviant","images/complex/8.png","images/complex/14.png","images/simple/1.png,images/simple/7.png,images/simple/8.png,images/simple/12.png,images/simple/5.png,images/simple/13.png,images/simple/18.png","2","null","","200","407.6149999629706","","","","background","",""
"","null","html-keyboard-response","232","362594","0.0-20.0-0.9","SS1604513963567","","null","","","","","","","","","","","","<img src=images/blank.png width =""500"" height = ""500"" style=""border:5px solid black"">","","",""
"","337.0650000870228","stimulus-presentation","233","363134","0.0-20.0-1.9","SS1604513963567","<img src='images/simple/7.png' width ='500' height = '500' style='border:5px solid black'>","40","mixed_simple_deviant","images/complex/8.png","images/complex/14.png","images/simple/1.png,images/simple/7.png,images/simple/8.png,images/simple/12.png,images/simple/5.png,images/simple/13.png,images/simple/18.png","2","null","","200","537.0650000870228","","","","deviant","",""
"","null","html-keyboard-response","234","364426","0.0-20.0-0.10","SS1604513963567","","null","","","","","","","","","","","","<img src=images/blank.png width =""500"" height = ""500"" style=""border:5px solid black"">","","",""
"","1400.7650000276044","stimulus-presentation","235","366031","0.0-20.0-1.10","SS1604513963567","<img src='images/complex/8.png' width ='500' height = '500' style='border:5px solid black'>","40","mixed_simple_deviant","images/complex/8.png","images/complex/14.png","images/simple/1.png,images/simple/7.png,images/simple/8.png,images/simple/12.png,images/simple/5.png,images/simple/13.png,images/simple/18.png","2","null","","200","1600.7650000276044","yes","290.5950000276789","","target","",""
"","null","html-keyboard-response","236","367136","0.0-20.0-0.11","SS1604513963567","","null","","","","","","","","","","","","<img src=images/blank.png width =""500"" height = ""500"" style=""border:5px solid black"">","","",""
"","1740.004999912344","stimulus-presentation","237","369079","0.0-20.0-1.11","SS1604513963567","<img src='images/complex/8.png' width ='500' height = '500' style='border:5px solid black'>","40","mixed_simple_deviant","images/complex/8.png","images/complex/14.png","images/simple/1.png,images/simple/7.png,images/simple/8.png,images/simple/12.png,images/simple/5.png,images/simple/13.png,images/simple/18.png","2","null","","200","1940.004999912344","yes","469.58999999333173","","target","",""
"","null","html-keyboard-response","238","369898","0.0-20.0-0.12","SS1604513963567","","null","","","","","","","","","","","","<img src=images/blank.png width =""500"" height = ""500"" style=""border:5px solid black"">","","",""
"","259.41499997861683","stimulus-presentation","239","370362","0.0-20.0-1.12","SS1604513963567","<img src='images/complex/14.png' width ='500' height = '500' style='border:5px solid black'>","40","mixed_simple_deviant","images/complex/8.png","images/complex/14.png","images/simple/1.png,images/simple/7.png,images/simple/8.png,images/simple/12.png,images/simple/5.png,images/simple/13.png,images/simple/18.png","2","null","","200","459.41499997861683","","","","background","",""
"","null","html-keyboard-response","240","371620","0.0-20.0-0.13","SS1604513963567","","null","","","","","","","","","","","","<img src=images/blank.png width =""500"" height = ""500"" style=""border:5px solid black"">","","",""
"","159.31999997701496","stimulus-presentation","241","371985","0.0-20.0-1.13","SS1604513963567","<img src='images/complex/14.png' width ='500' height = '500' style='border:5px solid black'>","40","mixed_simple_deviant","images/complex/8.png","images/complex/14.png","images/simple/1.png,images/simple/7.png,images/simple/8.png,images/simple/12.png,images/simple/5.png,images/simple/13.png,images/simple/18.png","2","null","","200","359.31999997701496","","","","background","",""
"","null","html-keyboard-response","242","372961","0.0-20.0-0.14","SS1604513963567","","null","","","","","","","","","","","","<img src=images/blank.png width =""500"" height = ""500"" style=""border:5px solid black"">","","",""
"","158.0250000115484","stimulus-presentation","243","373323","0.0-20.0-1.14","SS1604513963567","<img src='images/complex/14.png' width ='500' height = '500' style='border:5px solid black'>","40","mixed_simple_deviant","images/complex/8.png","images/complex/14.png","images/simple/1.png,images/simple/7.png,images/simple/8.png,images/simple/12.png,images/simple/5.png,images/simple/13.png,images/simple/18.png","2","null","","200","358.0250000115484","","","","background","",""
"","null","html-keyboard-response","244","374363","0.0-20.0-0.15","SS1604513963567","","null","","","","","","","","","","","","<img src=images/blank.png width =""500"" height = ""500"" style=""border:5px solid black"">","","",""
"","151.71000000555068","stimulus-presentation","245","374719","0.0-20.0-1.15","SS1604513963567","<img src='images/complex/14.png' width ='500' height = '500' style='border:5px solid black'>","40","mixed_simple_deviant","images/complex/8.png","images/complex/14.png","images/simple/1.png,images/simple/7.png,images/simple/8.png,images/simple/12.png,images/simple/5.png,images/simple/13.png,images/simple/18.png","2","null","","200","351.7100000055507","","","","background","",""
"","null","html-keyboard-response","246","375853","0.0-20.0-0.16","SS1604513963567","","null","","","","","","","","","","","","<img src=images/blank.png width =""500"" height = ""500"" style=""border:5px solid black"">","","",""
"","153.09999999590218","stimulus-presentation","247","376209","0.0-20.0-1.16","SS1604513963567","<img src='images/complex/14.png' width ='500' height = '500' style='border:5px solid black'>","40","mixed_simple_deviant","images/complex/8.png","images/complex/14.png","images/simple/1.png,images/simple/7.png,images/simple/8.png,images/simple/12.png,images/simple/5.png,images/simple/13.png,images/simple/18.png","2","null","","200","353.0999999959022","","","","background","",""
"","null","html-keyboard-response","248","377232","0.0-20.0-0.17","SS1604513963567","","null","","","","","","","","","","","","<img src=images/blank.png width =""500"" height = ""500"" style=""border:5px solid black"">","","",""
"","215.81500000320375","stimulus-presentation","249","377651","0.0-20.0-1.17","SS1604513963567","<img src='images/simple/1.png' width ='500' height = '500' style='border:5px solid black'>","40","mixed_simple_deviant","images/complex/8.png","images/complex/14.png","images/simple/1.png,images/simple/7.png,images/simple/8.png,images/simple/12.png,images/simple/5.png,images/simple/13.png,images/simple/18.png","2","null","","200","415.81500000320375","","","","deviant","",""
"","null","html-keyboard-response","250","378700","0.0-20.0-0.18","SS1604513963567","","null","","","","","","","","","","","","<img src=images/blank.png width =""500"" height = ""500"" style=""border:5px solid black"">","","",""
"","188.2200000109151","stimulus-presentation","251","379092","0.0-20.0-1.18","SS1604513963567","<img src='images/complex/14.png' width ='500' height = '500' style='border:5px solid black'>","40","mixed_simple_deviant","images/complex/8.png","images/complex/14.png","images/simple/1.png,images/simple/7.png,images/simple/8.png,images/simple/12.png,images/simple/5.png,images/simple/13.png,images/simple/18.png","2","null","","200","388.2200000109151","","","","background","",""
"","null","html-keyboard-response","252","379910","0.0-20.0-0.19","SS1604513963567","","null","","","","","","","","","","","","<img src=images/blank.png width =""500"" height = ""500"" style=""border:5px solid black"">","","",""
"","177.2000000346452","stimulus-presentation","253","380291","0.0-20.0-1.19","SS1604513963567","<img src='images/complex/14.png' width ='500' height = '500' style='border:5px solid black'>","40","mixed_simple_deviant","images/complex/8.png","images/complex/14.png","images/simple/1.png,images/simple/7.png,images/simple/8.png,images/simple/12.png,images/simple/5.png,images/simple/13.png,images/simple/18.png","2","null","","200","377.2000000346452","","","","background","",""
"","null","html-keyboard-response","254","381528","0.0-20.0-0.20","SS1604513963567","","null","","","","","","","","","","","","<img src=images/blank.png width =""500"" height = ""500"" style=""border:5px solid black"">","","",""
"","167.66000003553927","stimulus-presentation","255","381899","0.0-20.0-1.20","SS1604513963567","<img src='images/complex/14.png' width ='500' height = '500' style='border:5px solid black'>","40","mixed_simple_deviant","images/complex/8.png","images/complex/14.png","images/simple/1.png,images/simple/7.png,images/simple/8.png,images/simple/12.png,images/simple/5.png,images/simple/13.png,images/simple/18.png","2","null","","200","367.66000003553927","","","","background","",""
"","null","html-keyboard-response","256","382914","0.0-20.0-0.21","SS1604513963567","","null","","","","","","","","","","","","<img src=images/blank.png width =""500"" height = ""500"" style=""border:5px solid black"">","","",""
"","187.5249999575317","stimulus-presentation","257","383306","0.0-20.0-1.21","SS1604513963567","<img src='images/complex/14.png' width ='500' height = '500' style='border:5px solid black'>","40","mixed_simple_deviant","images/complex/8.png","images/complex/14.png","images/simple/1.png,images/simple/7.png,images/simple/8.png,images/simple/12.png,images/simple/5.png,images/simple/13.png,images/simple/18.png","2","null","","200","387.5249999575317","","","","background","",""
"","null","html-keyboard-response","258","384286","0.0-20.0-0.22","SS1604513963567","","null","","","","","","","","","","","","<img src=images/blank.png width =""500"" height = ""500"" style=""border:5px solid black"">","","",""
"","138.1200000178069","stimulus-presentation","259","384629","0.0-20.0-1.22","SS1604513963567","<img src='images/simple/5.png' width ='500' height = '500' style='border:5px solid black'>","40","mixed_simple_deviant","images/complex/8.png","images/complex/14.png","images/simple/1.png,images/simple/7.png,images/simple/8.png,images/simple/12.png,images/simple/5.png,images/simple/13.png,images/simple/18.png","2","null","","200","338.1200000178069","","","","deviant","",""
"","null","html-keyboard-response","260","385828","0.0-20.0-0.23","SS1604513963567","","null","","","","","","","","","","","","<img src=images/blank.png width =""500"" height = ""500"" style=""border:5px solid black"">","","",""
"","161.53500007931143","stimulus-presentation","261","386193","0.0-20.0-1.23","SS1604513963567","<img src='images/complex/14.png' width ='500' height = '500' style='border:5px solid black'>","40","mixed_simple_deviant","images/complex/8.png","images/complex/14.png","images/simple/1.png,images/simple/7.png,images/simple/8.png,images/simple/12.png,images/simple/5.png,images/simple/13.png,images/simple/18.png","2","null","","200","361.53500007931143","","","","background","",""
"","null","html-keyboard-response","262","387129","0.0-20.0-0.24","SS1604513963567","","null","","","","","","","","","","","","<img src=images/blank.png width =""500"" height = ""500"" style=""border:5px solid black"">","","",""
"","1093.5499999905005","stimulus-presentation","263","388425","0.0-20.0-1.24","SS1604513963567","<img src='images/complex/8.png' width ='500' height = '500' style='border:5px solid black'>","40","mixed_simple_deviant","images/complex/8.png","images/complex/14.png","images/simple/1.png,images/simple/7.png,images/simple/8.png,images/simple/12.png,images/simple/5.png,images/simple/13.png,images/simple/18.png","2","null","","200","1293.5499999905005","yes","407.1649999823421","","target","",""
"","null","html-keyboard-response","264","389352","0.0-20.0-0.25","SS1604513963567","","null","","","","","","","","","","","","<img src=images/blank.png width =""500"" height = ""500"" style=""border:5px solid black"">","","",""
"","1478.804999962449","stimulus-presentation","265","391035","0.0-20.0-1.25","SS1604513963567","<img src='images/complex/8.png' width ='500' height = '500' style='border:5px solid black'>","40","mixed_simple_deviant","images/complex/8.png","images/complex/14.png","images/simple/1.png,images/simple/7.png,images/simple/8.png,images/simple/12.png,images/simple/5.png,images/simple/13.png,images/simple/18.png","2","null","","200","1678.804999962449","yes","697.1550000598654","","target","",""
"","null","html-keyboard-response","266","391942","0.0-20.0-0.26","SS1604513963567","","null","","","","","","","","","","","","<img src=images/blank.png width =""500"" height = ""500"" style=""border:5px solid black"">","","",""
"","133.32500006072223","stimulus-presentation","267","392280","0.0-20.0-1.26","SS1604513963567","<img src='images/simple/13.png' width ='500' height = '500' style='border:5px solid black'>","40","mixed_simple_deviant","images/complex/8.png","images/complex/14.png","images/simple/1.png,images/simple/7.png,images/simple/8.png,images/simple/12.png,images/simple/5.png,images/simple/13.png,images/simple/18.png","2","null","","200","333.32500006072223","","","","deviant","",""
"","null","html-keyboard-response","268","393122","0.0-20.0-0.27","SS1604513963567","","null","","","","","","","","","","","","<img src=images/blank.png width =""500"" height = ""500"" style=""border:5px solid black"">","","",""
"","179.65000006370246","stimulus-presentation","269","393504","0.0-20.0-1.27","SS1604513963567","<img src='images/complex/14.png' width ='500' height = '500' style='border:5px solid black'>","40","mixed_simple_deviant","images/complex/8.png","images/complex/14.png","images/simple/1.png,images/simple/7.png,images/simple/8.png,images/simple/12.png,images/simple/5.png,images/simple/13.png,images/simple/18.png","2","null","","200","379.65000006370246","","","","background","",""
"","null","html-keyboard-response","270","394499","0.0-20.0-0.28","SS1604513963567","","null","","","","","","","","","","","","<img src=images/blank.png width =""500"" height = ""500"" style=""border:5px solid black"">","","",""
"","149.91499995812774","stimulus-presentation","271","394852","0.0-20.0-1.28","SS1604513963567","<img src='images/complex/14.png' width ='500' height = '500' style='border:5px solid black'>","40","mixed_simple_deviant","images/complex/8.png","images/complex/14.png","images/simple/1.png,images/simple/7.png,images/simple/8.png,images/simple/12.png,images/simple/5.png,images/simple/13.png,images/simple/18.png","2","null","","200","349.91499995812774","","","","background","",""
"","null","html-keyboard-response","272","396040","0.0-20.0-0.29","SS1604513963567","","null","","","","","","","","","","","","<img src=images/blank.png width =""500"" height = ""500"" style=""border:5px solid black"">","","",""
"","446.3949999772012","stimulus-presentation","273","396691","0.0-20.0-1.29","SS1604513963567","<img src='images/simple/18.png' width ='500' height = '500' style='border:5px solid black'>","40","mixed_simple_deviant","images/complex/8.png","images/complex/14.png","images/simple/1.png,images/simple/7.png,images/simple/8.png,images/simple/12.png,images/simple/5.png,images/simple/13.png,images/simple/18.png","2","null","","200","646.3949999772012","","","","deviant","",""
"","null","html-keyboard-response","274","397841","0.0-20.0-0.30","SS1604513963567","","null","","","","","","","","","","","","<img src=images/blank.png width =""500"" height = ""500"" style=""border:5px solid black"">","","",""
"","153.7799999350682","stimulus-presentation","275","398200","0.0-20.0-1.30","SS1604513963567","<img src='images/complex/14.png' width ='500' height = '500' style='border:5px solid black'>","40","mixed_simple_deviant","images/complex/8.png","images/complex/14.png","images/simple/1.png,images/simple/7.png,images/simple/8.png,images/simple/12.png,images/simple/5.png,images/simple/13.png,images/simple/18.png","2","null","","200","353.7799999350682","","","","background","",""
"","null","html-keyboard-response","276","399114","0.0-20.0-0.31","SS1604513963567","","null","","","","","","","","","","","","<img src=images/blank.png width =""500"" height = ""500"" style=""border:5px solid black"">","","",""
"","159.21000007074326","stimulus-presentation","277","399477","0.0-20.0-1.31","SS1604513963567","<img src='images/complex/14.png' width ='500' height = '500' style='border:5px solid black'>","40","mixed_simple_deviant","images/complex/8.png","images/complex/14.png","images/simple/1.png,images/simple/7.png,images/simple/8.png,images/simple/12.png,images/simple/5.png,images/simple/13.png,images/simple/18.png","2","null","","200","359.21000007074326","","","","background","",""
"","null","html-keyboard-response","278","400576","0.0-20.0-0.32","SS1604513963567","","null","","","","","","","","","","","","<img src=images/blank.png width =""500"" height = ""500"" style=""border:5px solid black"">","","",""
"","162.18500002287328","stimulus-presentation","279","400942","0.0-20.0-1.32","SS1604513963567","<img src='images/complex/14.png' width ='500' height = '500' style='border:5px solid black'>","40","mixed_simple_deviant","images/complex/8.png","images/complex/14.png","images/simple/1.png,images/simple/7.png,images/simple/8.png,images/simple/12.png,images/simple/5.png,images/simple/13.png,images/simple/18.png","2","null","","200","362.1850000228733","","","","background","",""
"","null","html-keyboard-response","280","402123","0.0-20.0-0.33","SS1604513963567","","null","","","","","","","","","","","","<img src=images/blank.png width =""500"" height = ""500"" style=""border:5px solid black"">","","",""
"","984.8800000036135","stimulus-presentation","281","403312","0.0-20.0-1.33","SS1604513963567","<img src='images/complex/8.png' width ='500' height = '500' style='border:5px solid black'>","40","mixed_simple_deviant","images/complex/8.png","images/complex/14.png","images/simple/1.png,images/simple/7.png,images/simple/8.png,images/simple/12.png,images/simple/5.png,images/simple/13.png,images/simple/18.png","2","null","","200","1184.8800000036135","yes","227.7600000379607","","target","",""
"","null","html-keyboard-response","282","404418","0.0-20.0-0.34","SS1604513963567","","null","","","","","","","","","","","","<img src=images/blank.png width =""500"" height = ""500"" style=""border:5px solid black"">","","",""
"","50.69499998353422","stimulus-presentation","283","404672","0.0-20.0-1.34","SS1604513963567","<img src='images/simple/8.png' width ='500' height = '500' style='border:5px solid black'>","40","mixed_simple_deviant","images/complex/8.png","images/complex/14.png","images/simple/1.png,images/simple/7.png,images/simple/8.png,images/simple/12.png,images/simple/5.png,images/simple/13.png,images/simple/18.png","2","null","","200","250.69499998353422","","","","deviant","",""
