"view_history","rt","trial_type","trial_index","time_elapsed","internal_node_id","subject","trial_stimulus","key_press","task_type","task_target_stimulus","task_background_stimulus","task_deviant_stimuli","task_order_number","block_order_number","trial_order_number","minimum_viewing_duration","trial_looking_time","trial_pressed_space_bar","trial_space_bar_rt","stimulus","trial_stimulus_type"
"[{""page_index"":0,""viewing_time"":58336.91499999986}]","58337.85999999964","instructions","0","58395","0.0-0.0","SS1604513459919","","","","","","","","","","","","","","",""
"[{""page_index"":0,""viewing_time"":5219.7699999960605},{""page_index"":1,""viewing_time"":3687.985000004119},{""page_index"":2,""viewing_time"":2098.0500000005122},{""page_index"":3,""viewing_time"":9048.114999997779},{""page_index"":4,""viewing_time"":3935.6750000006286},{""page_index"":3,""viewing_time"":3908.2300000009127},{""page_index"":4,""viewing_time"":3016.124999994645},{""page_index"":5,""viewing_time"":3211.9050000037532},{""page_index"":6,""viewing_time"":1441.9199999974808},{""page_index"":7,""viewing_time"":1308.2649999996647},{""page_index"":8,""viewing_time"":1537.7950000038254}]","38414.44000000047","instructions","1","96814","0.0-1.0","SS1604513459919","","","","","","","","","","","","","","",""
"[{""page_index"":0,""viewing_time"":1446.3600000017323},{""page_index"":1,""viewing_time"":9050.264999998035},{""page_index"":2,""viewing_time"":1345.7300000009127}]","11842.839999997523","instructions","2","108660","0.0-2.0","SS1604513459919","","","","","","","","","","","","","","",""
"","63335.79499999905","practice-block","3","172204","0.0-3.0","SS1604513459919","<img src='images/practice/practice_background.jpeg' width ='500' height = '500' style='border:5px solid black'>","40","null","images/practice/practice_target.jpg","null","null","null","null","","200","63535.79499999905","yes","54456.819999999425","",""
"","null","html-keyboard-response","4","173165","0.0-4.0","SS1604513459919","","null","","","","","","","","","","","","<img src=images/blank.png width =""500"" height = ""500"" style=""border:5px solid black"">",""
"","519.2850000021281","practice-block","5","173891","0.0-5.0","SS1604513459919","<img src='images/practice/practice_background.jpeg' width ='500' height = '500' style='border:5px solid black'>","40","null","images/practice/practice_target.jpg","null","null","null","null","","200","719.2850000021281","","","",""
"","null","html-keyboard-response","6","175046","0.0-6.0","SS1604513459919","","null","","","","","","","","","","","","<img src=images/blank.png width =""500"" height = ""500"" style=""border:5px solid black"">",""
"","5750.695000002452","practice-block","7","181002","0.0-7.0","SS1604513459919","<img src='images/practice/practice_deviant.jpeg' width ='500' height = '500' style='border:5px solid black'>","40","null","images/practice/practice_target.jpg","null","null","null","null","","200","5950.695000002452","","","",""
"","null","html-keyboard-response","8","181978","0.0-8.0","SS1604513459919","","null","","","","","","","","","","","","<img src=images/blank.png width =""500"" height = ""500"" style=""border:5px solid black"">",""
"","8306.000000004133","practice-block","9","190490","0.0-9.0-0.0","SS1604513459919","<img src='images/practice/practice_target.jpg' width ='500' height = '500' style='border:5px solid black'>","40","null","images/practice/practice_target.jpg","null","null","null","null","","200","8506.000000004133","yes","1050.0800000008894","",""
"","null","html-keyboard-response","10","191443","0.0-10.0","SS1604513459919","","null","","","","","","","","","","","","<img src=images/blank.png width =""500"" height = ""500"" style=""border:5px solid black"">",""
"","1104.684999998426","practice-block","11","192754","0.0-11.0","SS1604513459919","<img src='images/practice/practice_background.jpeg' width ='500' height = '500' style='border:5px solid black'>","40","null","images/practice/practice_target.jpg","null","null","null","null","","200","1304.684999998426","","","",""
"[{""page_index"":0,""viewing_time"":3669}]","3670","task-instructions","12","196428","0.0-12.0","SS1604513459919","","","","","","","","","","","","","","",""
"[{""page_index"":0,""viewing_time"":213620.24999999994},{""page_index"":1,""viewing_time"":5627.869999996619},{""page_index"":2,""viewing_time"":1203.9700000023004}]","220452.68000000215","instructions","13","416883","0.0-13.0","SS1604513459919","","","","","","","","","","","","","","",""
"","null","html-keyboard-response","14","417769","0.0-14.0-0.0","SS1604513459919","","null","","","","","","","","","","","","<img src=images/blank.png width =""500"" height = ""500"" style=""border:5px solid black"">",""
"","3497.654999999213","stimulus-presentation","15","421476","0.0-14.0-1.0","SS1604513459919","<img src='images/complex/13.png' width ='500' height = '500' style='border:5px solid black'>","40","mixed_complex_deviant","images/simple/4.png","images/simple/15.png","images/complex/12.png,images/complex/1.png,images/complex/18.png,images/complex/2.png,images/complex/8.png,images/complex/13.png,images/complex/14.png","0","null","","200","3697.654999999213","yes","1608.299999999872","","deviant"
"","null","html-keyboard-response","16","422392","0.0-14.0-0.1","SS1604513459919","","null","","","","","","","","","","","","<img src=images/blank.png width =""500"" height = ""500"" style=""border:5px solid black"">",""
"","491.62000000069384","stimulus-presentation","17","423090","0.0-14.0-1.1","SS1604513459919","<img src='images/simple/15.png' width ='500' height = '500' style='border:5px solid black'>","40","mixed_complex_deviant","images/simple/4.png","images/simple/15.png","images/complex/12.png,images/complex/1.png,images/complex/18.png,images/complex/2.png,images/complex/8.png,images/complex/13.png,images/complex/14.png","0","null","","200","691.6200000006938","","","","background"
"","null","html-keyboard-response","18","424125","0.0-14.0-0.2","SS1604513459919","","null","","","","","","","","","","","","<img src=images/blank.png width =""500"" height = ""500"" style=""border:5px solid black"">",""
"","7109.724999994796","stimulus-presentation","19","431442","0.0-14.0-1.2","SS1604513459919","<img src='images/simple/4.png' width ='500' height = '500' style='border:5px solid black'>","40","mixed_complex_deviant","images/simple/4.png","images/simple/15.png","images/complex/12.png,images/complex/1.png,images/complex/18.png,images/complex/2.png,images/complex/8.png,images/complex/13.png,images/complex/14.png","0","null","","200","7309.724999994796","yes","781.7849999992177","","target"
"","null","html-keyboard-response","20","432668","0.0-14.0-0.3","SS1604513459919","","null","","","","","","","","","","","","<img src=images/blank.png width =""500"" height = ""500"" style=""border:5px solid black"">",""
"","552.9549999992014","stimulus-presentation","21","433427","0.0-14.0-1.3","SS1604513459919","<img src='images/simple/15.png' width ='500' height = '500' style='border:5px solid black'>","40","mixed_complex_deviant","images/simple/4.png","images/simple/15.png","images/complex/12.png,images/complex/1.png,images/complex/18.png,images/complex/2.png,images/complex/8.png,images/complex/13.png,images/complex/14.png","0","null","","200","752.9549999992014","","","","background"
"","null","html-keyboard-response","22","434360","0.0-14.0-0.4","SS1604513459919","","null","","","","","","","","","","","","<img src=images/blank.png width =""500"" height = ""500"" style=""border:5px solid black"">",""
"","211.21000000130152","stimulus-presentation","23","434778","0.0-14.0-1.4","SS1604513459919","<img src='images/simple/15.png' width ='500' height = '500' style='border:5px solid black'>","40","mixed_complex_deviant","images/simple/4.png","images/simple/15.png","images/complex/12.png,images/complex/1.png,images/complex/18.png,images/complex/2.png,images/complex/8.png,images/complex/13.png,images/complex/14.png","0","null","","200","411.2100000013015","","","","background"
"","null","html-keyboard-response","24","435620","0.0-14.0-0.5","SS1604513459919","","null","","","","","","","","","","","","<img src=images/blank.png width =""500"" height = ""500"" style=""border:5px solid black"">",""
"","1273.379999998724","stimulus-presentation","25","437098","0.0-14.0-1.5","SS1604513459919","<img src='images/complex/8.png' width ='500' height = '500' style='border:5px solid black'>","40","mixed_complex_deviant","images/simple/4.png","images/simple/15.png","images/complex/12.png,images/complex/1.png,images/complex/18.png,images/complex/2.png,images/complex/8.png,images/complex/13.png,images/complex/14.png","0","null","","200","1473.379999998724","","","","deviant"
"","null","html-keyboard-response","26","438201","0.0-14.0-0.6","SS1604513459919","","null","","","","","","","","","","","","<img src=images/blank.png width =""500"" height = ""500"" style=""border:5px solid black"">",""
"","2194.484999999986","stimulus-presentation","27","440602","0.0-14.0-1.6","SS1604513459919","<img src='images/simple/4.png' width ='500' height = '500' style='border:5px solid black'>","40","mixed_complex_deviant","images/simple/4.png","images/simple/15.png","images/complex/12.png,images/complex/1.png,images/complex/18.png,images/complex/2.png,images/complex/8.png,images/complex/13.png,images/complex/14.png","0","null","","200","2394.484999999986","yes","786.56499999488","","target"
"","null","html-keyboard-response","28","441558","0.0-14.0-0.7","SS1604513459919","","null","","","","","","","","","","","","<img src=images/blank.png width =""500"" height = ""500"" style=""border:5px solid black"">",""
"","374.71499999810476","stimulus-presentation","29","442138","0.0-14.0-1.7","SS1604513459919","<img src='images/simple/4.png' width ='500' height = '500' style='border:5px solid black'>","40","mixed_complex_deviant","images/simple/4.png","images/simple/15.png","images/complex/12.png,images/complex/1.png,images/complex/18.png,images/complex/2.png,images/complex/8.png,images/complex/13.png,images/complex/14.png","0","null","","200","574.7149999981048","","","","target"
"","null","html-keyboard-response","30","443434","0.0-14.0-0.8","SS1604513459919","","null","","","","","","","","","","","","<img src=images/blank.png width =""500"" height = ""500"" style=""border:5px solid black"">",""
"","659.5450000022538","stimulus-presentation","31","444299","0.0-14.0-1.8","SS1604513459919","<img src='images/simple/15.png' width ='500' height = '500' style='border:5px solid black'>","40","mixed_complex_deviant","images/simple/4.png","images/simple/15.png","images/complex/12.png,images/complex/1.png,images/complex/18.png,images/complex/2.png,images/complex/8.png,images/complex/13.png,images/complex/14.png","0","null","","200","859.5450000022538","","","","background"
"","null","html-keyboard-response","32","445157","0.0-14.0-0.9","SS1604513459919","","null","","","","","","","","","","","","<img src=images/blank.png width =""500"" height = ""500"" style=""border:5px solid black"">",""
"","184.12000000535045","stimulus-presentation","33","445546","0.0-14.0-1.9","SS1604513459919","<img src='images/simple/15.png' width ='500' height = '500' style='border:5px solid black'>","40","mixed_complex_deviant","images/simple/4.png","images/simple/15.png","images/complex/12.png,images/complex/1.png,images/complex/18.png,images/complex/2.png,images/complex/8.png,images/complex/13.png,images/complex/14.png","0","null","","200","384.12000000535045","","","","background"
"","null","html-keyboard-response","34","446611","0.0-14.0-0.10","SS1604513459919","","null","","","","","","","","","","","","<img src=images/blank.png width =""500"" height = ""500"" style=""border:5px solid black"">",""
"","201.15000000077998","stimulus-presentation","35","447018","0.0-14.0-1.10","SS1604513459919","<img src='images/simple/15.png' width ='500' height = '500' style='border:5px solid black'>","40","mixed_complex_deviant","images/simple/4.png","images/simple/15.png","images/complex/12.png,images/complex/1.png,images/complex/18.png,images/complex/2.png,images/complex/8.png,images/complex/13.png,images/complex/14.png","0","null","","200","401.15000000078","","","","background"
"","null","html-keyboard-response","36","447958","0.0-14.0-0.11","SS1604513459919","","null","","","","","","","","","","","","<img src=images/blank.png width =""500"" height = ""500"" style=""border:5px solid black"">",""
"","1498.249999996915","stimulus-presentation","37","449666","0.0-14.0-1.11","SS1604513459919","<img src='images/simple/4.png' width ='500' height = '500' style='border:5px solid black'>","40","mixed_complex_deviant","images/simple/4.png","images/simple/15.png","images/complex/12.png,images/complex/1.png,images/complex/18.png,images/complex/2.png,images/complex/8.png,images/complex/13.png,images/complex/14.png","0","null","","200","1698.249999996915","yes","730.4149999981746","","target"
"","null","html-keyboard-response","38","450638","0.0-14.0-0.12","SS1604513459919","","null","","","","","","","","","","","","<img src=images/blank.png width =""500"" height = ""500"" style=""border:5px solid black"">",""
"","310.23499999719206","stimulus-presentation","39","451154","0.0-14.0-1.12","SS1604513459919","<img src='images/simple/15.png' width ='500' height = '500' style='border:5px solid black'>","40","mixed_complex_deviant","images/simple/4.png","images/simple/15.png","images/complex/12.png,images/complex/1.png,images/complex/18.png,images/complex/2.png,images/complex/8.png,images/complex/13.png,images/complex/14.png","0","null","","200","510.23499999719206","","","","background"
"","null","html-keyboard-response","40","452247","0.0-14.0-0.13","SS1604513459919","","null","","","","","","","","","","","","<img src=images/blank.png width =""500"" height = ""500"" style=""border:5px solid black"">",""
"","568.1400000030408","stimulus-presentation","41","453026","0.0-14.0-1.13","SS1604513459919","<img src='images/complex/2.png' width ='500' height = '500' style='border:5px solid black'>","40","mixed_complex_deviant","images/simple/4.png","images/simple/15.png","images/complex/12.png,images/complex/1.png,images/complex/18.png,images/complex/2.png,images/complex/8.png,images/complex/13.png,images/complex/14.png","0","null","","200","768.1400000030408","","","","deviant"
"","null","html-keyboard-response","42","454144","0.0-14.0-0.14","SS1604513459919","","null","","","","","","","","","","","","<img src=images/blank.png width =""500"" height = ""500"" style=""border:5px solid black"">",""
"","204.25999999861233","stimulus-presentation","43","454555","0.0-14.0-1.14","SS1604513459919","<img src='images/simple/15.png' width ='500' height = '500' style='border:5px solid black'>","40","mixed_complex_deviant","images/simple/4.png","images/simple/15.png","images/complex/12.png,images/complex/1.png,images/complex/18.png,images/complex/2.png,images/complex/8.png,images/complex/13.png,images/complex/14.png","0","null","","200","404.25999999861233","","","","background"
"","null","html-keyboard-response","44","455591","0.0-14.0-0.15","SS1604513459919","","null","","","","","","","","","","","","<img src=images/blank.png width =""500"" height = ""500"" style=""border:5px solid black"">",""
"","133.65000000339933","stimulus-presentation","45","455930","0.0-14.0-1.15","SS1604513459919","<img src='images/simple/15.png' width ='500' height = '500' style='border:5px solid black'>","40","mixed_complex_deviant","images/simple/4.png","images/simple/15.png","images/complex/12.png,images/complex/1.png,images/complex/18.png,images/complex/2.png,images/complex/8.png,images/complex/13.png,images/complex/14.png","0","null","","200","333.6500000033993","","","","background"
"","null","html-keyboard-response","46","457035","0.0-14.0-0.16","SS1604513459919","","null","","","","","","","","","","","","<img src=images/blank.png width =""500"" height = ""500"" style=""border:5px solid black"">",""
"","273.7799999958952","stimulus-presentation","47","457514","0.0-14.0-1.16","SS1604513459919","<img src='images/simple/15.png' width ='500' height = '500' style='border:5px solid black'>","40","mixed_complex_deviant","images/simple/4.png","images/simple/15.png","images/complex/12.png,images/complex/1.png,images/complex/18.png,images/complex/2.png,images/complex/8.png,images/complex/13.png,images/complex/14.png","0","null","","200","473.7799999958952","","","","background"
"","null","html-keyboard-response","48","458466","0.0-14.0-0.17","SS1604513459919","","null","","","","","","","","","","","","<img src=images/blank.png width =""500"" height = ""500"" style=""border:5px solid black"">",""
"","87939.19499999902","stimulus-presentation","49","546612","0.0-14.0-1.17","SS1604513459919","<img src='images/simple/15.png' width ='500' height = '500' style='border:5px solid black'>","40","mixed_complex_deviant","images/simple/4.png","images/simple/15.png","images/complex/12.png,images/complex/1.png,images/complex/18.png,images/complex/2.png,images/complex/8.png,images/complex/13.png,images/complex/14.png","0","null","","200","88139.19499999902","","","","background"
"","null","html-keyboard-response","50","547565","0.0-14.0-0.18","SS1604513459919","","null","","","","","","","","","","","","<img src=images/blank.png width =""500"" height = ""500"" style=""border:5px solid black"">",""
"","190.01500000013039","stimulus-presentation","51","547962","0.0-14.0-1.18","SS1604513459919","<img src='images/simple/15.png' width ='500' height = '500' style='border:5px solid black'>","40","mixed_complex_deviant","images/simple/4.png","images/simple/15.png","images/complex/12.png,images/complex/1.png,images/complex/18.png,images/complex/2.png,images/complex/8.png,images/complex/13.png,images/complex/14.png","0","null","","200","390.0150000001304","","","","background"
"","null","html-keyboard-response","52","549017","0.0-14.0-0.19","SS1604513459919","","null","","","","","","","","","","","","<img src=images/blank.png width =""500"" height = ""500"" style=""border:5px solid black"">",""
"","7720.170000000624","stimulus-presentation","53","556946","0.0-14.0-1.19","SS1604513459919","<img src='images/simple/15.png' width ='500' height = '500' style='border:5px solid black'>","40","mixed_complex_deviant","images/simple/4.png","images/simple/15.png","images/complex/12.png,images/complex/1.png,images/complex/18.png,images/complex/2.png,images/complex/8.png,images/complex/13.png,images/complex/14.png","0","null","","200","7920.170000000624","","","","background"
"","null","html-keyboard-response","54","558128","0.0-14.0-0.20","SS1604513459919","","null","","","","","","","","","","","","<img src=images/blank.png width =""500"" height = ""500"" style=""border:5px solid black"">",""
"","106.6449999997858","stimulus-presentation","55","558442","0.0-14.0-1.20","SS1604513459919","<img src='images/simple/15.png' width ='500' height = '500' style='border:5px solid black'>","40","mixed_complex_deviant","images/simple/4.png","images/simple/15.png","images/complex/12.png,images/complex/1.png,images/complex/18.png,images/complex/2.png,images/complex/8.png,images/complex/13.png,images/complex/14.png","0","null","","200","306.6449999997858","","","","background"
"","null","html-keyboard-response","56","559678","0.0-14.0-0.21","SS1604513459919","","null","","","","","","","","","","","","<img src=images/blank.png width =""500"" height = ""500"" style=""border:5px solid black"">",""
"","6022.645000004559","stimulus-presentation","57","565907","0.0-14.0-1.21","SS1604513459919","<img src='images/simple/15.png' width ='500' height = '500' style='border:5px solid black'>","40","mixed_complex_deviant","images/simple/4.png","images/simple/15.png","images/complex/12.png,images/complex/1.png,images/complex/18.png,images/complex/2.png,images/complex/8.png,images/complex/13.png,images/complex/14.png","0","null","","200","6222.645000004559","","","","background"
"","null","html-keyboard-response","58","567122","0.0-14.0-0.22","SS1604513459919","","null","","","","","","","","","","","","<img src=images/blank.png width =""500"" height = ""500"" style=""border:5px solid black"">",""
"","3577.3950000002515","stimulus-presentation","59","570906","0.0-14.0-1.22","SS1604513459919","<img src='images/simple/15.png' width ='500' height = '500' style='border:5px solid black'>","40","mixed_complex_deviant","images/simple/4.png","images/simple/15.png","images/complex/12.png,images/complex/1.png,images/complex/18.png,images/complex/2.png,images/complex/8.png,images/complex/13.png,images/complex/14.png","0","null","","200","3777.3950000002515","","","","background"
"","null","html-keyboard-response","60","571893","0.0-14.0-0.23","SS1604513459919","","null","","","","","","","","","","","","<img src=images/blank.png width =""500"" height = ""500"" style=""border:5px solid black"">",""
"","5095.685000000172","stimulus-presentation","61","577195","0.0-14.0-1.23","SS1604513459919","<img src='images/simple/15.png' width ='500' height = '500' style='border:5px solid black'>","40","mixed_complex_deviant","images/simple/4.png","images/simple/15.png","images/complex/12.png,images/complex/1.png,images/complex/18.png,images/complex/2.png,images/complex/8.png,images/complex/13.png,images/complex/14.png","0","null","","200","5295.685000000172","","","","background"
"","null","html-keyboard-response","62","578417","0.0-14.0-0.24","SS1604513459919","","null","","","","","","","","","","","","<img src=images/blank.png width =""500"" height = ""500"" style=""border:5px solid black"">",""
"","1663.9599999979837","stimulus-presentation","63","580290","0.0-14.0-1.24","SS1604513459919","<img src='images/simple/15.png' width ='500' height = '500' style='border:5px solid black'>","40","mixed_complex_deviant","images/simple/4.png","images/simple/15.png","images/complex/12.png,images/complex/1.png,images/complex/18.png,images/complex/2.png,images/complex/8.png,images/complex/13.png,images/complex/14.png","0","null","","200","1863.9599999979837","","","","background"
"","null","html-keyboard-response","64","581183","0.0-14.0-0.25","SS1604513459919","","null","","","","","","","","","","","","<img src=images/blank.png width =""500"" height = ""500"" style=""border:5px solid black"">",""
"","235.13500000257045","stimulus-presentation","65","581626","0.0-14.0-1.25","SS1604513459919","<img src='images/simple/15.png' width ='500' height = '500' style='border:5px solid black'>","40","mixed_complex_deviant","images/simple/4.png","images/simple/15.png","images/complex/12.png,images/complex/1.png,images/complex/18.png,images/complex/2.png,images/complex/8.png,images/complex/13.png,images/complex/14.png","0","null","","200","435.13500000257045","","","","background"
"","null","html-keyboard-response","66","582552","0.0-14.0-0.26","SS1604513459919","","null","","","","","","","","","","","","<img src=images/blank.png width =""500"" height = ""500"" style=""border:5px solid black"">",""
"","33.179999998537824","stimulus-presentation","67","582794","0.0-14.0-1.26","SS1604513459919","<img src='images/complex/14.png' width ='500' height = '500' style='border:5px solid black'>","40","mixed_complex_deviant","images/simple/4.png","images/simple/15.png","images/complex/12.png,images/complex/1.png,images/complex/18.png,images/complex/2.png,images/complex/8.png,images/complex/13.png,images/complex/14.png","0","null","","200","233.17999999853782","","","","deviant"
"","null","html-keyboard-response","68","584098","0.0-14.0-0.27","SS1604513459919","","null","","","","","","","","","","","","<img src=images/blank.png width =""500"" height = ""500"" style=""border:5px solid black"">",""
"","179.86500000557862","stimulus-presentation","69","584490","0.0-14.0-1.27","SS1604513459919","<img src='images/simple/15.png' width ='500' height = '500' style='border:5px solid black'>","40","mixed_complex_deviant","images/simple/4.png","images/simple/15.png","images/complex/12.png,images/complex/1.png,images/complex/18.png,images/complex/2.png,images/complex/8.png,images/complex/13.png,images/complex/14.png","0","null","","200","379.8650000055786","","","","background"
"","null","html-keyboard-response","70","585729","0.0-14.0-0.28","SS1604513459919","","null","","","","","","","","","","","","<img src=images/blank.png width =""500"" height = ""500"" style=""border:5px solid black"">",""
"","210.44000000250526","stimulus-presentation","71","586146","0.0-14.0-1.28","SS1604513459919","<img src='images/simple/4.png' width ='500' height = '500' style='border:5px solid black'>","40","mixed_complex_deviant","images/simple/4.png","images/simple/15.png","images/complex/12.png,images/complex/1.png,images/complex/18.png,images/complex/2.png,images/complex/8.png,images/complex/13.png,images/complex/14.png","0","null","","200","410.44000000250526","","","","target"
"","null","html-keyboard-response","72","587182","0.0-14.0-0.29","SS1604513459919","","null","","","","","","","","","","","","<img src=images/blank.png width =""500"" height = ""500"" style=""border:5px solid black"">",""
"","501.1400000002468","stimulus-presentation","73","587891","0.0-14.0-1.29","SS1604513459919","<img src='images/complex/1.png' width ='500' height = '500' style='border:5px solid black'>","40","mixed_complex_deviant","images/simple/4.png","images/simple/15.png","images/complex/12.png,images/complex/1.png,images/complex/18.png,images/complex/2.png,images/complex/8.png,images/complex/13.png,images/complex/14.png","0","null","","200","701.1400000002468","","","","deviant"
"","null","html-keyboard-response","74","589058","0.0-14.0-0.30","SS1604513459919","","null","","","","","","","","","","","","<img src=images/blank.png width =""500"" height = ""500"" style=""border:5px solid black"">",""
"","2985.564999995404","stimulus-presentation","75","592250","0.0-14.0-1.30","SS1604513459919","<img src='images/simple/4.png' width ='500' height = '500' style='border:5px solid black'>","40","mixed_complex_deviant","images/simple/4.png","images/simple/15.png","images/complex/12.png,images/complex/1.png,images/complex/18.png,images/complex/2.png,images/complex/8.png,images/complex/13.png,images/complex/14.png","0","null","","200","3185.564999995404","yes","1041.994999999646","","target"
"","null","html-keyboard-response","76","593420","0.0-14.0-0.31","SS1604513459919","","null","","","","","","","","","","","","<img src=images/blank.png width =""500"" height = ""500"" style=""border:5px solid black"">",""
"","1776.9499999994878","stimulus-presentation","77","595402","0.0-14.0-1.31","SS1604513459919","<img src='images/simple/15.png' width ='500' height = '500' style='border:5px solid black'>","40","mixed_complex_deviant","images/simple/4.png","images/simple/15.png","images/complex/12.png,images/complex/1.png,images/complex/18.png,images/complex/2.png,images/complex/8.png,images/complex/13.png,images/complex/14.png","0","null","","200","1976.9499999994878","","","","background"
"","null","html-keyboard-response","78","596252","0.0-14.0-0.32","SS1604513459919","","null","","","","","","","","","","","","<img src=images/blank.png width =""500"" height = ""500"" style=""border:5px solid black"">",""
"","190.9799999993993","stimulus-presentation","79","596650","0.0-14.0-1.32","SS1604513459919","<img src='images/simple/15.png' width ='500' height = '500' style='border:5px solid black'>","40","mixed_complex_deviant","images/simple/4.png","images/simple/15.png","images/complex/12.png,images/complex/1.png,images/complex/18.png,images/complex/2.png,images/complex/8.png,images/complex/13.png,images/complex/14.png","0","null","","200","390.9799999993993","","","","background"
"","null","html-keyboard-response","80","597657","0.0-14.0-0.33","SS1604513459919","","null","","","","","","","","","","","","<img src=images/blank.png width =""500"" height = ""500"" style=""border:5px solid black"">",""
"","10179.059999994934","stimulus-presentation","81","608044","0.0-14.0-1.33","SS1604513459919","<img src='images/simple/15.png' width ='500' height = '500' style='border:5px solid black'>","40","mixed_complex_deviant","images/simple/4.png","images/simple/15.png","images/complex/12.png,images/complex/1.png,images/complex/18.png,images/complex/2.png,images/complex/8.png,images/complex/13.png,images/complex/14.png","0","null","","200","10379.059999994934","","","","background"
"","null","html-keyboard-response","82","609233","0.0-14.0-0.34","SS1604513459919","","null","","","","","","","","","","","","<img src=images/blank.png width =""500"" height = ""500"" style=""border:5px solid black"">",""
"","161.9499999943655","stimulus-presentation","83","609603","0.0-14.0-1.34","SS1604513459919","<img src='images/simple/15.png' width ='500' height = '500' style='border:5px solid black'>","40","mixed_complex_deviant","images/simple/4.png","images/simple/15.png","images/complex/12.png,images/complex/1.png,images/complex/18.png,images/complex/2.png,images/complex/8.png,images/complex/13.png,images/complex/14.png","0","null","","200","361.9499999943655","","","","background"
"","null","html-keyboard-response","84","610566","0.0-14.0-0.35","SS1604513459919","","null","","","","","","","","","","","","<img src=images/blank.png width =""500"" height = ""500"" style=""border:5px solid black"">",""
"","132.7599999931408","stimulus-presentation","85","610907","0.0-14.0-1.35","SS1604513459919","<img src='images/simple/15.png' width ='500' height = '500' style='border:5px solid black'>","40","mixed_complex_deviant","images/simple/4.png","images/simple/15.png","images/complex/12.png,images/complex/1.png,images/complex/18.png,images/complex/2.png,images/complex/8.png,images/complex/13.png,images/complex/14.png","0","null","","200","332.7599999931408","","","","background"
"","null","html-keyboard-response","86","611916","0.0-14.0-0.36","SS1604513459919","","null","","","","","","","","","","","","<img src=images/blank.png width =""500"" height = ""500"" style=""border:5px solid black"">",""
"","647.0049999989569","stimulus-presentation","87","612771","0.0-14.0-1.36","SS1604513459919","<img src='images/simple/15.png' width ='500' height = '500' style='border:5px solid black'>","40","mixed_complex_deviant","images/simple/4.png","images/simple/15.png","images/complex/12.png,images/complex/1.png,images/complex/18.png,images/complex/2.png,images/complex/8.png,images/complex/13.png,images/complex/14.png","0","null","","200","847.0049999989569","","","","background"
"","null","html-keyboard-response","88","613938","0.0-14.0-0.37","SS1604513459919","","null","","","","","","","","","","","","<img src=images/blank.png width =""500"" height = ""500"" style=""border:5px solid black"">",""
"","57.14499999885447","stimulus-presentation","89","614203","0.0-14.0-1.37","SS1604513459919","<img src='images/simple/15.png' width ='500' height = '500' style='border:5px solid black'>","40","mixed_complex_deviant","images/simple/4.png","images/simple/15.png","images/complex/12.png,images/complex/1.png,images/complex/18.png,images/complex/2.png,images/complex/8.png,images/complex/13.png,images/complex/14.png","0","null","","200","257.1449999988545","","","","background"
"","null","html-keyboard-response","90","615433","0.0-14.0-0.38","SS1604513459919","","null","","","","","","","","","","","","<img src=images/blank.png width =""500"" height = ""500"" style=""border:5px solid black"">",""
"","178.169999999227","stimulus-presentation","91","615819","0.0-14.0-1.38","SS1604513459919","<img src='images/simple/15.png' width ='500' height = '500' style='border:5px solid black'>","40","mixed_complex_deviant","images/simple/4.png","images/simple/15.png","images/complex/12.png,images/complex/1.png,images/complex/18.png,images/complex/2.png,images/complex/8.png,images/complex/13.png,images/complex/14.png","0","null","","200","378.169999999227","","","","background"
"","null","html-keyboard-response","92","616941","0.0-14.0-0.39","SS1604513459919","","null","","","","","","","","","","","","<img src=images/blank.png width =""500"" height = ""500"" style=""border:5px solid black"">",""
"","630.2700000014156","stimulus-presentation","93","617779","0.0-14.0-1.39","SS1604513459919","<img src='images/complex/18.png' width ='500' height = '500' style='border:5px solid black'>","40","mixed_complex_deviant","images/simple/4.png","images/simple/15.png","images/complex/12.png,images/complex/1.png,images/complex/18.png,images/complex/2.png,images/complex/8.png,images/complex/13.png,images/complex/14.png","0","null","","200","830.2700000014156","","","","deviant"
"","null","html-keyboard-response","94","618933","0.0-14.0-0.40","SS1604513459919","","null","","","","","","","","","","","","<img src=images/blank.png width =""500"" height = ""500"" style=""border:5px solid black"">",""
"","1311.185000005993","stimulus-presentation","95","620451","0.0-14.0-1.40","SS1604513459919","<img src='images/simple/15.png' width ='500' height = '500' style='border:5px solid black'>","40","mixed_complex_deviant","images/simple/4.png","images/simple/15.png","images/complex/12.png,images/complex/1.png,images/complex/18.png,images/complex/2.png,images/complex/8.png,images/complex/13.png,images/complex/14.png","0","null","","200","1511.185000005993","","","","background"
"","null","html-keyboard-response","96","621734","0.0-14.0-0.41","SS1604513459919","","null","","","","","","","","","","","","<img src=images/blank.png width =""500"" height = ""500"" style=""border:5px solid black"">",""
"","531.0199999948964","stimulus-presentation","97","622477","0.0-14.0-1.41","SS1604513459919","<img src='images/simple/15.png' width ='500' height = '500' style='border:5px solid black'>","40","mixed_complex_deviant","images/simple/4.png","images/simple/15.png","images/complex/12.png,images/complex/1.png,images/complex/18.png,images/complex/2.png,images/complex/8.png,images/complex/13.png,images/complex/14.png","0","null","","200","731.0199999948964","","","","background"
"","null","html-keyboard-response","98","623486","0.0-14.0-0.42","SS1604513459919","","null","","","","","","","","","","","","<img src=images/blank.png width =""500"" height = ""500"" style=""border:5px solid black"">",""
"","1836.8100000007544","stimulus-presentation","99","625531","0.0-14.0-1.42","SS1604513459919","<img src='images/simple/15.png' width ='500' height = '500' style='border:5px solid black'>","40","mixed_complex_deviant","images/simple/4.png","images/simple/15.png","images/complex/12.png,images/complex/1.png,images/complex/18.png,images/complex/2.png,images/complex/8.png,images/complex/13.png,images/complex/14.png","0","null","","200","2036.8100000007544","","","","background"
"","null","html-keyboard-response","100","626444","0.0-14.0-0.43","SS1604513459919","","null","","","","","","","","","","","","<img src=images/blank.png width =""500"" height = ""500"" style=""border:5px solid black"">",""
"","62272.3649999972","stimulus-presentation","101","688924","0.0-14.0-1.43","SS1604513459919","<img src='images/simple/15.png' width ='500' height = '500' style='border:5px solid black'>","40","mixed_complex_deviant","images/simple/4.png","images/simple/15.png","images/complex/12.png,images/complex/1.png,images/complex/18.png,images/complex/2.png,images/complex/8.png,images/complex/13.png,images/complex/14.png","0","null","","200","62472.3649999972","","","","background"
"","null","html-keyboard-response","102","689818","0.0-14.0-0.44","SS1604513459919","","null","","","","","","","","","","","","<img src=images/blank.png width =""500"" height = ""500"" style=""border:5px solid black"">",""
"","205.01999999396503","stimulus-presentation","103","690234","0.0-14.0-1.44","SS1604513459919","<img src='images/complex/12.png' width ='500' height = '500' style='border:5px solid black'>","40","mixed_complex_deviant","images/simple/4.png","images/simple/15.png","images/complex/12.png,images/complex/1.png,images/complex/18.png,images/complex/2.png,images/complex/8.png,images/complex/13.png,images/complex/14.png","0","null","","200","405.01999999396503","","","","deviant"
"","null","html-keyboard-response","104","691542","0.0-14.0-0.45","SS1604513459919","","null","","","","","","","","","","","","<img src=images/blank.png width =""500"" height = ""500"" style=""border:5px solid black"">",""
"","282.18500000378117","stimulus-presentation","105","692034","0.0-14.0-1.45","SS1604513459919","<img src='images/simple/15.png' width ='500' height = '500' style='border:5px solid black'>","40","mixed_complex_deviant","images/simple/4.png","images/simple/15.png","images/complex/12.png,images/complex/1.png,images/complex/18.png,images/complex/2.png,images/complex/8.png,images/complex/13.png,images/complex/14.png","0","null","","200","482.18500000378117","","","","background"
"","null","html-keyboard-response","106","693265","0.0-14.0-0.46","SS1604513459919","","null","","","","","","","","","","","","<img src=images/blank.png width =""500"" height = ""500"" style=""border:5px solid black"">",""
"","185.13499999977648","stimulus-presentation","107","693658","0.0-14.0-1.46","SS1604513459919","<img src='images/simple/4.png' width ='500' height = '500' style='border:5px solid black'>","40","mixed_complex_deviant","images/simple/4.png","images/simple/15.png","images/complex/12.png,images/complex/1.png,images/complex/18.png,images/complex/2.png,images/complex/8.png,images/complex/13.png,images/complex/14.png","0","null","","200","385.1349999997765","","","","target"
"","null","html-keyboard-response","108","694502","0.0-14.0-0.47","SS1604513459919","","null","","","","","","","","","","","","<img src=images/blank.png width =""500"" height = ""500"" style=""border:5px solid black"">",""
"","259.3450000057928","stimulus-presentation","109","694970","0.0-14.0-1.47","SS1604513459919","<img src='images/simple/15.png' width ='500' height = '500' style='border:5px solid black'>","40","mixed_complex_deviant","images/simple/4.png","images/simple/15.png","images/complex/12.png,images/complex/1.png,images/complex/18.png,images/complex/2.png,images/complex/8.png,images/complex/13.png,images/complex/14.png","0","null","","200","459.3450000057928","","","","background"
"","null","html-keyboard-response","110","696202","0.0-14.0-0.48","SS1604513459919","","null","","","","","","","","","","","","<img src=images/blank.png width =""500"" height = ""500"" style=""border:5px solid black"">",""
"","271.4750000014901","stimulus-presentation","111","696682","0.0-14.0-1.48","SS1604513459919","<img src='images/simple/15.png' width ='500' height = '500' style='border:5px solid black'>","40","mixed_complex_deviant","images/simple/4.png","images/simple/15.png","images/complex/12.png,images/complex/1.png,images/complex/18.png,images/complex/2.png,images/complex/8.png,images/complex/13.png,images/complex/14.png","0","null","","200","471.4750000014901","","","","background"
"[{""page_index"":0,""viewing_time"":3589}]","3589","task-instructions","112","700279","0.0-15.0","SS1604513459919","","","","","","","","","","","","","","",""
"[{""page_index"":0,""viewing_time"":1221.765000001993},{""page_index"":1,""viewing_time"":4900.079999999492},{""page_index"":2,""viewing_time"":1194.1299999962794}]","7316.5349999980535","instructions","113","707601","0.0-16.0","SS1604513459919","","","","","","","","","","","","","","",""
"","null","html-keyboard-response","114","708456","0.0-17.0-0.0","SS1604513459919","","null","","","","","","","","","","","","<img src=images/blank.png width =""500"" height = ""500"" style=""border:5px solid black"">",""
"","25969.99499999953","stimulus-presentation","115","734635","0.0-17.0-1.0","SS1604513459919","<img src='images/simple/7.png' width ='500' height = '500' style='border:5px solid black'>","40","all_simple","images/simple/18.png","images/simple/7.png","images/simple/6.png,images/simple/14.png,images/simple/12.png,images/simple/10.png,images/simple/3.png,images/simple/8.png,images/simple/5.png","1","null","","200","26169.99499999953","","","","background"
"","null","html-keyboard-response","116","735649","0.0-17.0-0.1","SS1604513459919","","null","","","","","","","","","","","","<img src=images/blank.png width =""500"" height = ""500"" style=""border:5px solid black"">",""
"","384.8050000014482","stimulus-presentation","117","736242","0.0-17.0-1.1","SS1604513459919","<img src='images/simple/7.png' width ='500' height = '500' style='border:5px solid black'>","40","all_simple","images/simple/18.png","images/simple/7.png","images/simple/6.png,images/simple/14.png,images/simple/12.png,images/simple/10.png,images/simple/3.png,images/simple/8.png,images/simple/5.png","1","null","","200","584.8050000014482","","","","background"
"","null","html-keyboard-response","118","737415","0.0-17.0-0.2","SS1604513459919","","null","","","","","","","","","","","","<img src=images/blank.png width =""500"" height = ""500"" style=""border:5px solid black"">",""
"","203.67500000435393","stimulus-presentation","119","737826","0.0-17.0-1.2","SS1604513459919","<img src='images/simple/12.png' width ='500' height = '500' style='border:5px solid black'>","40","all_simple","images/simple/18.png","images/simple/7.png","images/simple/6.png,images/simple/14.png,images/simple/12.png,images/simple/10.png,images/simple/3.png,images/simple/8.png,images/simple/5.png","1","null","","200","403.67500000435393","","","","deviant"
"","null","html-keyboard-response","120","738739","0.0-17.0-0.3","SS1604513459919","","null","","","","","","","","","","","","<img src=images/blank.png width =""500"" height = ""500"" style=""border:5px solid black"">",""
"","254.9300000028452","stimulus-presentation","121","739202","0.0-17.0-1.3","SS1604513459919","<img src='images/simple/7.png' width ='500' height = '500' style='border:5px solid black'>","40","all_simple","images/simple/18.png","images/simple/7.png","images/simple/6.png,images/simple/14.png,images/simple/12.png,images/simple/10.png,images/simple/3.png,images/simple/8.png,images/simple/5.png","1","null","","200","454.9300000028452","","","","background"
"","null","html-keyboard-response","122","740248","0.0-17.0-0.4","SS1604513459919","","null","","","","","","","","","","","","<img src=images/blank.png width =""500"" height = ""500"" style=""border:5px solid black"">",""
"","567.8549999939278","stimulus-presentation","123","741026","0.0-17.0-1.4","SS1604513459919","<img src='images/simple/7.png' width ='500' height = '500' style='border:5px solid black'>","40","all_simple","images/simple/18.png","images/simple/7.png","images/simple/6.png,images/simple/14.png,images/simple/12.png,images/simple/10.png,images/simple/3.png,images/simple/8.png,images/simple/5.png","1","null","","200","767.8549999939278","","","","background"
"","null","html-keyboard-response","124","742090","0.0-17.0-0.5","SS1604513459919","","null","","","","","","","","","","","","<img src=images/blank.png width =""500"" height = ""500"" style=""border:5px solid black"">",""
"","623.8199999935459","stimulus-presentation","125","742922","0.0-17.0-1.5","SS1604513459919","<img src='images/simple/7.png' width ='500' height = '500' style='border:5px solid black'>","40","all_simple","images/simple/18.png","images/simple/7.png","images/simple/6.png,images/simple/14.png,images/simple/12.png,images/simple/10.png,images/simple/3.png,images/simple/8.png,images/simple/5.png","1","null","","200","823.8199999935459","","","","background"
"","null","html-keyboard-response","126","744158","0.0-17.0-0.6","SS1604513459919","","null","","","","","","","","","","","","<img src=images/blank.png width =""500"" height = ""500"" style=""border:5px solid black"">",""
"","2579.494999998249","stimulus-presentation","127","746946","0.0-17.0-1.6","SS1604513459919","<img src='images/simple/18.png' width ='500' height = '500' style='border:5px solid black'>","40","all_simple","images/simple/18.png","images/simple/7.png","images/simple/6.png,images/simple/14.png,images/simple/12.png,images/simple/10.png,images/simple/3.png,images/simple/8.png,images/simple/5.png","1","null","","200","2779.494999998249","yes","1300.1949999962235","","target"
"","null","html-keyboard-response","128","747973","0.0-17.0-0.7","SS1604513459919","","null","","","","","","","","","","","","<img src=images/blank.png width =""500"" height = ""500"" style=""border:5px solid black"">",""
"","331.72499999636784","stimulus-presentation","129","748514","0.0-17.0-1.7","SS1604513459919","<img src='images/simple/7.png' width ='500' height = '500' style='border:5px solid black'>","40","all_simple","images/simple/18.png","images/simple/7.png","images/simple/6.png,images/simple/14.png,images/simple/12.png,images/simple/10.png,images/simple/3.png,images/simple/8.png,images/simple/5.png","1","null","","200","531.7249999963678","","","","background"
"","null","html-keyboard-response","130","749761","0.0-17.0-0.8","SS1604513459919","","null","","","","","","","","","","","","<img src=images/blank.png width =""500"" height = ""500"" style=""border:5px solid black"">",""
"","127.52000000176486","stimulus-presentation","131","750099","0.0-17.0-1.8","SS1604513459919","<img src='images/simple/7.png' width ='500' height = '500' style='border:5px solid black'>","40","all_simple","images/simple/18.png","images/simple/7.png","images/simple/6.png,images/simple/14.png,images/simple/12.png,images/simple/10.png,images/simple/3.png,images/simple/8.png,images/simple/5.png","1","null","","200","327.52000000176486","","","","background"
"","null","html-keyboard-response","132","751228","0.0-17.0-0.9","SS1604513459919","","null","","","","","","","","","","","","<img src=images/blank.png width =""500"" height = ""500"" style=""border:5px solid black"">",""
"","141.5500000002794","stimulus-presentation","133","751579","0.0-17.0-1.9","SS1604513459919","<img src='images/simple/7.png' width ='500' height = '500' style='border:5px solid black'>","40","all_simple","images/simple/18.png","images/simple/7.png","images/simple/6.png,images/simple/14.png,images/simple/12.png,images/simple/10.png,images/simple/3.png,images/simple/8.png,images/simple/5.png","1","null","","200","341.5500000002794","","","","background"
"","null","html-keyboard-response","134","752873","0.0-17.0-0.10","SS1604513459919","","null","","","","","","","","","","","","<img src=images/blank.png width =""500"" height = ""500"" style=""border:5px solid black"">",""
"","111.4949999974342","stimulus-presentation","135","753195","0.0-17.0-1.10","SS1604513459919","<img src='images/simple/7.png' width ='500' height = '500' style='border:5px solid black'>","40","all_simple","images/simple/18.png","images/simple/7.png","images/simple/6.png,images/simple/14.png,images/simple/12.png,images/simple/10.png,images/simple/3.png,images/simple/8.png,images/simple/5.png","1","null","","200","311.4949999974342","","","","background"
"","null","html-keyboard-response","136","754382","0.0-17.0-0.11","SS1604513459919","","null","","","","","","","","","","","","<img src=images/blank.png width =""500"" height = ""500"" style=""border:5px solid black"">",""
"","117.59999999776483","stimulus-presentation","137","754715","0.0-17.0-1.11","SS1604513459919","<img src='images/simple/7.png' width ='500' height = '500' style='border:5px solid black'>","40","all_simple","images/simple/18.png","images/simple/7.png","images/simple/6.png,images/simple/14.png,images/simple/12.png,images/simple/10.png,images/simple/3.png,images/simple/8.png,images/simple/5.png","1","null","","200","317.5999999977648","","","","background"
"","null","html-keyboard-response","138","755648","0.0-17.0-0.12","SS1604513459919","","null","","","","","","","","","","","","<img src=images/blank.png width =""500"" height = ""500"" style=""border:5px solid black"">",""
"","46649.879999997094","stimulus-presentation","139","802508","0.0-17.0-1.12","SS1604513459919","<img src='images/simple/7.png' width ='500' height = '500' style='border:5px solid black'>","40","all_simple","images/simple/18.png","images/simple/7.png","images/simple/6.png,images/simple/14.png,images/simple/12.png,images/simple/10.png,images/simple/3.png,images/simple/8.png,images/simple/5.png","1","null","","200","46849.879999997094","","","","background"
"","null","html-keyboard-response","140","803390","0.0-17.0-0.13","SS1604513459919","","null","","","","","","","","","","","","<img src=images/blank.png width =""500"" height = ""500"" style=""border:5px solid black"">",""
"","296.6999999989057","stimulus-presentation","141","803899","0.0-17.0-1.13","SS1604513459919","<img src='images/simple/8.png' width ='500' height = '500' style='border:5px solid black'>","40","all_simple","images/simple/18.png","images/simple/7.png","images/simple/6.png,images/simple/14.png,images/simple/12.png,images/simple/10.png,images/simple/3.png,images/simple/8.png,images/simple/5.png","1","null","","200","496.6999999989057","","","","deviant"
"","null","html-keyboard-response","142","804810","0.0-17.0-0.14","SS1604513459919","","null","","","","","","","","","","","","<img src=images/blank.png width =""500"" height = ""500"" style=""border:5px solid black"">",""
"","166.19499999796972","stimulus-presentation","143","805187","0.0-17.0-1.14","SS1604513459919","<img src='images/simple/7.png' width ='500' height = '500' style='border:5px solid black'>","40","all_simple","images/simple/18.png","images/simple/7.png","images/simple/6.png,images/simple/14.png,images/simple/12.png,images/simple/10.png,images/simple/3.png,images/simple/8.png,images/simple/5.png","1","null","","200","366.1949999979697","","","","background"
"","null","html-keyboard-response","144","806328","0.0-17.0-0.15","SS1604513459919","","null","","","","","","","","","","","","<img src=images/blank.png width =""500"" height = ""500"" style=""border:5px solid black"">",""
"","136.89999999769498","stimulus-presentation","145","806675","0.0-17.0-1.15","SS1604513459919","<img src='images/simple/7.png' width ='500' height = '500' style='border:5px solid black'>","40","all_simple","images/simple/18.png","images/simple/7.png","images/simple/6.png,images/simple/14.png,images/simple/12.png,images/simple/10.png,images/simple/3.png,images/simple/8.png,images/simple/5.png","1","null","","200","336.899999997695","","","","background"
"","null","html-keyboard-response","146","807706","0.0-17.0-0.16","SS1604513459919","","null","","","","","","","","","","","","<img src=images/blank.png width =""500"" height = ""500"" style=""border:5px solid black"">",""
"","142.82000000099652","stimulus-presentation","147","808058","0.0-17.0-1.16","SS1604513459919","<img src='images/simple/7.png' width ='500' height = '500' style='border:5px solid black'>","40","all_simple","images/simple/18.png","images/simple/7.png","images/simple/6.png,images/simple/14.png,images/simple/12.png,images/simple/10.png,images/simple/3.png,images/simple/8.png,images/simple/5.png","1","null","","200","342.8200000009965","","","","background"
"","null","html-keyboard-response","148","809163","0.0-17.0-0.17","SS1604513459919","","null","","","","","","","","","","","","<img src=images/blank.png width =""500"" height = ""500"" style=""border:5px solid black"">",""
"","149.02499999874271","stimulus-presentation","149","809523","0.0-17.0-1.17","SS1604513459919","<img src='images/simple/18.png' width ='500' height = '500' style='border:5px solid black'>","40","all_simple","images/simple/18.png","images/simple/7.png","images/simple/6.png,images/simple/14.png,images/simple/12.png,images/simple/10.png,images/simple/3.png,images/simple/8.png,images/simple/5.png","1","null","","200","349.0249999987427","","","","target"
"","null","html-keyboard-response","150","810676","0.0-17.0-0.18","SS1604513459919","","null","","","","","","","","","","","","<img src=images/blank.png width =""500"" height = ""500"" style=""border:5px solid black"">",""
"","4949.014999998268","stimulus-presentation","151","816307","0.0-17.0-1.18","SS1604513459919","<img src='images/simple/6.png' width ='500' height = '500' style='border:5px solid black'>","40","all_simple","images/simple/18.png","images/simple/7.png","images/simple/6.png,images/simple/14.png,images/simple/12.png,images/simple/10.png,images/simple/3.png,images/simple/8.png,images/simple/5.png","1","null","","200","5149.014999998268","","","","deviant"
"","null","html-keyboard-response","152","817319","0.0-17.0-0.19","SS1604513459919","","null","","","","","","","","","","","","<img src=images/blank.png width =""500"" height = ""500"" style=""border:5px solid black"">",""
"","37942.59500000044","stimulus-presentation","153","855476","0.0-17.0-1.19","SS1604513459919","<img src='images/simple/7.png' width ='500' height = '500' style='border:5px solid black'>","40","all_simple","images/simple/18.png","images/simple/7.png","images/simple/6.png,images/simple/14.png,images/simple/12.png,images/simple/10.png,images/simple/3.png,images/simple/8.png,images/simple/5.png","1","null","","200","38142.59500000044","","","","background"
"","null","html-keyboard-response","154","856641","0.0-17.0-0.20","SS1604513459919","","null","","","","","","","","","","","","<img src=images/blank.png width =""500"" height = ""500"" style=""border:5px solid black"">",""
"","439.7499999977881","stimulus-presentation","155","857291","0.0-17.0-1.20","SS1604513459919","<img src='images/simple/7.png' width ='500' height = '500' style='border:5px solid black'>","40","all_simple","images/simple/18.png","images/simple/7.png","images/simple/6.png,images/simple/14.png,images/simple/12.png,images/simple/10.png,images/simple/3.png,images/simple/8.png,images/simple/5.png","1","null","","200","639.7499999977881","","","","background"
"","null","html-keyboard-response","156","858143","0.0-17.0-0.21","SS1604513459919","","null","","","","","","","","","","","","<img src=images/blank.png width =""500"" height = ""500"" style=""border:5px solid black"">",""
"","3241.945000001462","stimulus-presentation","157","861595","0.0-17.0-1.21","SS1604513459919","<img src='images/simple/7.png' width ='500' height = '500' style='border:5px solid black'>","40","all_simple","images/simple/18.png","images/simple/7.png","images/simple/6.png,images/simple/14.png,images/simple/12.png,images/simple/10.png,images/simple/3.png,images/simple/8.png,images/simple/5.png","1","null","","200","3441.945000001462","","","","background"
"","null","html-keyboard-response","158","862453","0.0-17.0-0.22","SS1604513459919","","null","","","","","","","","","","","","<img src=images/blank.png width =""500"" height = ""500"" style=""border:5px solid black"">",""
"","227.3249999997206","stimulus-presentation","159","862891","0.0-17.0-1.22","SS1604513459919","<img src='images/simple/7.png' width ='500' height = '500' style='border:5px solid black'>","40","all_simple","images/simple/18.png","images/simple/7.png","images/simple/6.png,images/simple/14.png,images/simple/12.png,images/simple/10.png,images/simple/3.png,images/simple/8.png,images/simple/5.png","1","null","","200","427.3249999997206","","","","background"
"","null","html-keyboard-response","160","864151","0.0-17.0-0.23","SS1604513459919","","null","","","","","","","","","","","","<img src=images/blank.png width =""500"" height = ""500"" style=""border:5px solid black"">",""
"","161.29000000364613","stimulus-presentation","161","864523","0.0-17.0-1.23","SS1604513459919","<img src='images/simple/3.png' width ='500' height = '500' style='border:5px solid black'>","40","all_simple","images/simple/18.png","images/simple/7.png","images/simple/6.png,images/simple/14.png,images/simple/12.png,images/simple/10.png,images/simple/3.png,images/simple/8.png,images/simple/5.png","1","null","","200","361.2900000036461","","","","deviant"
"","null","html-keyboard-response","162","865786","0.0-17.0-0.24","SS1604513459919","","null","","","","","","","","","","","","<img src=images/blank.png width =""500"" height = ""500"" style=""border:5px solid black"">",""
"","126.55000000086147","stimulus-presentation","163","866124","0.0-17.0-1.24","SS1604513459919","<img src='images/simple/7.png' width ='500' height = '500' style='border:5px solid black'>","40","all_simple","images/simple/18.png","images/simple/7.png","images/simple/6.png,images/simple/14.png,images/simple/12.png,images/simple/10.png,images/simple/3.png,images/simple/8.png,images/simple/5.png","1","null","","200","326.5500000008615","","","","background"
"","null","html-keyboard-response","164","867291","0.0-17.0-0.25","SS1604513459919","","null","","","","","","","","","","","","<img src=images/blank.png width =""500"" height = ""500"" style=""border:5px solid black"">",""
"","63727.34499999927","stimulus-presentation","165","931227","0.0-17.0-1.25","SS1604513459919","<img src='images/simple/7.png' width ='500' height = '500' style='border:5px solid black'>","40","all_simple","images/simple/18.png","images/simple/7.png","images/simple/6.png,images/simple/14.png,images/simple/12.png,images/simple/10.png,images/simple/3.png,images/simple/8.png,images/simple/5.png","1","null","","200","63927.34499999927","","","","background"
"","null","html-keyboard-response","166","932395","0.0-17.0-0.26","SS1604513459919","","null","","","","","","","","","","","","<img src=images/blank.png width =""500"" height = ""500"" style=""border:5px solid black"">",""
"","273.34999999578577","stimulus-presentation","167","932882","0.0-17.0-1.26","SS1604513459919","<img src='images/simple/7.png' width ='500' height = '500' style='border:5px solid black'>","40","all_simple","images/simple/18.png","images/simple/7.png","images/simple/6.png,images/simple/14.png,images/simple/12.png,images/simple/10.png,images/simple/3.png,images/simple/8.png,images/simple/5.png","1","null","","200","473.34999999578577","","","","background"
"","null","html-keyboard-response","168","934063","0.0-17.0-0.27","SS1604513459919","","null","","","","","","","","","","","","<img src=images/blank.png width =""500"" height = ""500"" style=""border:5px solid black"">",""
"","199.67000000178814","stimulus-presentation","169","934474","0.0-17.0-1.27","SS1604513459919","<img src='images/simple/7.png' width ='500' height = '500' style='border:5px solid black'>","40","all_simple","images/simple/18.png","images/simple/7.png","images/simple/6.png,images/simple/14.png,images/simple/12.png,images/simple/10.png,images/simple/3.png,images/simple/8.png,images/simple/5.png","1","null","","200","399.67000000178814","","","","background"
"","null","html-keyboard-response","170","935488","0.0-17.0-0.28","SS1604513459919","","null","","","","","","","","","","","","<img src=images/blank.png width =""500"" height = ""500"" style=""border:5px solid black"">",""
"","157.69000000006054","stimulus-presentation","171","935858","0.0-17.0-1.28","SS1604513459919","<img src='images/simple/7.png' width ='500' height = '500' style='border:5px solid black'>","40","all_simple","images/simple/18.png","images/simple/7.png","images/simple/6.png,images/simple/14.png,images/simple/12.png,images/simple/10.png,images/simple/3.png,images/simple/8.png,images/simple/5.png","1","null","","200","357.69000000006054","","","","background"
"","null","html-keyboard-response","172","936953","0.0-17.0-0.29","SS1604513459919","","null","","","","","","","","","","","","<img src=images/blank.png width =""500"" height = ""500"" style=""border:5px solid black"">",""
"","125.77500000048894","stimulus-presentation","173","937290","0.0-17.0-1.29","SS1604513459919","<img src='images/simple/18.png' width ='500' height = '500' style='border:5px solid black'>","40","all_simple","images/simple/18.png","images/simple/7.png","images/simple/6.png,images/simple/14.png,images/simple/12.png,images/simple/10.png,images/simple/3.png,images/simple/8.png,images/simple/5.png","1","null","","200","325.77500000048894","","","","target"
"","null","html-keyboard-response","174","938387","0.0-17.0-0.30","SS1604513459919","","null","","","","","","","","","","","","<img src=images/blank.png width =""500"" height = ""500"" style=""border:5px solid black"">",""
"","129.69000000157394","stimulus-presentation","175","938730","0.0-17.0-1.30","SS1604513459919","<img src='images/simple/18.png' width ='500' height = '500' style='border:5px solid black'>","40","all_simple","images/simple/18.png","images/simple/7.png","images/simple/6.png,images/simple/14.png,images/simple/12.png,images/simple/10.png,images/simple/3.png,images/simple/8.png,images/simple/5.png","1","null","","200","329.69000000157394","","","","target"
"","null","html-keyboard-response","176","939791","0.0-17.0-0.31","SS1604513459919","","null","","","","","","","","","","","","<img src=images/blank.png width =""500"" height = ""500"" style=""border:5px solid black"">",""
"","216.0199999999022","stimulus-presentation","177","940218","0.0-17.0-1.31","SS1604513459919","<img src='images/simple/7.png' width ='500' height = '500' style='border:5px solid black'>","40","all_simple","images/simple/18.png","images/simple/7.png","images/simple/6.png,images/simple/14.png,images/simple/12.png,images/simple/10.png,images/simple/3.png,images/simple/8.png,images/simple/5.png","1","null","","200","416.0199999999022","","","","background"
"","null","html-keyboard-response","178","941383","0.0-17.0-0.32","SS1604513459919","","null","","","","","","","","","","","","<img src=images/blank.png width =""500"" height = ""500"" style=""border:5px solid black"">",""
"","119.43500000052154","stimulus-presentation","179","941715","0.0-17.0-1.32","SS1604513459919","<img src='images/simple/7.png' width ='500' height = '500' style='border:5px solid black'>","40","all_simple","images/simple/18.png","images/simple/7.png","images/simple/6.png,images/simple/14.png,images/simple/12.png,images/simple/10.png,images/simple/3.png,images/simple/8.png,images/simple/5.png","1","null","","200","319.43500000052154","","","","background"
"","null","html-keyboard-response","180","942942","0.0-17.0-0.33","SS1604513459919","","null","","","","","","","","","","","","<img src=images/blank.png width =""500"" height = ""500"" style=""border:5px solid black"">",""
"","129.11000000161584","stimulus-presentation","181","943282","0.0-17.0-1.33","SS1604513459919","<img src='images/simple/7.png' width ='500' height = '500' style='border:5px solid black'>","40","all_simple","images/simple/18.png","images/simple/7.png","images/simple/6.png,images/simple/14.png,images/simple/12.png,images/simple/10.png,images/simple/3.png,images/simple/8.png,images/simple/5.png","1","null","","200","329.11000000161584","","","","background"
"","null","html-keyboard-response","182","944394","0.0-17.0-0.34","SS1604513459919","","null","","","","","","","","","","","","<img src=images/blank.png width =""500"" height = ""500"" style=""border:5px solid black"">",""
"","204.0950000010198","stimulus-presentation","183","944810","0.0-17.0-1.34","SS1604513459919","<img src='images/simple/10.png' width ='500' height = '500' style='border:5px solid black'>","40","all_simple","images/simple/18.png","images/simple/7.png","images/simple/6.png,images/simple/14.png,images/simple/12.png,images/simple/10.png,images/simple/3.png,images/simple/8.png,images/simple/5.png","1","null","","200","404.0950000010198","","","","deviant"
"","null","html-keyboard-response","184","945897","0.0-17.0-0.35","SS1604513459919","","null","","","","","","","","","","","","<img src=images/blank.png width =""500"" height = ""500"" style=""border:5px solid black"">",""
"","207.09999999962747","stimulus-presentation","185","946314","0.0-17.0-1.35","SS1604513459919","<img src='images/simple/7.png' width ='500' height = '500' style='border:5px solid black'>","40","all_simple","images/simple/18.png","images/simple/7.png","images/simple/6.png,images/simple/14.png,images/simple/12.png,images/simple/10.png,images/simple/3.png,images/simple/8.png,images/simple/5.png","1","null","","200","407.09999999962747","","","","background"
"","null","html-keyboard-response","186","947134","0.0-17.0-0.36","SS1604513459919","","null","","","","","","","","","","","","<img src=images/blank.png width =""500"" height = ""500"" style=""border:5px solid black"">",""
"","2466.11000000115","stimulus-presentation","187","949810","0.0-17.0-1.36","SS1604513459919","<img src='images/simple/18.png' width ='500' height = '500' style='border:5px solid black'>","40","all_simple","images/simple/18.png","images/simple/7.png","images/simple/6.png,images/simple/14.png,images/simple/12.png,images/simple/10.png,images/simple/3.png,images/simple/8.png,images/simple/5.png","1","null","","200","2666.11000000115","yes","1082.5550000008661","","target"
"","null","html-keyboard-response","188","951089","0.0-17.0-0.37","SS1604513459919","","null","","","","","","","","","","","","<img src=images/blank.png width =""500"" height = ""500"" style=""border:5px solid black"">",""
"","357.45999999926426","stimulus-presentation","189","951658","0.0-17.0-1.37","SS1604513459919","<img src='images/simple/7.png' width ='500' height = '500' style='border:5px solid black'>","40","all_simple","images/simple/18.png","images/simple/7.png","images/simple/6.png,images/simple/14.png,images/simple/12.png,images/simple/10.png,images/simple/3.png,images/simple/8.png,images/simple/5.png","1","null","","200","557.4599999992643","","","","background"
"","null","html-keyboard-response","190","952855","0.0-17.0-0.38","SS1604513459919","","null","","","","","","","","","","","","<img src=images/blank.png width =""500"" height = ""500"" style=""border:5px solid black"">",""
"","298.6200000013923","stimulus-presentation","191","953363","0.0-17.0-1.38","SS1604513459919","<img src='images/simple/7.png' width ='500' height = '500' style='border:5px solid black'>","40","all_simple","images/simple/18.png","images/simple/7.png","images/simple/6.png,images/simple/14.png,images/simple/12.png,images/simple/10.png,images/simple/3.png,images/simple/8.png,images/simple/5.png","1","null","","200","498.6200000013923","","","","background"
"","null","html-keyboard-response","192","954261","0.0-17.0-0.39","SS1604513459919","","null","","","","","","","","","","","","<img src=images/blank.png width =""500"" height = ""500"" style=""border:5px solid black"">",""
"","152.01499999966472","stimulus-presentation","193","954626","0.0-17.0-1.39","SS1604513459919","<img src='images/simple/18.png' width ='500' height = '500' style='border:5px solid black'>","40","all_simple","images/simple/18.png","images/simple/7.png","images/simple/6.png,images/simple/14.png,images/simple/12.png,images/simple/10.png,images/simple/3.png,images/simple/8.png,images/simple/5.png","1","null","","200","352.0149999996647","","","","target"
"","null","html-keyboard-response","194","955656","0.0-17.0-0.40","SS1604513459919","","null","","","","","","","","","","","","<img src=images/blank.png width =""500"" height = ""500"" style=""border:5px solid black"">",""
"","146.80499999667518","stimulus-presentation","195","956018","0.0-17.0-1.40","SS1604513459919","<img src='images/simple/7.png' width ='500' height = '500' style='border:5px solid black'>","40","all_simple","images/simple/18.png","images/simple/7.png","images/simple/6.png,images/simple/14.png,images/simple/12.png,images/simple/10.png,images/simple/3.png,images/simple/8.png,images/simple/5.png","1","null","","200","346.8049999966752","","","","background"
"","null","html-keyboard-response","196","957257","0.0-17.0-0.41","SS1604513459919","","null","","","","","","","","","","","","<img src=images/blank.png width =""500"" height = ""500"" style=""border:5px solid black"">",""
"","286.64999999455176","stimulus-presentation","197","957754","0.0-17.0-1.41","SS1604513459919","<img src='images/simple/14.png' width ='500' height = '500' style='border:5px solid black'>","40","all_simple","images/simple/18.png","images/simple/7.png","images/simple/6.png,images/simple/14.png,images/simple/12.png,images/simple/10.png,images/simple/3.png,images/simple/8.png,images/simple/5.png","1","null","","200","486.64999999455176","","","","deviant"
"","null","html-keyboard-response","198","958831","0.0-17.0-0.42","SS1604513459919","","null","","","","","","","","","","","","<img src=images/blank.png width =""500"" height = ""500"" style=""border:5px solid black"">",""
"","198.150000003865","stimulus-presentation","199","959242","0.0-17.0-1.42","SS1604513459919","<img src='images/simple/7.png' width ='500' height = '500' style='border:5px solid black'>","40","all_simple","images/simple/18.png","images/simple/7.png","images/simple/6.png,images/simple/14.png,images/simple/12.png,images/simple/10.png,images/simple/3.png,images/simple/8.png,images/simple/5.png","1","null","","200","398.150000003865","","","","background"
"","null","html-keyboard-response","200","960093","0.0-17.0-0.43","SS1604513459919","","null","","","","","","","","","","","","<img src=images/blank.png width =""500"" height = ""500"" style=""border:5px solid black"">",""
"","6241.925000002026","stimulus-presentation","201","966546","0.0-17.0-1.43","SS1604513459919","<img src='images/simple/18.png' width ='500' height = '500' style='border:5px solid black'>","40","all_simple","images/simple/18.png","images/simple/7.png","images/simple/6.png,images/simple/14.png,images/simple/12.png,images/simple/10.png,images/simple/3.png,images/simple/8.png,images/simple/5.png","1","null","","200","6441.925000002026","yes","1410.100000000908","","target"
"","null","html-keyboard-response","202","967372","0.0-17.0-0.44","SS1604513459919","","null","","","","","","","","","","","","<img src=images/blank.png width =""500"" height = ""500"" style=""border:5px solid black"">",""
"","338.2350000028964","stimulus-presentation","203","967922","0.0-17.0-1.44","SS1604513459919","<img src='images/simple/5.png' width ='500' height = '500' style='border:5px solid black'>","40","all_simple","images/simple/18.png","images/simple/7.png","images/simple/6.png,images/simple/14.png,images/simple/12.png,images/simple/10.png,images/simple/3.png,images/simple/8.png,images/simple/5.png","1","null","","200","538.2350000028964","","","","deviant"
"","null","html-keyboard-response","204","969196","0.0-17.0-0.45","SS1604513459919","","null","","","","","","","","","","","","<img src=images/blank.png width =""500"" height = ""500"" style=""border:5px solid black"">",""
"","95450.85000000102","stimulus-presentation","205","1064859","0.0-17.0-1.45","SS1604513459919","<img src='images/simple/7.png' width ='500' height = '500' style='border:5px solid black'>","40","all_simple","images/simple/18.png","images/simple/7.png","images/simple/6.png,images/simple/14.png,images/simple/12.png,images/simple/10.png,images/simple/3.png,images/simple/8.png,images/simple/5.png","1","null","","200","95650.85000000102","","","","background"
"","null","html-keyboard-response","206","1065716","0.0-17.0-0.46","SS1604513459919","","null","","","","","","","","","","","","<img src=images/blank.png width =""500"" height = ""500"" style=""border:5px solid black"">",""
"","370.26499999756925","stimulus-presentation","207","1066298","0.0-17.0-1.46","SS1604513459919","<img src='images/simple/7.png' width ='500' height = '500' style='border:5px solid black'>","40","all_simple","images/simple/18.png","images/simple/7.png","images/simple/6.png,images/simple/14.png,images/simple/12.png,images/simple/10.png,images/simple/3.png,images/simple/8.png,images/simple/5.png","1","null","","200","570.2649999975692","","","","background"
"","null","html-keyboard-response","208","1067386","0.0-17.0-0.47","SS1604513459919","","null","","","","","","","","","","","","<img src=images/blank.png width =""500"" height = ""500"" style=""border:5px solid black"">",""
"","25474.264999997104","stimulus-presentation","209","1093075","0.0-17.0-1.47","SS1604513459919","<img src='images/simple/7.png' width ='500' height = '500' style='border:5px solid black'>","40","all_simple","images/simple/18.png","images/simple/7.png","images/simple/6.png,images/simple/14.png,images/simple/12.png,images/simple/10.png,images/simple/3.png,images/simple/8.png,images/simple/5.png","1","null","","200","25674.264999997104","","","","background"
"","null","html-keyboard-response","210","1093895","0.0-17.0-0.48","SS1604513459919","","null","","","","","","","","","","","","<img src=images/blank.png width =""500"" height = ""500"" style=""border:5px solid black"">",""
"","17110.135000002803","stimulus-presentation","211","1111219","0.0-17.0-1.48","SS1604513459919","<img src='images/simple/7.png' width ='500' height = '500' style='border:5px solid black'>","40","all_simple","images/simple/18.png","images/simple/7.png","images/simple/6.png,images/simple/14.png,images/simple/12.png,images/simple/10.png,images/simple/3.png,images/simple/8.png,images/simple/5.png","1","null","","200","17310.135000002803","","","","background"
"[{""page_index"":0,""viewing_time"":2369}]","2369","task-instructions","212","1113599","0.0-18.0","SS1604513459919","","","","","","","","","","","","","","",""
"[{""page_index"":0,""viewing_time"":1125.5549999987707},{""page_index"":1,""viewing_time"":4287.734999998007},{""page_index"":2,""viewing_time"":2376.0000000037253}]","7789.790000002366","instructions","213","1121401","0.0-19.0","SS1604513459919","","","","","","","","","","","","","","",""
"","null","html-keyboard-response","214","1122574","0.0-20.0-0.0","SS1604513459919","","null","","","","","","","","","","","","<img src=images/blank.png width =""500"" height = ""500"" style=""border:5px solid black"">",""
"","1961.219999997411","stimulus-presentation","215","1124746","0.0-20.0-1.0","SS1604513459919","<img src='images/complex/9.png' width ='500' height = '500' style='border:5px solid black'>","40","all_complex","images/complex/10.png","images/complex/9.png","images/complex/5.png,images/complex/16.png,images/complex/15.png,images/complex/11.png,images/complex/17.png,images/complex/3.png,images/complex/6.png","2","null","","200","2161.219999997411","","","","background"
"","null","html-keyboard-response","216","1125832","0.0-20.0-0.1","SS1604513459919","","null","","","","","","","","","","","","<img src=images/blank.png width =""500"" height = ""500"" style=""border:5px solid black"">",""
"","117.65499999467283","stimulus-presentation","217","1126163","0.0-20.0-1.1","SS1604513459919","<img src='images/complex/9.png' width ='500' height = '500' style='border:5px solid black'>","40","all_complex","images/complex/10.png","images/complex/9.png","images/complex/5.png,images/complex/16.png,images/complex/15.png,images/complex/11.png,images/complex/17.png,images/complex/3.png,images/complex/6.png","2","null","","200","317.65499999467283","","","","background"
"","null","html-keyboard-response","218","1127345","0.0-20.0-0.2","SS1604513459919","","null","","","","","","","","","","","","<img src=images/blank.png width =""500"" height = ""500"" style=""border:5px solid black"">",""
"","113.20499999425374","stimulus-presentation","219","1127674","0.0-20.0-1.2","SS1604513459919","<img src='images/complex/9.png' width ='500' height = '500' style='border:5px solid black'>","40","all_complex","images/complex/10.png","images/complex/9.png","images/complex/5.png,images/complex/16.png,images/complex/15.png,images/complex/11.png,images/complex/17.png,images/complex/3.png,images/complex/6.png","2","null","","200","313.20499999425374","","","","background"
"","null","html-keyboard-response","220","1128835","0.0-20.0-0.3","SS1604513459919","","null","","","","","","","","","","","","<img src=images/blank.png width =""500"" height = ""500"" style=""border:5px solid black"">",""
"","107.23500000312924","stimulus-presentation","221","1129154","0.0-20.0-1.3","SS1604513459919","<img src='images/complex/6.png' width ='500' height = '500' style='border:5px solid black'>","40","all_complex","images/complex/10.png","images/complex/9.png","images/complex/5.png,images/complex/16.png,images/complex/15.png,images/complex/11.png,images/complex/17.png,images/complex/3.png,images/complex/6.png","2","null","","200","307.23500000312924","","","","deviant"
"","null","html-keyboard-response","222","1130375","0.0-20.0-0.4","SS1604513459919","","null","","","","","","","","","","","","<img src=images/blank.png width =""500"" height = ""500"" style=""border:5px solid black"">",""
"","241.2750000001397","stimulus-presentation","223","1130835","0.0-20.0-1.4","SS1604513459919","<img src='images/complex/9.png' width ='500' height = '500' style='border:5px solid black'>","40","all_complex","images/complex/10.png","images/complex/9.png","images/complex/5.png,images/complex/16.png,images/complex/15.png,images/complex/11.png,images/complex/17.png,images/complex/3.png,images/complex/6.png","2","null","","200","441.2750000001397","","","","background"
"","null","html-keyboard-response","224","1132038","0.0-20.0-0.5","SS1604513459919","","null","","","","","","","","","","","","<img src=images/blank.png width =""500"" height = ""500"" style=""border:5px solid black"">",""
"","105.19999999809079","stimulus-presentation","225","1132355","0.0-20.0-1.5","SS1604513459919","<img src='images/complex/16.png' width ='500' height = '500' style='border:5px solid black'>","40","all_complex","images/complex/10.png","images/complex/9.png","images/complex/5.png,images/complex/16.png,images/complex/15.png,images/complex/11.png,images/complex/17.png,images/complex/3.png,images/complex/6.png","2","null","","200","305.1999999980908","","","","deviant"
"","null","html-keyboard-response","226","1133201","0.0-20.0-0.6","SS1604513459919","","null","","","","","","","","","","","","<img src=images/blank.png width =""500"" height = ""500"" style=""border:5px solid black"">",""
"","126031.63499999931","stimulus-presentation","227","1259444","0.0-20.0-1.6","SS1604513459919","<img src='images/complex/9.png' width ='500' height = '500' style='border:5px solid black'>","40","all_complex","images/complex/10.png","images/complex/9.png","images/complex/5.png,images/complex/16.png,images/complex/15.png,images/complex/11.png,images/complex/17.png,images/complex/3.png,images/complex/6.png","2","null","","200","126231.63499999931","","","","background"
"","null","html-keyboard-response","228","1260552","0.0-20.0-0.7","SS1604513459919","","null","","","","","","","","","","","","<img src=images/blank.png width =""500"" height = ""500"" style=""border:5px solid black"">",""
"","199.18999999947846","stimulus-presentation","229","1260963","0.0-20.0-1.7","SS1604513459919","<img src='images/complex/9.png' width ='500' height = '500' style='border:5px solid black'>","40","all_complex","images/complex/10.png","images/complex/9.png","images/complex/5.png,images/complex/16.png,images/complex/15.png,images/complex/11.png,images/complex/17.png,images/complex/3.png,images/complex/6.png","2","null","","200","399.18999999947846","","","","background"
"","null","html-keyboard-response","230","1261937","0.0-20.0-0.8","SS1604513459919","","null","","","","","","","","","","","","<img src=images/blank.png width =""500"" height = ""500"" style=""border:5px solid black"">",""
"","160.13000000384636","stimulus-presentation","231","1262314","0.0-20.0-1.8","SS1604513459919","<img src='images/complex/9.png' width ='500' height = '500' style='border:5px solid black'>","40","all_complex","images/complex/10.png","images/complex/9.png","images/complex/5.png,images/complex/16.png,images/complex/15.png,images/complex/11.png,images/complex/17.png,images/complex/3.png,images/complex/6.png","2","null","","200","360.13000000384636","","","","background"
"","null","html-keyboard-response","232","1263419","0.0-20.0-0.9","SS1604513459919","","null","","","","","","","","","","","","<img src=images/blank.png width =""500"" height = ""500"" style=""border:5px solid black"">",""
"","185.40500000375323","stimulus-presentation","233","1263818","0.0-20.0-1.9","SS1604513459919","<img src='images/complex/9.png' width ='500' height = '500' style='border:5px solid black'>","40","all_complex","images/complex/10.png","images/complex/9.png","images/complex/5.png,images/complex/16.png,images/complex/15.png,images/complex/11.png,images/complex/17.png,images/complex/3.png,images/complex/6.png","2","null","","200","385.40500000375323","","","","background"
"","null","html-keyboard-response","234","1264900","0.0-20.0-0.10","SS1604513459919","","null","","","","","","","","","","","","<img src=images/blank.png width =""500"" height = ""500"" style=""border:5px solid black"">",""
"","126.8449999988079","stimulus-presentation","235","1265242","0.0-20.0-1.10","SS1604513459919","<img src='images/complex/5.png' width ='500' height = '500' style='border:5px solid black'>","40","all_complex","images/complex/10.png","images/complex/9.png","images/complex/5.png,images/complex/16.png,images/complex/15.png,images/complex/11.png,images/complex/17.png,images/complex/3.png,images/complex/6.png","2","null","","200","326.8449999988079","","","","deviant"
"","null","html-keyboard-response","236","1266143","0.0-20.0-0.11","SS1604513459919","","null","","","","","","","","","","","","<img src=images/blank.png width =""500"" height = ""500"" style=""border:5px solid black"">",""
"","4862.574999999255","stimulus-presentation","237","1271219","0.0-20.0-1.11","SS1604513459919","<img src='images/complex/9.png' width ='500' height = '500' style='border:5px solid black'>","40","all_complex","images/complex/10.png","images/complex/9.png","images/complex/5.png,images/complex/16.png,images/complex/15.png,images/complex/11.png,images/complex/17.png,images/complex/3.png,images/complex/6.png","2","null","","200","5062.574999999255","","","","background"
"","null","html-keyboard-response","238","1272124","0.0-20.0-0.12","SS1604513459919","","null","","","","","","","","","","","","<img src=images/blank.png width =""500"" height = ""500"" style=""border:5px solid black"">",""
"","176.31499999691732","stimulus-presentation","239","1272515","0.0-20.0-1.12","SS1604513459919","<img src='images/complex/9.png' width ='500' height = '500' style='border:5px solid black'>","40","all_complex","images/complex/10.png","images/complex/9.png","images/complex/5.png,images/complex/16.png,images/complex/15.png,images/complex/11.png,images/complex/17.png,images/complex/3.png,images/complex/6.png","2","null","","200","376.3149999969173","","","","background"
"","null","html-keyboard-response","240","1273476","0.0-20.0-0.13","SS1604513459919","","null","","","","","","","","","","","","<img src=images/blank.png width =""500"" height = ""500"" style=""border:5px solid black"">",""
"","337.21999999391846","stimulus-presentation","241","1274027","0.0-20.0-1.13","SS1604513459919","<img src='images/complex/9.png' width ='500' height = '500' style='border:5px solid black'>","40","all_complex","images/complex/10.png","images/complex/9.png","images/complex/5.png,images/complex/16.png,images/complex/15.png,images/complex/11.png,images/complex/17.png,images/complex/3.png,images/complex/6.png","2","null","","200","537.2199999939185","","","","background"
"","null","html-keyboard-response","242","1275072","0.0-20.0-0.14","SS1604513459919","","null","","","","","","","","","","","","<img src=images/blank.png width =""500"" height = ""500"" style=""border:5px solid black"">",""
"","199.1299999936018","stimulus-presentation","243","1275483","0.0-20.0-1.14","SS1604513459919","<img src='images/complex/9.png' width ='500' height = '500' style='border:5px solid black'>","40","all_complex","images/complex/10.png","images/complex/9.png","images/complex/5.png,images/complex/16.png,images/complex/15.png,images/complex/11.png,images/complex/17.png,images/complex/3.png,images/complex/6.png","2","null","","200","399.1299999936018","","","","background"
"","null","html-keyboard-response","244","1276657","0.0-20.0-0.15","SS1604513459919","","null","","","","","","","","","","","","<img src=images/blank.png width =""500"" height = ""500"" style=""border:5px solid black"">",""
"","146.964999999851","stimulus-presentation","245","1277026","0.0-20.0-1.15","SS1604513459919","<img src='images/complex/10.png' width ='500' height = '500' style='border:5px solid black'>","40","all_complex","images/complex/10.png","images/complex/9.png","images/complex/5.png,images/complex/16.png,images/complex/15.png,images/complex/11.png,images/complex/17.png,images/complex/3.png,images/complex/6.png","2","null","","200","346.964999999851","","","","target"
"","null","html-keyboard-response","246","1278279","0.0-20.0-0.16","SS1604513459919","","null","","","","","","","","","","","","<img src=images/blank.png width =""500"" height = ""500"" style=""border:5px solid black"">",""
"","126.15500000538304","stimulus-presentation","247","1278618","0.0-20.0-1.16","SS1604513459919","<img src='images/complex/9.png' width ='500' height = '500' style='border:5px solid black'>","40","all_complex","images/complex/10.png","images/complex/9.png","images/complex/5.png,images/complex/16.png,images/complex/15.png,images/complex/11.png,images/complex/17.png,images/complex/3.png,images/complex/6.png","2","null","","200","326.15500000538304","","","","background"
"","null","html-keyboard-response","248","1279916","0.0-20.0-0.17","SS1604513459919","","null","","","","","","","","","","","","<img src=images/blank.png width =""500"" height = ""500"" style=""border:5px solid black"">",""
"","87.3250000004191","stimulus-presentation","249","1280218","0.0-20.0-1.17","SS1604513459919","<img src='images/complex/9.png' width ='500' height = '500' style='border:5px solid black'>","40","all_complex","images/complex/10.png","images/complex/9.png","images/complex/5.png,images/complex/16.png,images/complex/15.png,images/complex/11.png,images/complex/17.png,images/complex/3.png,images/complex/6.png","2","null","","200","287.3250000004191","","","","background"
"","null","html-keyboard-response","250","1281244","0.0-20.0-0.18","SS1604513459919","","null","","","","","","","","","","","","<img src=images/blank.png width =""500"" height = ""500"" style=""border:5px solid black"">",""
"","121.39000000013039","stimulus-presentation","251","1281579","0.0-20.0-1.18","SS1604513459919","<img src='images/complex/10.png' width ='500' height = '500' style='border:5px solid black'>","40","all_complex","images/complex/10.png","images/complex/9.png","images/complex/5.png,images/complex/16.png,images/complex/15.png,images/complex/11.png,images/complex/17.png,images/complex/3.png,images/complex/6.png","2","null","","200","321.3900000001304","","","","target"
"","null","html-keyboard-response","252","1282831","0.0-20.0-0.19","SS1604513459919","","null","","","","","","","","","","","","<img src=images/blank.png width =""500"" height = ""500"" style=""border:5px solid black"">",""
"","102.12500000488944","stimulus-presentation","253","1283146","0.0-20.0-1.19","SS1604513459919","<img src='images/complex/11.png' width ='500' height = '500' style='border:5px solid black'>","40","all_complex","images/complex/10.png","images/complex/9.png","images/complex/5.png,images/complex/16.png,images/complex/15.png,images/complex/11.png,images/complex/17.png,images/complex/3.png,images/complex/6.png","2","null","","200","302.12500000488944","","","","deviant"
"","null","html-keyboard-response","254","1284051","0.0-20.0-0.20","SS1604513459919","","null","","","","","","","","","","","","<img src=images/blank.png width =""500"" height = ""500"" style=""border:5px solid black"">",""
"","137.01500000013039","stimulus-presentation","255","1284402","0.0-20.0-1.20","SS1604513459919","<img src='images/complex/9.png' width ='500' height = '500' style='border:5px solid black'>","40","all_complex","images/complex/10.png","images/complex/9.png","images/complex/5.png,images/complex/16.png,images/complex/15.png,images/complex/11.png,images/complex/17.png,images/complex/3.png,images/complex/6.png","2","null","","200","337.0150000001304","","","","background"
"","null","html-keyboard-response","256","1285373","0.0-20.0-0.21","SS1604513459919","","null","","","","","","","","","","","","<img src=images/blank.png width =""500"" height = ""500"" style=""border:5px solid black"">",""
"","105.66000000108033","stimulus-presentation","257","1285691","0.0-20.0-1.21","SS1604513459919","<img src='images/complex/9.png' width ='500' height = '500' style='border:5px solid black'>","40","all_complex","images/complex/10.png","images/complex/9.png","images/complex/5.png,images/complex/16.png,images/complex/15.png,images/complex/11.png,images/complex/17.png,images/complex/3.png,images/complex/6.png","2","null","","200","305.66000000108033","","","","background"
"","null","html-keyboard-response","258","1286782","0.0-20.0-0.22","SS1604513459919","","null","","","","","","","","","","","","<img src=images/blank.png width =""500"" height = ""500"" style=""border:5px solid black"">",""
"","110.38000000570901","stimulus-presentation","259","1287107","0.0-20.0-1.22","SS1604513459919","<img src='images/complex/9.png' width ='500' height = '500' style='border:5px solid black'>","40","all_complex","images/complex/10.png","images/complex/9.png","images/complex/5.png,images/complex/16.png,images/complex/15.png,images/complex/11.png,images/complex/17.png,images/complex/3.png,images/complex/6.png","2","null","","200","310.380000005709","","","","background"
"","null","html-keyboard-response","260","1288403","0.0-20.0-0.23","SS1604513459919","","null","","","","","","","","","","","","<img src=images/blank.png width =""500"" height = ""500"" style=""border:5px solid black"">",""
"","155.95500000216998","stimulus-presentation","261","1288778","0.0-20.0-1.23","SS1604513459919","<img src='images/complex/9.png' width ='500' height = '500' style='border:5px solid black'>","40","all_complex","images/complex/10.png","images/complex/9.png","images/complex/5.png,images/complex/16.png,images/complex/15.png,images/complex/11.png,images/complex/17.png,images/complex/3.png,images/complex/6.png","2","null","","200","355.95500000217","","","","background"
"","null","html-keyboard-response","262","1290044","0.0-20.0-0.24","SS1604513459919","","null","","","","","","","","","","","","<img src=images/blank.png width =""500"" height = ""500"" style=""border:5px solid black"">",""
"","44.3650000016205","stimulus-presentation","263","1290306","0.0-20.0-1.24","SS1604513459919","<img src='images/complex/10.png' width ='500' height = '500' style='border:5px solid black'>","40","all_complex","images/complex/10.png","images/complex/9.png","images/complex/5.png,images/complex/16.png,images/complex/15.png,images/complex/11.png,images/complex/17.png,images/complex/3.png,images/complex/6.png","2","null","","200","244.3650000016205","","","","target"
"","null","html-keyboard-response","264","1291545","0.0-20.0-0.25","SS1604513459919","","null","","","","","","","","","","","","<img src=images/blank.png width =""500"" height = ""500"" style=""border:5px solid black"">",""
"","281.4500000020489","stimulus-presentation","265","1292042","0.0-20.0-1.25","SS1604513459919","<img src='images/complex/10.png' width ='500' height = '500' style='border:5px solid black'>","40","all_complex","images/complex/10.png","images/complex/9.png","images/complex/5.png,images/complex/16.png,images/complex/15.png,images/complex/11.png,images/complex/17.png,images/complex/3.png,images/complex/6.png","2","null","","200","481.4500000020489","","","","target"
"","null","html-keyboard-response","266","1293299","0.0-20.0-0.26","SS1604513459919","","null","","","","","","","","","","","","<img src=images/blank.png width =""500"" height = ""500"" style=""border:5px solid black"">",""
"","9645.060000002617","stimulus-presentation","267","1303155","0.0-20.0-1.26","SS1604513459919","<img src='images/complex/9.png' width ='500' height = '500' style='border:5px solid black'>","40","all_complex","images/complex/10.png","images/complex/9.png","images/complex/5.png,images/complex/16.png,images/complex/15.png,images/complex/11.png,images/complex/17.png,images/complex/3.png,images/complex/6.png","2","null","","200","9845.060000002617","","","","background"
"","null","html-keyboard-response","268","1304015","0.0-20.0-0.27","SS1604513459919","","null","","","","","","","","","","","","<img src=images/blank.png width =""500"" height = ""500"" style=""border:5px solid black"">",""
"","187.20000000018626","stimulus-presentation","269","1304418","0.0-20.0-1.27","SS1604513459919","<img src='images/complex/10.png' width ='500' height = '500' style='border:5px solid black'>","40","all_complex","images/complex/10.png","images/complex/9.png","images/complex/5.png,images/complex/16.png,images/complex/15.png,images/complex/11.png,images/complex/17.png,images/complex/3.png,images/complex/6.png","2","null","","200","387.20000000018626","","","","target"
"","null","html-keyboard-response","270","1305299","0.0-20.0-0.28","SS1604513459919","","null","","","","","","","","","","","","<img src=images/blank.png width =""500"" height = ""500"" style=""border:5px solid black"">",""
"","108.55499999900348","stimulus-presentation","271","1305627","0.0-20.0-1.28","SS1604513459919","<img src='images/complex/17.png' width ='500' height = '500' style='border:5px solid black'>","40","all_complex","images/complex/10.png","images/complex/9.png","images/complex/5.png,images/complex/16.png,images/complex/15.png,images/complex/11.png,images/complex/17.png,images/complex/3.png,images/complex/6.png","2","null","","200","308.5549999990035","","","","deviant"
"","null","html-keyboard-response","272","1306665","0.0-20.0-0.29","SS1604513459919","","null","","","","","","","","","","","","<img src=images/blank.png width =""500"" height = ""500"" style=""border:5px solid black"">",""
"","143.24999999371357","stimulus-presentation","273","1307026","0.0-20.0-1.29","SS1604513459919","<img src='images/complex/9.png' width ='500' height = '500' style='border:5px solid black'>","40","all_complex","images/complex/10.png","images/complex/9.png","images/complex/5.png,images/complex/16.png,images/complex/15.png,images/complex/11.png,images/complex/17.png,images/complex/3.png,images/complex/6.png","2","null","","200","343.2499999937136","","","","background"
"","null","html-keyboard-response","274","1308184","0.0-20.0-0.30","SS1604513459919","","null","","","","","","","","","","","","<img src=images/blank.png width =""500"" height = ""500"" style=""border:5px solid black"">",""
"","95.26999999792315","stimulus-presentation","275","1308498","0.0-20.0-1.30","SS1604513459919","<img src='images/complex/10.png' width ='500' height = '500' style='border:5px solid black'>","40","all_complex","images/complex/10.png","images/complex/9.png","images/complex/5.png,images/complex/16.png,images/complex/15.png,images/complex/11.png,images/complex/17.png,images/complex/3.png,images/complex/6.png","2","null","","200","295.26999999792315","","","","target"
"","null","html-keyboard-response","276","1309695","0.0-20.0-0.31","SS1604513459919","","null","","","","","","","","","","","","<img src=images/blank.png width =""500"" height = ""500"" style=""border:5px solid black"">",""
"","949.2749999992084","stimulus-presentation","277","1310858","0.0-20.0-1.31","SS1604513459919","<img src='images/complex/9.png' width ='500' height = '500' style='border:5px solid black'>","40","all_complex","images/complex/10.png","images/complex/9.png","images/complex/5.png,images/complex/16.png,images/complex/15.png,images/complex/11.png,images/complex/17.png,images/complex/3.png,images/complex/6.png","2","null","","200","1149.2749999992084","","","","background"
"","null","html-keyboard-response","278","1311844","0.0-20.0-0.32","SS1604513459919","","null","","","","","","","","","","","","<img src=images/blank.png width =""500"" height = ""500"" style=""border:5px solid black"">",""
"","127.69500000285916","stimulus-presentation","279","1312187","0.0-20.0-1.32","SS1604513459919","<img src='images/complex/9.png' width ='500' height = '500' style='border:5px solid black'>","40","all_complex","images/complex/10.png","images/complex/9.png","images/complex/5.png,images/complex/16.png,images/complex/15.png,images/complex/11.png,images/complex/17.png,images/complex/3.png,images/complex/6.png","2","null","","200","327.69500000285916","","","","background"
"","null","html-keyboard-response","280","1313243","0.0-20.0-0.33","SS1604513459919","","null","","","","","","","","","","","","<img src=images/blank.png width =""500"" height = ""500"" style=""border:5px solid black"">",""
"","120.12500000116415","stimulus-presentation","281","1313579","0.0-20.0-1.33","SS1604513459919","<img src='images/complex/9.png' width ='500' height = '500' style='border:5px solid black'>","40","all_complex","images/complex/10.png","images/complex/9.png","images/complex/5.png,images/complex/16.png,images/complex/15.png,images/complex/11.png,images/complex/17.png,images/complex/3.png,images/complex/6.png","2","null","","200","320.12500000116415","","","","background"
"","null","html-keyboard-response","282","1314826","0.0-20.0-0.34","SS1604513459919","","null","","","","","","","","","","","","<img src=images/blank.png width =""500"" height = ""500"" style=""border:5px solid black"">",""
"","162.66499999631196","stimulus-presentation","283","1315202","0.0-20.0-1.34","SS1604513459919","<img src='images/complex/3.png' width ='500' height = '500' style='border:5px solid black'>","40","all_complex","images/complex/10.png","images/complex/9.png","images/complex/5.png,images/complex/16.png,images/complex/15.png,images/complex/11.png,images/complex/17.png,images/complex/3.png,images/complex/6.png","2","null","","200","362.66499999631196","","","","deviant"
"","null","html-keyboard-response","284","1316116","0.0-20.0-0.35","SS1604513459919","","null","","","","","","","","","","","","<img src=images/blank.png width =""500"" height = ""500"" style=""border:5px solid black"">",""
"","2303.9099999952596","stimulus-presentation","285","1318634","0.0-20.0-1.35","SS1604513459919","<img src='images/complex/9.png' width ='500' height = '500' style='border:5px solid black'>","40","all_complex","images/complex/10.png","images/complex/9.png","images/complex/5.png,images/complex/16.png,images/complex/15.png,images/complex/11.png,images/complex/17.png,images/complex/3.png,images/complex/6.png","2","null","","200","2503.9099999952596","","","","background"
"","null","html-keyboard-response","286","1320356","0.0-20.0-0.36","SS1604513459919","","null","","","","","","","","","","","","<img src=images/blank.png width =""500"" height = ""500"" style=""border:5px solid black"">",""
"","423.3299999977462","stimulus-presentation","287","1321363","0.0-20.0-1.36","SS1604513459919","<img src='images/complex/9.png' width ='500' height = '500' style='border:5px solid black'>","40","all_complex","images/complex/10.png","images/complex/9.png","images/complex/5.png,images/complex/16.png,images/complex/15.png,images/complex/11.png,images/complex/17.png,images/complex/3.png,images/complex/6.png","2","null","","200","623.3299999977462","","","","background"
"","null","html-keyboard-response","288","1322223","0.0-20.0-0.37","SS1604513459919","","null","","","","","","","","","","","","<img src=images/blank.png width =""500"" height = ""500"" style=""border:5px solid black"">",""
