"view_history","rt","trial_type","trial_index","time_elapsed","internal_node_id","subject","trial_stimulus","key_press","task_type","task_target_stimulus","task_background_stimulus","task_deviant_stimuli","task_order_number","block_order_number","trial_order_number","minimum_viewing_duration","trial_looking_time","trial_pressed_space_bar","trial_space_bar_rt","stimulus","trial_stimulus_type","responses","question_order"
"[{""page_index"":0,""viewing_time"":3547.40499984473}]","3547.8199999779463","instructions","0","3560","0.0-0.0","SS1604517816896","","","","","","","","","","","","","","","","",""
"[{""page_index"":0,""viewing_time"":10732.70499985665},{""page_index"":1,""viewing_time"":6556.964999996126},{""page_index"":2,""viewing_time"":8032.679999945685},{""page_index"":3,""viewing_time"":26940.620000008494},{""page_index"":4,""viewing_time"":2691.0950001329184},{""page_index"":5,""viewing_time"":8046.49499990046},{""page_index"":6,""viewing_time"":1836.6050000768155},{""page_index"":7,""viewing_time"":2757.6649999246},{""page_index"":8,""viewing_time"":1039.6350000519305}]","68634.57499979995","instructions","1","72196","0.0-1.0","SS1604517816896","","","","","","","","","","","","","","","","",""
"[{""page_index"":0,""viewing_time"":6721.515000099316},{""page_index"":1,""viewing_time"":12050.344999879599},{""page_index"":2,""viewing_time"":2248.755000066012}]","21020.710000069812","instructions","2","93217","0.0-2.0","SS1604517816896","","","","","","","","","","","","","","","","",""
"","1995.389999821782","practice-block","3","95428","0.0-3.0","SS1604517816896","<img src='images/practice/practice_background.jpeg' width ='500' height = '500' style='border:5px solid black'>","40","null","images/practice/practice_target.jpg","null","null","null","null","","200","2195.389999821782","","","","","",""
"","null","html-keyboard-response","4","96434","0.0-4.0","SS1604517816896","","null","","","","","","","","","","","","<img src=images/blank.png width =""500"" height = ""500"" style=""border:5px solid black"">","","",""
"","417.335000121966","practice-block","5","97055","0.0-5.0","SS1604517816896","<img src='images/practice/practice_background.jpeg' width ='500' height = '500' style='border:5px solid black'>","40","null","images/practice/practice_target.jpg","null","null","null","null","","200","617.335000121966","","","","","",""
"","null","html-keyboard-response","6","97932","0.0-6.0","SS1604517816896","","null","","","","","","","","","","","","<img src=images/blank.png width =""500"" height = ""500"" style=""border:5px solid black"">","","",""
"","286.88499983400106","practice-block","7","98423","0.0-7.0","SS1604517816896","<img src='images/practice/practice_deviant.jpeg' width ='500' height = '500' style='border:5px solid black'>","40","null","images/practice/practice_target.jpg","null","null","null","null","","200","486.88499983400106","","","","","",""
"","null","html-keyboard-response","8","99602","0.0-8.0","SS1604517816896","","null","","","","","","","","","","","","<img src=images/blank.png width =""500"" height = ""500"" style=""border:5px solid black"">","","",""
"","4814.305000007153","practice-block","9","104619","0.0-9.0-0.0","SS1604517816896","<img src='images/practice/practice_target.jpg' width ='500' height = '500' style='border:5px solid black'>","40","null","images/practice/practice_target.jpg","null","null","null","null","","200","5014.305000007153","yes","277.2649999242276","","","",""
"","null","html-keyboard-response","10","105536","0.0-10.0","SS1604517816896","","null","","","","","","","","","","","","<img src=images/blank.png width =""500"" height = ""500"" style=""border:5px solid black"">","","",""
"","411.04000015184283","practice-block","11","106164","0.0-11.0","SS1604517816896","<img src='images/practice/practice_background.jpeg' width ='500' height = '500' style='border:5px solid black'>","40","null","images/practice/practice_target.jpg","null","null","null","null","","200","611.0400001518428","","","","","",""
"[{""page_index"":0,""viewing_time"":2108}]","2108","task-instructions","12","108273","0.0-12.0","SS1604517816896","","","","","","","","","","","","","","","","",""
"[{""page_index"":0,""viewing_time"":1933.1500001717359},{""page_index"":1,""viewing_time"":2989.820000017062},{""page_index"":2,""viewing_time"":1661.6699998266995}]","6584.740000078455","instructions","13","114859","0.0-13.0","SS1604517816896","","","","","","","","","","","","","","","","",""
"","null","html-keyboard-response","14","116106","0.0-14.0-0.0","SS1604517816896","","null","","","","","","","","","","","","<img src=images/blank.png width =""500"" height = ""500"" style=""border:5px solid black"">","","",""
"","548.7750000320375","stimulus-presentation","15","116859","0.0-14.0-1.0","SS1604517816896","<img src='images/simple/10.png' width ='500' height = '500' style='border:5px solid black'>","40","all_simple","images/simple/11.png","images/simple/10.png","images/simple/2.png,images/simple/5.png,images/simple/15.png,images/simple/8.png,images/simple/1.png,images/simple/14.png,images/simple/12.png","0","null","","200","748.7750000320375","","","","background","",""
"","null","html-keyboard-response","16","117792","0.0-14.0-0.1","SS1604517816896","","null","","","","","","","","","","","","<img src=images/blank.png width =""500"" height = ""500"" style=""border:5px solid black"">","","",""
"","2558.855000184849","stimulus-presentation","17","120552","0.0-14.0-1.1","SS1604517816896","<img src='images/simple/11.png' width ='500' height = '500' style='border:5px solid black'>","40","all_simple","images/simple/11.png","images/simple/10.png","images/simple/2.png,images/simple/5.png,images/simple/15.png,images/simple/8.png,images/simple/1.png,images/simple/14.png,images/simple/12.png","0","null","","200","2758.855000184849","","","","target","",""
"","null","html-keyboard-response","18","121635","0.0-14.0-0.2","SS1604517816896","","null","","","","","","","","","","","","<img src=images/blank.png width =""500"" height = ""500"" style=""border:5px solid black"">","","",""
"","1023.1800000183284","stimulus-presentation","19","122862","0.0-14.0-1.2","SS1604517816896","<img src='images/simple/15.png' width ='500' height = '500' style='border:5px solid black'>","40","all_simple","images/simple/11.png","images/simple/10.png","images/simple/2.png,images/simple/5.png,images/simple/15.png,images/simple/8.png,images/simple/1.png,images/simple/14.png,images/simple/12.png","0","null","","200","1223.1800000183284","","","","deviant","",""
"","null","html-keyboard-response","20","123678","0.0-14.0-0.3","SS1604517816896","","null","","","","","","","","","","","","<img src=images/blank.png width =""500"" height = ""500"" style=""border:5px solid black"">","","",""
"","750.4449998959899","stimulus-presentation","21","124646","0.0-14.0-1.3","SS1604517816896","<img src='images/simple/10.png' width ='500' height = '500' style='border:5px solid black'>","40","all_simple","images/simple/11.png","images/simple/10.png","images/simple/2.png,images/simple/5.png,images/simple/15.png,images/simple/8.png,images/simple/1.png,images/simple/14.png,images/simple/12.png","0","null","","200","950.4449998959899","","","","background","",""
"","null","html-keyboard-response","22","125939","0.0-14.0-0.4","SS1604517816896","","null","","","","","","","","","","","","<img src=images/blank.png width =""500"" height = ""500"" style=""border:5px solid black"">","","",""
"","1820.8099999465048","stimulus-presentation","23","127963","0.0-14.0-1.4","SS1604517816896","<img src='images/simple/11.png' width ='500' height = '500' style='border:5px solid black'>","40","all_simple","images/simple/11.png","images/simple/10.png","images/simple/2.png,images/simple/5.png,images/simple/15.png,images/simple/8.png,images/simple/1.png,images/simple/14.png,images/simple/12.png","0","null","","200","2020.8099999465048","yes","299.5399998035282","","target","",""
"","null","html-keyboard-response","24","128848","0.0-14.0-0.5","SS1604517816896","","null","","","","","","","","","","","","<img src=images/blank.png width =""500"" height = ""500"" style=""border:5px solid black"">","","",""
"","895.2200000640005","stimulus-presentation","25","129959","0.0-14.0-1.5","SS1604517816896","<img src='images/simple/10.png' width ='500' height = '500' style='border:5px solid black'>","40","all_simple","images/simple/11.png","images/simple/10.png","images/simple/2.png,images/simple/5.png,images/simple/15.png,images/simple/8.png,images/simple/1.png,images/simple/14.png,images/simple/12.png","0","null","","200","1095.2200000640005","","","","background","",""
"","null","html-keyboard-response","26","131269","0.0-14.0-0.6","SS1604517816896","","null","","","","","","","","","","","","<img src=images/blank.png width =""500"" height = ""500"" style=""border:5px solid black"">","","",""
"","307.73000000044703","stimulus-presentation","27","131780","0.0-14.0-1.6","SS1604517816896","<img src='images/simple/5.png' width ='500' height = '500' style='border:5px solid black'>","40","all_simple","images/simple/11.png","images/simple/10.png","images/simple/2.png,images/simple/5.png,images/simple/15.png,images/simple/8.png,images/simple/1.png,images/simple/14.png,images/simple/12.png","0","null","","200","507.73000000044703","","","","deviant","",""
"","null","html-keyboard-response","28","133027","0.0-14.0-0.7","SS1604517816896","","null","","","","","","","","","","","","<img src=images/blank.png width =""500"" height = ""500"" style=""border:5px solid black"">","","",""
"","299.7200000099838","stimulus-presentation","29","133530","0.0-14.0-1.7","SS1604517816896","<img src='images/simple/10.png' width ='500' height = '500' style='border:5px solid black'>","40","all_simple","images/simple/11.png","images/simple/10.png","images/simple/2.png,images/simple/5.png,images/simple/15.png,images/simple/8.png,images/simple/1.png,images/simple/14.png,images/simple/12.png","0","null","","200","499.7200000099838","","","","background","",""
"","null","html-keyboard-response","30","134542","0.0-14.0-0.8","SS1604517816896","","null","","","","","","","","","","","","<img src=images/blank.png width =""500"" height = ""500"" style=""border:5px solid black"">","","",""
"","3216.010000091046","stimulus-presentation","31","137974","0.0-14.0-1.8","SS1604517816896","<img src='images/simple/11.png' width ='500' height = '500' style='border:5px solid black'>","40","all_simple","images/simple/11.png","images/simple/10.png","images/simple/2.png,images/simple/5.png,images/simple/15.png,images/simple/8.png,images/simple/1.png,images/simple/14.png,images/simple/12.png","0","null","","200","3416.010000091046","yes","423.4050000086427","","target","",""
"","null","html-keyboard-response","32","138784","0.0-14.0-0.9","SS1604517816896","","null","","","","","","","","","","","","<img src=images/blank.png width =""500"" height = ""500"" style=""border:5px solid black"">","","",""
"","451.12500013783574","stimulus-presentation","33","139451","0.0-14.0-1.9","SS1604517816896","<img src='images/simple/1.png' width ='500' height = '500' style='border:5px solid black'>","40","all_simple","images/simple/11.png","images/simple/10.png","images/simple/2.png,images/simple/5.png,images/simple/15.png,images/simple/8.png,images/simple/1.png,images/simple/14.png,images/simple/12.png","0","null","","200","651.1250001378357","","","","deviant","",""
"","null","html-keyboard-response","34","140377","0.0-14.0-0.10","SS1604517816896","","null","","","","","","","","","","","","<img src=images/blank.png width =""500"" height = ""500"" style=""border:5px solid black"">","","",""
"","283.4850000217557","stimulus-presentation","35","140876","0.0-14.0-1.10","SS1604517816896","<img src='images/simple/10.png' width ='500' height = '500' style='border:5px solid black'>","40","all_simple","images/simple/11.png","images/simple/10.png","images/simple/2.png,images/simple/5.png,images/simple/15.png,images/simple/8.png,images/simple/1.png,images/simple/14.png,images/simple/12.png","0","null","","200","483.4850000217557","","","","background","",""
"","null","html-keyboard-response","36","141768","0.0-14.0-0.11","SS1604517816896","","null","","","","","","","","","","","","<img src=images/blank.png width =""500"" height = ""500"" style=""border:5px solid black"">","","",""
"","178.67500009015203","stimulus-presentation","37","142163","0.0-14.0-1.11","SS1604517816896","<img src='images/simple/10.png' width ='500' height = '500' style='border:5px solid black'>","40","all_simple","images/simple/11.png","images/simple/10.png","images/simple/2.png,images/simple/5.png,images/simple/15.png,images/simple/8.png,images/simple/1.png,images/simple/14.png,images/simple/12.png","0","null","","200","378.675000090152","","","","background","",""
"","null","html-keyboard-response","38","143393","0.0-14.0-0.12","SS1604517816896","","null","","","","","","","","","","","","<img src=images/blank.png width =""500"" height = ""500"" style=""border:5px solid black"">","","",""
"","1020.5500000156462","stimulus-presentation","39","144617","0.0-14.0-1.12","SS1604517816896","<img src='images/simple/11.png' width ='500' height = '500' style='border:5px solid black'>","40","all_simple","images/simple/11.png","images/simple/10.png","images/simple/2.png,images/simple/5.png,images/simple/15.png,images/simple/8.png,images/simple/1.png,images/simple/14.png,images/simple/12.png","0","null","","200","1220.5500000156462","yes","198.56499996967614","","target","",""
"","null","html-keyboard-response","40","145779","0.0-14.0-0.13","SS1604517816896","","null","","","","","","","","","","","","<img src=images/blank.png width =""500"" height = ""500"" style=""border:5px solid black"">","","",""
"","209.73500004038215","stimulus-presentation","41","146204","0.0-14.0-1.13","SS1604517816896","<img src='images/simple/10.png' width ='500' height = '500' style='border:5px solid black'>","40","all_simple","images/simple/11.png","images/simple/10.png","images/simple/2.png,images/simple/5.png,images/simple/15.png,images/simple/8.png,images/simple/1.png,images/simple/14.png,images/simple/12.png","0","null","","200","409.73500004038215","","","","background","",""
"","null","html-keyboard-response","42","147340","0.0-14.0-0.14","SS1604517816896","","null","","","","","","","","","","","","<img src=images/blank.png width =""500"" height = ""500"" style=""border:5px solid black"">","","",""
"","156.57499991357327","stimulus-presentation","43","147711","0.0-14.0-1.14","SS1604517816896","<img src='images/simple/10.png' width ='500' height = '500' style='border:5px solid black'>","40","all_simple","images/simple/11.png","images/simple/10.png","images/simple/2.png,images/simple/5.png,images/simple/15.png,images/simple/8.png,images/simple/1.png,images/simple/14.png,images/simple/12.png","0","null","","200","356.57499991357327","","","","background","",""
"","null","html-keyboard-response","44","148737","0.0-14.0-0.15","SS1604517816896","","null","","","","","","","","","","","","<img src=images/blank.png width =""500"" height = ""500"" style=""border:5px solid black"">","","",""
"","155.70499980822206","stimulus-presentation","45","149096","0.0-14.0-1.15","SS1604517816896","<img src='images/simple/10.png' width ='500' height = '500' style='border:5px solid black'>","40","all_simple","images/simple/11.png","images/simple/10.png","images/simple/2.png,images/simple/5.png,images/simple/15.png,images/simple/8.png,images/simple/1.png,images/simple/14.png,images/simple/12.png","0","null","","200","355.70499980822206","","","","background","",""
"","null","html-keyboard-response","46","150031","0.0-14.0-0.16","SS1604517816896","","null","","","","","","","","","","","","<img src=images/blank.png width =""500"" height = ""500"" style=""border:5px solid black"">","","",""
"","577.419999986887","stimulus-presentation","47","150825","0.0-14.0-1.16","SS1604517816896","<img src='images/simple/2.png' width ='500' height = '500' style='border:5px solid black'>","40","all_simple","images/simple/11.png","images/simple/10.png","images/simple/2.png,images/simple/5.png,images/simple/15.png,images/simple/8.png,images/simple/1.png,images/simple/14.png,images/simple/12.png","0","null","","200","777.419999986887","","","","deviant","",""
"","null","html-keyboard-response","48","151739","0.0-14.0-0.17","SS1604517816896","","null","","","","","","","","","","","","<img src=images/blank.png width =""500"" height = ""500"" style=""border:5px solid black"">","","",""
"","213.62999989651144","stimulus-presentation","49","152157","0.0-14.0-1.17","SS1604517816896","<img src='images/simple/10.png' width ='500' height = '500' style='border:5px solid black'>","40","all_simple","images/simple/11.png","images/simple/10.png","images/simple/2.png,images/simple/5.png,images/simple/15.png,images/simple/8.png,images/simple/1.png,images/simple/14.png,images/simple/12.png","0","null","","200","413.62999989651144","","","","background","",""
"","null","html-keyboard-response","50","153184","0.0-14.0-0.18","SS1604517816896","","null","","","","","","","","","","","","<img src=images/blank.png width =""500"" height = ""500"" style=""border:5px solid black"">","","",""
"","229.11000018939376","stimulus-presentation","51","153631","0.0-14.0-1.18","SS1604517816896","<img src='images/simple/10.png' width ='500' height = '500' style='border:5px solid black'>","40","all_simple","images/simple/11.png","images/simple/10.png","images/simple/2.png,images/simple/5.png,images/simple/15.png,images/simple/8.png,images/simple/1.png,images/simple/14.png,images/simple/12.png","0","null","","200","429.11000018939376","","","","background","",""
"","null","html-keyboard-response","52","154652","0.0-14.0-0.19","SS1604517816896","","null","","","","","","","","","","","","<img src=images/blank.png width =""500"" height = ""500"" style=""border:5px solid black"">","","",""
"","209.46999988518655","stimulus-presentation","53","155076","0.0-14.0-1.19","SS1604517816896","<img src='images/simple/10.png' width ='500' height = '500' style='border:5px solid black'>","40","all_simple","images/simple/11.png","images/simple/10.png","images/simple/2.png,images/simple/5.png,images/simple/15.png,images/simple/8.png,images/simple/1.png,images/simple/14.png,images/simple/12.png","0","null","","200","409.46999988518655","","","","background","",""
"","null","html-keyboard-response","54","156286","0.0-14.0-0.20","SS1604517816896","","null","","","","","","","","","","","","<img src=images/blank.png width =""500"" height = ""500"" style=""border:5px solid black"">","","",""
"","447.1050000283867","stimulus-presentation","55","156948","0.0-14.0-1.20","SS1604517816896","<img src='images/simple/10.png' width ='500' height = '500' style='border:5px solid black'>","40","all_simple","images/simple/11.png","images/simple/10.png","images/simple/2.png,images/simple/5.png,images/simple/15.png,images/simple/8.png,images/simple/1.png,images/simple/14.png,images/simple/12.png","0","null","","200","647.1050000283867","","","","background","",""
"","null","html-keyboard-response","56","157903","0.0-14.0-0.21","SS1604517816896","","null","","","","","","","","","","","","<img src=images/blank.png width =""500"" height = ""500"" style=""border:5px solid black"">","","",""
"","276.61500009708107","stimulus-presentation","57","158396","0.0-14.0-1.21","SS1604517816896","<img src='images/simple/10.png' width ='500' height = '500' style='border:5px solid black'>","40","all_simple","images/simple/11.png","images/simple/10.png","images/simple/2.png,images/simple/5.png,images/simple/15.png,images/simple/8.png,images/simple/1.png,images/simple/14.png,images/simple/12.png","0","null","","200","476.61500009708107","","","","background","",""
"","null","html-keyboard-response","58","159494","0.0-14.0-0.22","SS1604517816896","","null","","","","","","","","","","","","<img src=images/blank.png width =""500"" height = ""500"" style=""border:5px solid black"">","","",""
"","2026.7900000326335","stimulus-presentation","59","161737","0.0-14.0-1.22","SS1604517816896","<img src='images/simple/10.png' width ='500' height = '500' style='border:5px solid black'>","40","all_simple","images/simple/11.png","images/simple/10.png","images/simple/2.png,images/simple/5.png,images/simple/15.png,images/simple/8.png,images/simple/1.png,images/simple/14.png,images/simple/12.png","0","null","","200","2226.7900000326335","yes","1432.1800000034273","","background","",""
"","null","html-keyboard-response","60","162568","0.0-14.0-0.23","SS1604517816896","","null","","","","","","","","","","","","<img src=images/blank.png width =""500"" height = ""500"" style=""border:5px solid black"">","","",""
"","832.545000128448","stimulus-presentation","61","163603","0.0-14.0-1.23","SS1604517816896","<img src='images/simple/10.png' width ='500' height = '500' style='border:5px solid black'>","40","all_simple","images/simple/11.png","images/simple/10.png","images/simple/2.png,images/simple/5.png,images/simple/15.png,images/simple/8.png,images/simple/1.png,images/simple/14.png,images/simple/12.png","0","null","","200","1032.545000128448","yes","356.31000017747283","","background","",""
"","null","html-keyboard-response","62","164851","0.0-14.0-0.24","SS1604517816896","","null","","","","","","","","","","","","<img src=images/blank.png width =""500"" height = ""500"" style=""border:5px solid black"">","","",""
"","788.7949999421835","stimulus-presentation","63","165842","0.0-14.0-1.24","SS1604517816896","<img src='images/simple/12.png' width ='500' height = '500' style='border:5px solid black'>","40","all_simple","images/simple/11.png","images/simple/10.png","images/simple/2.png,images/simple/5.png,images/simple/15.png,images/simple/8.png,images/simple/1.png,images/simple/14.png,images/simple/12.png","0","null","","200","988.7949999421835","","","","deviant","",""
"","null","html-keyboard-response","64","166813","0.0-14.0-0.25","SS1604517816896","","null","","","","","","","","","","","","<img src=images/blank.png width =""500"" height = ""500"" style=""border:5px solid black"">","","",""
"","176.24000017531216","stimulus-presentation","65","167204","0.0-14.0-1.25","SS1604517816896","<img src='images/simple/10.png' width ='500' height = '500' style='border:5px solid black'>","40","all_simple","images/simple/11.png","images/simple/10.png","images/simple/2.png,images/simple/5.png,images/simple/15.png,images/simple/8.png,images/simple/1.png,images/simple/14.png,images/simple/12.png","0","null","","200","376.24000017531216","","","","background","",""
"","null","html-keyboard-response","66","168196","0.0-14.0-0.26","SS1604517816896","","null","","","","","","","","","","","","<img src=images/blank.png width =""500"" height = ""500"" style=""border:5px solid black"">","","",""
"","88.07999989949167","stimulus-presentation","67","168502","0.0-14.0-1.26","SS1604517816896","<img src='images/simple/10.png' width ='500' height = '500' style='border:5px solid black'>","40","all_simple","images/simple/11.png","images/simple/10.png","images/simple/2.png,images/simple/5.png,images/simple/15.png,images/simple/8.png,images/simple/1.png,images/simple/14.png,images/simple/12.png","0","null","","200","288.07999989949167","","","","background","",""
"","null","html-keyboard-response","68","169446","0.0-14.0-0.27","SS1604517816896","","null","","","","","","","","","","","","<img src=images/blank.png width =""500"" height = ""500"" style=""border:5px solid black"">","","",""
"","109.82499993406236","stimulus-presentation","69","169759","0.0-14.0-1.27","SS1604517816896","<img src='images/simple/11.png' width ='500' height = '500' style='border:5px solid black'>","40","all_simple","images/simple/11.png","images/simple/10.png","images/simple/2.png,images/simple/5.png,images/simple/15.png,images/simple/8.png,images/simple/1.png,images/simple/14.png,images/simple/12.png","0","null","","200","309.82499993406236","","","","target","",""
"","null","html-keyboard-response","70","170695","0.0-14.0-0.28","SS1604517816896","","null","","","","","","","","","","","","<img src=images/blank.png width =""500"" height = ""500"" style=""border:5px solid black"">","","",""
"","223.37000002153218","stimulus-presentation","71","171135","0.0-14.0-1.28","SS1604517816896","<img src='images/simple/10.png' width ='500' height = '500' style='border:5px solid black'>","40","all_simple","images/simple/11.png","images/simple/10.png","images/simple/2.png,images/simple/5.png,images/simple/15.png,images/simple/8.png,images/simple/1.png,images/simple/14.png,images/simple/12.png","0","null","","200","423.3700000215322","","","","background","",""
"","null","html-keyboard-response","72","172126","0.0-14.0-0.29","SS1604517816896","","null","","","","","","","","","","","","<img src=images/blank.png width =""500"" height = ""500"" style=""border:5px solid black"">","","",""
"","252.47499998658895","stimulus-presentation","73","172595","0.0-14.0-1.29","SS1604517816896","<img src='images/simple/10.png' width ='500' height = '500' style='border:5px solid black'>","40","all_simple","images/simple/11.png","images/simple/10.png","images/simple/2.png,images/simple/5.png,images/simple/15.png,images/simple/8.png,images/simple/1.png,images/simple/14.png,images/simple/12.png","0","null","","200","452.47499998658895","","","","background","",""
"","null","html-keyboard-response","74","173775","0.0-14.0-0.30","SS1604517816896","","null","","","","","","","","","","","","<img src=images/blank.png width =""500"" height = ""500"" style=""border:5px solid black"">","","",""
"","140.45500010252","stimulus-presentation","75","174132","0.0-14.0-1.30","SS1604517816896","<img src='images/simple/11.png' width ='500' height = '500' style='border:5px solid black'>","40","all_simple","images/simple/11.png","images/simple/10.png","images/simple/2.png,images/simple/5.png,images/simple/15.png,images/simple/8.png,images/simple/1.png,images/simple/14.png,images/simple/12.png","0","null","","200","340.45500010252","","","","target","",""
"","null","html-keyboard-response","76","175101","0.0-14.0-0.31","SS1604517816896","","null","","","","","","","","","","","","<img src=images/blank.png width =""500"" height = ""500"" style=""border:5px solid black"">","","",""
"","185.4300000704825","stimulus-presentation","77","175489","0.0-14.0-1.31","SS1604517816896","<img src='images/simple/10.png' width ='500' height = '500' style='border:5px solid black'>","40","all_simple","images/simple/11.png","images/simple/10.png","images/simple/2.png,images/simple/5.png,images/simple/15.png,images/simple/8.png,images/simple/1.png,images/simple/14.png,images/simple/12.png","0","null","","200","385.4300000704825","","","","background","",""
"","null","html-keyboard-response","78","176396","0.0-14.0-0.32","SS1604517816896","","null","","","","","","","","","","","","<img src=images/blank.png width =""500"" height = ""500"" style=""border:5px solid black"">","","",""
"","204.60999989882112","stimulus-presentation","79","176803","0.0-14.0-1.32","SS1604517816896","<img src='images/simple/10.png' width ='500' height = '500' style='border:5px solid black'>","40","all_simple","images/simple/11.png","images/simple/10.png","images/simple/2.png,images/simple/5.png,images/simple/15.png,images/simple/8.png,images/simple/1.png,images/simple/14.png,images/simple/12.png","0","null","","200","404.6099998988211","","","","background","",""
"","null","html-keyboard-response","80","177999","0.0-14.0-0.33","SS1604517816896","","null","","","","","","","","","","","","<img src=images/blank.png width =""500"" height = ""500"" style=""border:5px solid black"">","","",""
"","233.59499988146126","stimulus-presentation","81","178435","0.0-14.0-1.33","SS1604517816896","<img src='images/simple/10.png' width ='500' height = '500' style='border:5px solid black'>","40","all_simple","images/simple/11.png","images/simple/10.png","images/simple/2.png,images/simple/5.png,images/simple/15.png,images/simple/8.png,images/simple/1.png,images/simple/14.png,images/simple/12.png","0","null","","200","433.59499988146126","","","","background","",""
"","null","html-keyboard-response","82","179246","0.0-14.0-0.34","SS1604517816896","","null","","","","","","","","","","","","<img src=images/blank.png width =""500"" height = ""500"" style=""border:5px solid black"">","","",""
"","275.6399998907","stimulus-presentation","83","179739","0.0-14.0-1.34","SS1604517816896","<img src='images/simple/10.png' width ='500' height = '500' style='border:5px solid black'>","40","all_simple","images/simple/11.png","images/simple/10.png","images/simple/2.png,images/simple/5.png,images/simple/15.png,images/simple/8.png,images/simple/1.png,images/simple/14.png,images/simple/12.png","0","null","","200","475.6399998907","","","","background","",""
"","null","html-keyboard-response","84","180677","0.0-14.0-0.35","SS1604517816896","","null","","","","","","","","","","","","<img src=images/blank.png width =""500"" height = ""500"" style=""border:5px solid black"">","","",""
"","152.07999991253018","stimulus-presentation","85","181032","0.0-14.0-1.35","SS1604517816896","<img src='images/simple/10.png' width ='500' height = '500' style='border:5px solid black'>","40","all_simple","images/simple/11.png","images/simple/10.png","images/simple/2.png,images/simple/5.png,images/simple/15.png,images/simple/8.png,images/simple/1.png,images/simple/14.png,images/simple/12.png","0","null","","200","352.0799999125302","","","","background","",""
"","null","html-keyboard-response","86","182192","0.0-14.0-0.36","SS1604517816896","","null","","","","","","","","","","","","<img src=images/blank.png width =""500"" height = ""500"" style=""border:5px solid black"">","","",""
"","136.99500006623566","stimulus-presentation","87","182545","0.0-14.0-1.36","SS1604517816896","<img src='images/simple/10.png' width ='500' height = '500' style='border:5px solid black'>","40","all_simple","images/simple/11.png","images/simple/10.png","images/simple/2.png,images/simple/5.png,images/simple/15.png,images/simple/8.png,images/simple/1.png,images/simple/14.png,images/simple/12.png","0","null","","200","336.99500006623566","","","","background","",""
"","null","html-keyboard-response","88","183760","0.0-14.0-0.37","SS1604517816896","","null","","","","","","","","","","","","<img src=images/blank.png width =""500"" height = ""500"" style=""border:5px solid black"">","","",""
"","229.01499993167818","stimulus-presentation","89","184193","0.0-14.0-1.37","SS1604517816896","<img src='images/simple/10.png' width ='500' height = '500' style='border:5px solid black'>","40","all_simple","images/simple/11.png","images/simple/10.png","images/simple/2.png,images/simple/5.png,images/simple/15.png,images/simple/8.png,images/simple/1.png,images/simple/14.png,images/simple/12.png","0","null","","200","429.0149999316782","","","","background","",""
"","null","html-keyboard-response","90","185081","0.0-14.0-0.38","SS1604517816896","","null","","","","","","","","","","","","<img src=images/blank.png width =""500"" height = ""500"" style=""border:5px solid black"">","","",""
"","291.4249999448657","stimulus-presentation","91","185586","0.0-14.0-1.38","SS1604517816896","<img src='images/simple/10.png' width ='500' height = '500' style='border:5px solid black'>","40","all_simple","images/simple/11.png","images/simple/10.png","images/simple/2.png,images/simple/5.png,images/simple/15.png,images/simple/8.png,images/simple/1.png,images/simple/14.png,images/simple/12.png","0","null","","200","491.4249999448657","","","","background","",""
"","null","html-keyboard-response","92","186517","0.0-14.0-0.39","SS1604517816896","","null","","","","","","","","","","","","<img src=images/blank.png width =""500"" height = ""500"" style=""border:5px solid black"">","","",""
"","396.66500012390316","stimulus-presentation","93","187131","0.0-14.0-1.39","SS1604517816896","<img src='images/simple/8.png' width ='500' height = '500' style='border:5px solid black'>","40","all_simple","images/simple/11.png","images/simple/10.png","images/simple/2.png,images/simple/5.png,images/simple/15.png,images/simple/8.png,images/simple/1.png,images/simple/14.png,images/simple/12.png","0","null","","200","596.6650001239032","","","","deviant","",""
"","null","html-keyboard-response","94","188127","0.0-14.0-0.40","SS1604517816896","","null","","","","","","","","","","","","<img src=images/blank.png width =""500"" height = ""500"" style=""border:5px solid black"">","","",""
"","202.6049999985844","stimulus-presentation","95","188546","0.0-14.0-1.40","SS1604517816896","<img src='images/simple/10.png' width ='500' height = '500' style='border:5px solid black'>","40","all_simple","images/simple/11.png","images/simple/10.png","images/simple/2.png,images/simple/5.png,images/simple/15.png,images/simple/8.png,images/simple/1.png,images/simple/14.png,images/simple/12.png","0","null","","200","402.6049999985844","","","","background","",""
"","null","html-keyboard-response","96","189737","0.0-14.0-0.41","SS1604517816896","","null","","","","","","","","","","","","<img src=images/blank.png width =""500"" height = ""500"" style=""border:5px solid black"">","","",""
"","174.54999987967312","stimulus-presentation","97","190128","0.0-14.0-1.41","SS1604517816896","<img src='images/simple/10.png' width ='500' height = '500' style='border:5px solid black'>","40","all_simple","images/simple/11.png","images/simple/10.png","images/simple/2.png,images/simple/5.png,images/simple/15.png,images/simple/8.png,images/simple/1.png,images/simple/14.png,images/simple/12.png","0","null","","200","374.5499998796731","","","","background","",""
"","null","html-keyboard-response","98","190946","0.0-14.0-0.42","SS1604517816896","","null","","","","","","","","","","","","<img src=images/blank.png width =""500"" height = ""500"" style=""border:5px solid black"">","","",""
"","434.60500007495284","stimulus-presentation","99","191596","0.0-14.0-1.42","SS1604517816896","<img src='images/simple/14.png' width ='500' height = '500' style='border:5px solid black'>","40","all_simple","images/simple/11.png","images/simple/10.png","images/simple/2.png,images/simple/5.png,images/simple/15.png,images/simple/8.png,images/simple/1.png,images/simple/14.png,images/simple/12.png","0","null","","200","634.6050000749528","","","","deviant","",""
"","null","html-keyboard-response","100","192786","0.0-14.0-0.43","SS1604517816896","","null","","","","","","","","","","","","<img src=images/blank.png width =""500"" height = ""500"" style=""border:5px solid black"">","","",""
"","192.45500001125038","stimulus-presentation","101","193193","0.0-14.0-1.43","SS1604517816896","<img src='images/simple/10.png' width ='500' height = '500' style='border:5px solid black'>","40","all_simple","images/simple/11.png","images/simple/10.png","images/simple/2.png,images/simple/5.png,images/simple/15.png,images/simple/8.png,images/simple/1.png,images/simple/14.png,images/simple/12.png","0","null","","200","392.4550000112504","","","","background","",""
"","null","html-keyboard-response","102","194126","0.0-14.0-0.44","SS1604517816896","","null","","","","","","","","","","","","<img src=images/blank.png width =""500"" height = ""500"" style=""border:5px solid black"">","","",""
"","161.25499992631376","stimulus-presentation","103","194503","0.0-14.0-1.44","SS1604517816896","<img src='images/simple/10.png' width ='500' height = '500' style='border:5px solid black'>","40","all_simple","images/simple/11.png","images/simple/10.png","images/simple/2.png,images/simple/5.png,images/simple/15.png,images/simple/8.png,images/simple/1.png,images/simple/14.png,images/simple/12.png","0","null","","200","361.25499992631376","","","","background","",""
"","null","html-keyboard-response","104","195765","0.0-14.0-0.45","SS1604517816896","","null","","","","","","","","","","","","<img src=images/blank.png width =""500"" height = ""500"" style=""border:5px solid black"">","","",""
"","1130.0049999263138","stimulus-presentation","105","197111","0.0-14.0-1.45","SS1604517816896","<img src='images/simple/11.png' width ='500' height = '500' style='border:5px solid black'>","40","all_simple","images/simple/11.png","images/simple/10.png","images/simple/2.png,images/simple/5.png,images/simple/15.png,images/simple/8.png,images/simple/1.png,images/simple/14.png,images/simple/12.png","0","null","","200","1330.0049999263138","yes","352.8549999464303","","target","",""
"","null","html-keyboard-response","106","198091","0.0-14.0-0.46","SS1604517816896","","null","","","","","","","","","","","","<img src=images/blank.png width =""500"" height = ""500"" style=""border:5px solid black"">","","",""
"","252.81999981962144","stimulus-presentation","107","198559","0.0-14.0-1.46","SS1604517816896","<img src='images/simple/10.png' width ='500' height = '500' style='border:5px solid black'>","40","all_simple","images/simple/11.png","images/simple/10.png","images/simple/2.png,images/simple/5.png,images/simple/15.png,images/simple/8.png,images/simple/1.png,images/simple/14.png,images/simple/12.png","0","null","","200","452.81999981962144","","","","background","",""
"","null","html-keyboard-response","108","199827","0.0-14.0-0.47","SS1604517816896","","null","","","","","","","","","","","","<img src=images/blank.png width =""500"" height = ""500"" style=""border:5px solid black"">","","",""
"","152.195000089705","stimulus-presentation","109","200196","0.0-14.0-1.47","SS1604517816896","<img src='images/simple/10.png' width ='500' height = '500' style='border:5px solid black'>","40","all_simple","images/simple/11.png","images/simple/10.png","images/simple/2.png,images/simple/5.png,images/simple/15.png,images/simple/8.png,images/simple/1.png,images/simple/14.png,images/simple/12.png","0","null","","200","352.195000089705","","","","background","",""
"","null","html-keyboard-response","110","201238","0.0-14.0-0.48","SS1604517816896","","null","","","","","","","","","","","","<img src=images/blank.png width =""500"" height = ""500"" style=""border:5px solid black"">","","",""
"","153.0949999578297","stimulus-presentation","111","201607","0.0-14.0-1.48","SS1604517816896","<img src='images/simple/10.png' width ='500' height = '500' style='border:5px solid black'>","40","all_simple","images/simple/11.png","images/simple/10.png","images/simple/2.png,images/simple/5.png,images/simple/15.png,images/simple/8.png,images/simple/1.png,images/simple/14.png,images/simple/12.png","0","null","","200","353.0949999578297","","","","background","",""
"[{""page_index"":0,""viewing_time"":2364}]","2364","task-instructions","112","203973","0.0-15.0","SS1604517816896","","","","","","","","","","","","","","","","",""
"[{""page_index"":0,""viewing_time"":5599.730000132695},{""page_index"":1,""viewing_time"":6748.884999891743},{""page_index"":2,""viewing_time"":1719.8199999984354}]","14068.53500008583","instructions","113","218043","0.0-16.0","SS1604517816896","","","","","","","","","","","","","","","","",""
"","null","html-keyboard-response","114","218898","0.0-17.0-0.0","SS1604517816896","","null","","","","","","","","","","","","<img src=images/blank.png width =""500"" height = ""500"" style=""border:5px solid black"">","","",""
"","726.3200001325458","stimulus-presentation","115","219827","0.0-17.0-1.0","SS1604517816896","<img src='images/complex/6.png' width ='500' height = '500' style='border:5px solid black'>","40","mixed_simple_deviant","images/complex/7.png","images/complex/6.png","images/simple/7.png,images/simple/16.png,images/simple/6.png,images/simple/4.png,images/simple/3.png,images/simple/18.png,images/simple/17.png","1","null","","200","926.3200001325458","","","","background","",""
"","null","html-keyboard-response","116","220997","0.0-17.0-0.1","SS1604517816896","","null","","","","","","","","","","","","<img src=images/blank.png width =""500"" height = ""500"" style=""border:5px solid black"">","","",""
"","228.10499998740852","stimulus-presentation","117","221440","0.0-17.0-1.1","SS1604517816896","<img src='images/complex/6.png' width ='500' height = '500' style='border:5px solid black'>","40","mixed_simple_deviant","images/complex/7.png","images/complex/6.png","images/simple/7.png,images/simple/16.png,images/simple/6.png,images/simple/4.png,images/simple/3.png,images/simple/18.png,images/simple/17.png","1","null","","200","428.1049999874085","","","","background","",""
"","null","html-keyboard-response","118","222257","0.0-17.0-0.2","SS1604517816896","","null","","","","","","","","","","","","<img src=images/blank.png width =""500"" height = ""500"" style=""border:5px solid black"">","","",""
"","282.7999999281019","stimulus-presentation","119","222757","0.0-17.0-1.2","SS1604517816896","<img src='images/simple/18.png' width ='500' height = '500' style='border:5px solid black'>","40","mixed_simple_deviant","images/complex/7.png","images/complex/6.png","images/simple/7.png,images/simple/16.png,images/simple/6.png,images/simple/4.png,images/simple/3.png,images/simple/18.png,images/simple/17.png","1","null","","200","482.7999999281019","","","","deviant","",""
"","null","html-keyboard-response","120","223889","0.0-17.0-0.3","SS1604517816896","","null","","","","","","","","","","","","<img src=images/blank.png width =""500"" height = ""500"" style=""border:5px solid black"">","","",""
"","359.60500012151897","stimulus-presentation","121","224465","0.0-17.0-1.3","SS1604517816896","<img src='images/complex/6.png' width ='500' height = '500' style='border:5px solid black'>","40","mixed_simple_deviant","images/complex/7.png","images/complex/6.png","images/simple/7.png,images/simple/16.png,images/simple/6.png,images/simple/4.png,images/simple/3.png,images/simple/18.png,images/simple/17.png","1","null","","200","559.605000121519","","","","background","",""
"","null","html-keyboard-response","122","225514","0.0-17.0-0.4","SS1604517816896","","null","","","","","","","","","","","","<img src=images/blank.png width =""500"" height = ""500"" style=""border:5px solid black"">","","",""
"","281.8450001068413","stimulus-presentation","123","226011","0.0-17.0-1.4","SS1604517816896","<img src='images/complex/6.png' width ='500' height = '500' style='border:5px solid black'>","40","mixed_simple_deviant","images/complex/7.png","images/complex/6.png","images/simple/7.png,images/simple/16.png,images/simple/6.png,images/simple/4.png,images/simple/3.png,images/simple/18.png,images/simple/17.png","1","null","","200","481.8450001068413","","","","background","",""
"","null","html-keyboard-response","124","227038","0.0-17.0-0.5","SS1604517816896","","null","","","","","","","","","","","","<img src=images/blank.png width =""500"" height = ""500"" style=""border:5px solid black"">","","",""
"","260.85500000044703","stimulus-presentation","125","227513","0.0-17.0-1.5","SS1604517816896","<img src='images/complex/6.png' width ='500' height = '500' style='border:5px solid black'>","40","mixed_simple_deviant","images/complex/7.png","images/complex/6.png","images/simple/7.png,images/simple/16.png,images/simple/6.png,images/simple/4.png,images/simple/3.png,images/simple/18.png,images/simple/17.png","1","null","","200","460.85500000044703","","","","background","",""
"","null","html-keyboard-response","126","228727","0.0-17.0-0.6","SS1604517816896","","null","","","","","","","","","","","","<img src=images/blank.png width =""500"" height = ""500"" style=""border:5px solid black"">","","",""
"","219.84999999403954","stimulus-presentation","127","229162","0.0-17.0-1.6","SS1604517816896","<img src='images/complex/6.png' width ='500' height = '500' style='border:5px solid black'>","40","mixed_simple_deviant","images/complex/7.png","images/complex/6.png","images/simple/7.png,images/simple/16.png,images/simple/6.png,images/simple/4.png,images/simple/3.png,images/simple/18.png,images/simple/17.png","1","null","","200","419.84999999403954","","","","background","",""
"","null","html-keyboard-response","128","230211","0.0-17.0-0.7","SS1604517816896","","null","","","","","","","","","","","","<img src=images/blank.png width =""500"" height = ""500"" style=""border:5px solid black"">","","",""
"","388.4099998977035","stimulus-presentation","129","230804","0.0-17.0-1.7","SS1604517816896","<img src='images/simple/17.png' width ='500' height = '500' style='border:5px solid black'>","40","mixed_simple_deviant","images/complex/7.png","images/complex/6.png","images/simple/7.png,images/simple/16.png,images/simple/6.png,images/simple/4.png,images/simple/3.png,images/simple/18.png,images/simple/17.png","1","null","","200","588.4099998977035","","","","deviant","",""
"","null","html-keyboard-response","130","231630","0.0-17.0-0.8","SS1604517816896","","null","","","","","","","","","","","","<img src=images/blank.png width =""500"" height = ""500"" style=""border:5px solid black"">","","",""
"","267.4000000115484","stimulus-presentation","131","232113","0.0-17.0-1.8","SS1604517816896","<img src='images/complex/6.png' width ='500' height = '500' style='border:5px solid black'>","40","mixed_simple_deviant","images/complex/7.png","images/complex/6.png","images/simple/7.png,images/simple/16.png,images/simple/6.png,images/simple/4.png,images/simple/3.png,images/simple/18.png,images/simple/17.png","1","null","","200","467.4000000115484","","","","background","",""
"","null","html-keyboard-response","132","233411","0.0-17.0-0.9","SS1604517816896","","null","","","","","","","","","","","","<img src=images/blank.png width =""500"" height = ""500"" style=""border:5px solid black"">","","",""
"","279.1550001129508","stimulus-presentation","133","233908","0.0-17.0-1.9","SS1604517816896","<img src='images/complex/6.png' width ='500' height = '500' style='border:5px solid black'>","40","mixed_simple_deviant","images/complex/7.png","images/complex/6.png","images/simple/7.png,images/simple/16.png,images/simple/6.png,images/simple/4.png,images/simple/3.png,images/simple/18.png,images/simple/17.png","1","null","","200","479.1550001129508","","","","background","",""
"","null","html-keyboard-response","134","234839","0.0-17.0-0.10","SS1604517816896","","null","","","","","","","","","","","","<img src=images/blank.png width =""500"" height = ""500"" style=""border:5px solid black"">","","",""
"","1156.4849999267608","stimulus-presentation","135","236212","0.0-17.0-1.10","SS1604517816896","<img src='images/complex/7.png' width ='500' height = '500' style='border:5px solid black'>","40","mixed_simple_deviant","images/complex/7.png","images/complex/6.png","images/simple/7.png,images/simple/16.png,images/simple/6.png,images/simple/4.png,images/simple/3.png,images/simple/18.png,images/simple/17.png","1","null","","200","1356.4849999267608","yes","418.45500003546476","","target","",""
"","null","html-keyboard-response","136","237507","0.0-17.0-0.11","SS1604517816896","","null","","","","","","","","","","","","<img src=images/blank.png width =""500"" height = ""500"" style=""border:5px solid black"">","","",""
"","257.44500011205673","stimulus-presentation","137","237981","0.0-17.0-1.11","SS1604517816896","<img src='images/complex/6.png' width ='500' height = '500' style='border:5px solid black'>","40","mixed_simple_deviant","images/complex/7.png","images/complex/6.png","images/simple/7.png,images/simple/16.png,images/simple/6.png,images/simple/4.png,images/simple/3.png,images/simple/18.png,images/simple/17.png","1","null","","200","457.44500011205673","","","","background","",""
"","null","html-keyboard-response","138","239209","0.0-17.0-0.12","SS1604517816896","","null","","","","","","","","","","","","<img src=images/blank.png width =""500"" height = ""500"" style=""border:5px solid black"">","","",""
"","132.06499977968633","stimulus-presentation","139","239545","0.0-17.0-1.12","SS1604517816896","<img src='images/complex/6.png' width ='500' height = '500' style='border:5px solid black'>","40","mixed_simple_deviant","images/complex/7.png","images/complex/6.png","images/simple/7.png,images/simple/16.png,images/simple/6.png,images/simple/4.png,images/simple/3.png,images/simple/18.png,images/simple/17.png","1","null","","200","332.06499977968633","","","","background","",""
"","null","html-keyboard-response","140","240636","0.0-17.0-0.13","SS1604517816896","","null","","","","","","","","","","","","<img src=images/blank.png width =""500"" height = ""500"" style=""border:5px solid black"">","","",""
"","224.91000010631979","stimulus-presentation","141","241065","0.0-17.0-1.13","SS1604517816896","<img src='images/complex/6.png' width ='500' height = '500' style='border:5px solid black'>","40","mixed_simple_deviant","images/complex/7.png","images/complex/6.png","images/simple/7.png,images/simple/16.png,images/simple/6.png,images/simple/4.png,images/simple/3.png,images/simple/18.png,images/simple/17.png","1","null","","200","424.9100001063198","","","","background","",""
"","null","html-keyboard-response","142","242372","0.0-17.0-0.14","SS1604517816896","","null","","","","","","","","","","","","<img src=images/blank.png width =""500"" height = ""500"" style=""border:5px solid black"">","","",""
"","252.98500014469028","stimulus-presentation","143","242843","0.0-17.0-1.14","SS1604517816896","<img src='images/complex/6.png' width ='500' height = '500' style='border:5px solid black'>","40","mixed_simple_deviant","images/complex/7.png","images/complex/6.png","images/simple/7.png,images/simple/16.png,images/simple/6.png,images/simple/4.png,images/simple/3.png,images/simple/18.png,images/simple/17.png","1","null","","200","452.9850001446903","","","","background","",""
"","null","html-keyboard-response","144","243676","0.0-17.0-0.15","SS1604517816896","","null","","","","","","","","","","","","<img src=images/blank.png width =""500"" height = ""500"" style=""border:5px solid black"">","","",""
"","207.81000005081296","stimulus-presentation","145","244101","0.0-17.0-1.15","SS1604517816896","<img src='images/complex/6.png' width ='500' height = '500' style='border:5px solid black'>","40","mixed_simple_deviant","images/complex/7.png","images/complex/6.png","images/simple/7.png,images/simple/16.png,images/simple/6.png,images/simple/4.png,images/simple/3.png,images/simple/18.png,images/simple/17.png","1","null","","200","407.81000005081296","","","","background","",""
"","null","html-keyboard-response","146","245130","0.0-17.0-0.16","SS1604517816896","","null","","","","","","","","","","","","<img src=images/blank.png width =""500"" height = ""500"" style=""border:5px solid black"">","","",""
"","191.215000115335","stimulus-presentation","147","245525","0.0-17.0-1.16","SS1604517816896","<img src='images/complex/6.png' width ='500' height = '500' style='border:5px solid black'>","40","mixed_simple_deviant","images/complex/7.png","images/complex/6.png","images/simple/7.png,images/simple/16.png,images/simple/6.png,images/simple/4.png,images/simple/3.png,images/simple/18.png,images/simple/17.png","1","null","","200","391.215000115335","","","","background","",""
"","null","html-keyboard-response","148","246600","0.0-17.0-0.17","SS1604517816896","","null","","","","","","","","","","","","<img src=images/blank.png width =""500"" height = ""500"" style=""border:5px solid black"">","","",""
"","977.0400000270456","stimulus-presentation","149","247795","0.0-17.0-1.17","SS1604517816896","<img src='images/complex/7.png' width ='500' height = '500' style='border:5px solid black'>","40","mixed_simple_deviant","images/complex/7.png","images/complex/6.png","images/simple/7.png,images/simple/16.png,images/simple/6.png,images/simple/4.png,images/simple/3.png,images/simple/18.png,images/simple/17.png","1","null","","200","1177.0400000270456","yes","304.65000006370246","","target","",""
"","null","html-keyboard-response","150","248621","0.0-17.0-0.18","SS1604517816896","","null","","","","","","","","","","","","<img src=images/blank.png width =""500"" height = ""500"" style=""border:5px solid black"">","","",""
"","199.79999982751906","stimulus-presentation","151","249024","0.0-17.0-1.18","SS1604517816896","<img src='images/complex/6.png' width ='500' height = '500' style='border:5px solid black'>","40","mixed_simple_deviant","images/complex/7.png","images/complex/6.png","images/simple/7.png,images/simple/16.png,images/simple/6.png,images/simple/4.png,images/simple/3.png,images/simple/18.png,images/simple/17.png","1","null","","200","399.79999982751906","","","","background","",""
"","null","html-keyboard-response","152","249883","0.0-17.0-0.19","SS1604517816896","","null","","","","","","","","","","","","<img src=images/blank.png width =""500"" height = ""500"" style=""border:5px solid black"">","","",""
"","171.25499993562698","stimulus-presentation","153","250269","0.0-17.0-1.19","SS1604517816896","<img src='images/complex/6.png' width ='500' height = '500' style='border:5px solid black'>","40","mixed_simple_deviant","images/complex/7.png","images/complex/6.png","images/simple/7.png,images/simple/16.png,images/simple/6.png,images/simple/4.png,images/simple/3.png,images/simple/18.png,images/simple/17.png","1","null","","200","371.254999935627","","","","background","",""
"","null","html-keyboard-response","154","251276","0.0-17.0-0.20","SS1604517816896","","null","","","","","","","","","","","","<img src=images/blank.png width =""500"" height = ""500"" style=""border:5px solid black"">","","",""
"","206.93000010214746","stimulus-presentation","155","251700","0.0-17.0-1.20","SS1604517816896","<img src='images/simple/3.png' width ='500' height = '500' style='border:5px solid black'>","40","mixed_simple_deviant","images/complex/7.png","images/complex/6.png","images/simple/7.png,images/simple/16.png,images/simple/6.png,images/simple/4.png,images/simple/3.png,images/simple/18.png,images/simple/17.png","1","null","","200","406.93000010214746","","","","deviant","",""
"","null","html-keyboard-response","156","252820","0.0-17.0-0.21","SS1604517816896","","null","","","","","","","","","","","","<img src=images/blank.png width =""500"" height = ""500"" style=""border:5px solid black"">","","",""
"","237.16000001877546","stimulus-presentation","157","253274","0.0-17.0-1.21","SS1604517816896","<img src='images/complex/6.png' width ='500' height = '500' style='border:5px solid black'>","40","mixed_simple_deviant","images/complex/7.png","images/complex/6.png","images/simple/7.png,images/simple/16.png,images/simple/6.png,images/simple/4.png,images/simple/3.png,images/simple/18.png,images/simple/17.png","1","null","","200","437.16000001877546","","","","background","",""
"","null","html-keyboard-response","158","254487","0.0-17.0-0.22","SS1604517816896","","null","","","","","","","","","","","","<img src=images/blank.png width =""500"" height = ""500"" style=""border:5px solid black"">","","",""
"","125.84499991498888","stimulus-presentation","159","254829","0.0-17.0-1.22","SS1604517816896","<img src='images/complex/7.png' width ='500' height = '500' style='border:5px solid black'>","40","mixed_simple_deviant","images/complex/7.png","images/complex/6.png","images/simple/7.png,images/simple/16.png,images/simple/6.png,images/simple/4.png,images/simple/3.png,images/simple/18.png,images/simple/17.png","1","null","","200","325.8449999149889","","","","target","",""
"","null","html-keyboard-response","160","256119","0.0-17.0-0.23","SS1604517816896","","null","","","","","","","","","","","","<img src=images/blank.png width =""500"" height = ""500"" style=""border:5px solid black"">","","",""
"","332.2750001680106","stimulus-presentation","161","256668","0.0-17.0-1.23","SS1604517816896","<img src='images/complex/6.png' width ='500' height = '500' style='border:5px solid black'>","40","mixed_simple_deviant","images/complex/7.png","images/complex/6.png","images/simple/7.png,images/simple/16.png,images/simple/6.png,images/simple/4.png,images/simple/3.png,images/simple/18.png,images/simple/17.png","1","null","","200","532.2750001680106","","","","background","",""
"","null","html-keyboard-response","162","257579","0.0-17.0-0.24","SS1604517816896","","null","","","","","","","","","","","","<img src=images/blank.png width =""500"" height = ""500"" style=""border:5px solid black"">","","",""
"","226.36500000953674","stimulus-presentation","163","258022","0.0-17.0-1.24","SS1604517816896","<img src='images/complex/6.png' width ='500' height = '500' style='border:5px solid black'>","40","mixed_simple_deviant","images/complex/7.png","images/complex/6.png","images/simple/7.png,images/simple/16.png,images/simple/6.png,images/simple/4.png,images/simple/3.png,images/simple/18.png,images/simple/17.png","1","null","","200","426.36500000953674","","","","background","",""
"","null","html-keyboard-response","164","258963","0.0-17.0-0.25","SS1604517816896","","null","","","","","","","","","","","","<img src=images/blank.png width =""500"" height = ""500"" style=""border:5px solid black"">","","",""
"","597.6849999278784","stimulus-presentation","165","259775","0.0-17.0-1.25","SS1604517816896","<img src='images/simple/4.png' width ='500' height = '500' style='border:5px solid black'>","40","mixed_simple_deviant","images/complex/7.png","images/complex/6.png","images/simple/7.png,images/simple/16.png,images/simple/6.png,images/simple/4.png,images/simple/3.png,images/simple/18.png,images/simple/17.png","1","null","","200","797.6849999278784","","","","deviant","",""
"","null","html-keyboard-response","166","260732","0.0-17.0-0.26","SS1604517816896","","null","","","","","","","","","","","","<img src=images/blank.png width =""500"" height = ""500"" style=""border:5px solid black"">","","",""
"","237.78000008314848","stimulus-presentation","167","261187","0.0-17.0-1.26","SS1604517816896","<img src='images/complex/6.png' width ='500' height = '500' style='border:5px solid black'>","40","mixed_simple_deviant","images/complex/7.png","images/complex/6.png","images/simple/7.png,images/simple/16.png,images/simple/6.png,images/simple/4.png,images/simple/3.png,images/simple/18.png,images/simple/17.png","1","null","","200","437.7800000831485","","","","background","",""
"","null","html-keyboard-response","168","262387","0.0-17.0-0.27","SS1604517816896","","null","","","","","","","","","","","","<img src=images/blank.png width =""500"" height = ""500"" style=""border:5px solid black"">","","",""
"","188.15500009804964","stimulus-presentation","169","262778","0.0-17.0-1.27","SS1604517816896","<img src='images/complex/6.png' width ='500' height = '500' style='border:5px solid black'>","40","mixed_simple_deviant","images/complex/7.png","images/complex/6.png","images/simple/7.png,images/simple/16.png,images/simple/6.png,images/simple/4.png,images/simple/3.png,images/simple/18.png,images/simple/17.png","1","null","","200","388.15500009804964","","","","background","",""
"","null","html-keyboard-response","170","264041","0.0-17.0-0.28","SS1604517816896","","null","","","","","","","","","","","","<img src=images/blank.png width =""500"" height = ""500"" style=""border:5px solid black"">","","",""
"","171.09999991953373","stimulus-presentation","171","264415","0.0-17.0-1.28","SS1604517816896","<img src='images/complex/6.png' width ='500' height = '500' style='border:5px solid black'>","40","mixed_simple_deviant","images/complex/7.png","images/complex/6.png","images/simple/7.png,images/simple/16.png,images/simple/6.png,images/simple/4.png,images/simple/3.png,images/simple/18.png,images/simple/17.png","1","null","","200","371.09999991953373","","","","background","",""
"","null","html-keyboard-response","172","265600","0.0-17.0-0.29","SS1604517816896","","null","","","","","","","","","","","","<img src=images/blank.png width =""500"" height = ""500"" style=""border:5px solid black"">","","",""
"","241.94000009447336","stimulus-presentation","173","266059","0.0-17.0-1.29","SS1604517816896","<img src='images/complex/6.png' width ='500' height = '500' style='border:5px solid black'>","40","mixed_simple_deviant","images/complex/7.png","images/complex/6.png","images/simple/7.png,images/simple/16.png,images/simple/6.png,images/simple/4.png,images/simple/3.png,images/simple/18.png,images/simple/17.png","1","null","","200","441.94000009447336","","","","background","",""
"","null","html-keyboard-response","174","266962","0.0-17.0-0.30","SS1604517816896","","null","","","","","","","","","","","","<img src=images/blank.png width =""500"" height = ""500"" style=""border:5px solid black"">","","",""
"","213.5250000283122","stimulus-presentation","175","267391","0.0-17.0-1.30","SS1604517816896","<img src='images/complex/6.png' width ='500' height = '500' style='border:5px solid black'>","40","mixed_simple_deviant","images/complex/7.png","images/complex/6.png","images/simple/7.png,images/simple/16.png,images/simple/6.png,images/simple/4.png,images/simple/3.png,images/simple/18.png,images/simple/17.png","1","null","","200","413.5250000283122","","","","background","",""
"","null","html-keyboard-response","176","268278","0.0-17.0-0.31","SS1604517816896","","null","","","","","","","","","","","","<img src=images/blank.png width =""500"" height = ""500"" style=""border:5px solid black"">","","",""
"","185.30000001192093","stimulus-presentation","177","268680","0.0-17.0-1.31","SS1604517816896","<img src='images/complex/6.png' width ='500' height = '500' style='border:5px solid black'>","40","mixed_simple_deviant","images/complex/7.png","images/complex/6.png","images/simple/7.png,images/simple/16.png,images/simple/6.png,images/simple/4.png,images/simple/3.png,images/simple/18.png,images/simple/17.png","1","null","","200","385.30000001192093","","","","background","",""
"","null","html-keyboard-response","178","269642","0.0-17.0-0.32","SS1604517816896","","null","","","","","","","","","","","","<img src=images/blank.png width =""500"" height = ""500"" style=""border:5px solid black"">","","",""
"","455.1299999002367","stimulus-presentation","179","270300","0.0-17.0-1.32","SS1604517816896","<img src='images/simple/7.png' width ='500' height = '500' style='border:5px solid black'>","40","mixed_simple_deviant","images/complex/7.png","images/complex/6.png","images/simple/7.png,images/simple/16.png,images/simple/6.png,images/simple/4.png,images/simple/3.png,images/simple/18.png,images/simple/17.png","1","null","","200","655.1299999002367","","","","deviant","",""
"","null","html-keyboard-response","180","271359","0.0-17.0-0.33","SS1604517816896","","null","","","","","","","","","","","","<img src=images/blank.png width =""500"" height = ""500"" style=""border:5px solid black"">","","",""
"","182.28999990969896","stimulus-presentation","181","271757","0.0-17.0-1.33","SS1604517816896","<img src='images/complex/6.png' width ='500' height = '500' style='border:5px solid black'>","40","mixed_simple_deviant","images/complex/7.png","images/complex/6.png","images/simple/7.png,images/simple/16.png,images/simple/6.png,images/simple/4.png,images/simple/3.png,images/simple/18.png,images/simple/17.png","1","null","","200","382.28999990969896","","","","background","",""
"","null","html-keyboard-response","182","272729","0.0-17.0-0.34","SS1604517816896","","null","","","","","","","","","","","","<img src=images/blank.png width =""500"" height = ""500"" style=""border:5px solid black"">","","",""
"","224.09499995410442","stimulus-presentation","183","273156","0.0-17.0-1.34","SS1604517816896","<img src='images/complex/6.png' width ='500' height = '500' style='border:5px solid black'>","40","mixed_simple_deviant","images/complex/7.png","images/complex/6.png","images/simple/7.png,images/simple/16.png,images/simple/6.png,images/simple/4.png,images/simple/3.png,images/simple/18.png,images/simple/17.png","1","null","","200","424.0949999541044","","","","background","",""
"","null","html-keyboard-response","184","274098","0.0-17.0-0.35","SS1604517816896","","null","","","","","","","","","","","","<img src=images/blank.png width =""500"" height = ""500"" style=""border:5px solid black"">","","",""
"","1107.6500001363456","stimulus-presentation","185","275423","0.0-17.0-1.35","SS1604517816896","<img src='images/complex/7.png' width ='500' height = '500' style='border:5px solid black'>","40","mixed_simple_deviant","images/complex/7.png","images/complex/6.png","images/simple/7.png,images/simple/16.png,images/simple/6.png,images/simple/4.png,images/simple/3.png,images/simple/18.png,images/simple/17.png","1","null","","200","1307.6500001363456","yes","470.3599999193102","","target","",""
"","null","html-keyboard-response","186","276431","0.0-17.0-0.36","SS1604517816896","","null","","","","","","","","","","","","<img src=images/blank.png width =""500"" height = ""500"" style=""border:5px solid black"">","","",""
"","267.8400001022965","stimulus-presentation","187","276915","0.0-17.0-1.36","SS1604517816896","<img src='images/simple/6.png' width ='500' height = '500' style='border:5px solid black'>","40","mixed_simple_deviant","images/complex/7.png","images/complex/6.png","images/simple/7.png,images/simple/16.png,images/simple/6.png,images/simple/4.png,images/simple/3.png,images/simple/18.png,images/simple/17.png","1","null","","200","467.8400001022965","","","","deviant","",""
"","null","html-keyboard-response","188","277978","0.0-17.0-0.37","SS1604517816896","","null","","","","","","","","","","","","<img src=images/blank.png width =""500"" height = ""500"" style=""border:5px solid black"">","","",""
"","234.79500017128885","stimulus-presentation","189","278430","0.0-17.0-1.37","SS1604517816896","<img src='images/complex/6.png' width ='500' height = '500' style='border:5px solid black'>","40","mixed_simple_deviant","images/complex/7.png","images/complex/6.png","images/simple/7.png,images/simple/16.png,images/simple/6.png,images/simple/4.png,images/simple/3.png,images/simple/18.png,images/simple/17.png","1","null","","200","434.79500017128885","","","","background","",""
"","null","html-keyboard-response","190","279376","0.0-17.0-0.38","SS1604517816896","","null","","","","","","","","","","","","<img src=images/blank.png width =""500"" height = ""500"" style=""border:5px solid black"">","","",""
"","222.88499982096255","stimulus-presentation","191","279815","0.0-17.0-1.38","SS1604517816896","<img src='images/complex/6.png' width ='500' height = '500' style='border:5px solid black'>","40","mixed_simple_deviant","images/complex/7.png","images/complex/6.png","images/simple/7.png,images/simple/16.png,images/simple/6.png,images/simple/4.png,images/simple/3.png,images/simple/18.png,images/simple/17.png","1","null","","200","422.88499982096255","","","","background","",""
"","null","html-keyboard-response","192","280658","0.0-17.0-0.39","SS1604517816896","","null","","","","","","","","","","","","<img src=images/blank.png width =""500"" height = ""500"" style=""border:5px solid black"">","","",""
"","239.31500012986362","stimulus-presentation","193","281113","0.0-17.0-1.39","SS1604517816896","<img src='images/complex/6.png' width ='500' height = '500' style='border:5px solid black'>","40","mixed_simple_deviant","images/complex/7.png","images/complex/6.png","images/simple/7.png,images/simple/16.png,images/simple/6.png,images/simple/4.png,images/simple/3.png,images/simple/18.png,images/simple/17.png","1","null","","200","439.3150001298636","","","","background","",""
"","null","html-keyboard-response","194","282152","0.0-17.0-0.40","SS1604517816896","","null","","","","","","","","","","","","<img src=images/blank.png width =""500"" height = ""500"" style=""border:5px solid black"">","","",""
"","526.9000001717359","stimulus-presentation","195","282897","0.0-17.0-1.40","SS1604517816896","<img src='images/simple/16.png' width ='500' height = '500' style='border:5px solid black'>","40","mixed_simple_deviant","images/complex/7.png","images/complex/6.png","images/simple/7.png,images/simple/16.png,images/simple/6.png,images/simple/4.png,images/simple/3.png,images/simple/18.png,images/simple/17.png","1","null","","200","726.9000001717359","","","","deviant","",""
"","null","html-keyboard-response","196","283866","0.0-17.0-0.41","SS1604517816896","","null","","","","","","","","","","","","<img src=images/blank.png width =""500"" height = ""500"" style=""border:5px solid black"">","","",""
"","614.3600000068545","stimulus-presentation","197","284696","0.0-17.0-1.41","SS1604517816896","<img src='images/complex/6.png' width ='500' height = '500' style='border:5px solid black'>","40","mixed_simple_deviant","images/complex/7.png","images/complex/6.png","images/simple/7.png,images/simple/16.png,images/simple/6.png,images/simple/4.png,images/simple/3.png,images/simple/18.png,images/simple/17.png","1","null","","200","814.3600000068545","","","","background","",""
"","null","html-keyboard-response","198","285719","0.0-17.0-0.42","SS1604517816896","","null","","","","","","","","","","","","<img src=images/blank.png width =""500"" height = ""500"" style=""border:5px solid black"">","","",""
"","767.4549999646842","stimulus-presentation","199","286703","0.0-17.0-1.42","SS1604517816896","<img src='images/complex/7.png' width ='500' height = '500' style='border:5px solid black'>","40","mixed_simple_deviant","images/complex/7.png","images/complex/6.png","images/simple/7.png,images/simple/16.png,images/simple/6.png,images/simple/4.png,images/simple/3.png,images/simple/18.png,images/simple/17.png","1","null","","200","967.4549999646842","yes","355.56000005453825","","target","",""
"","null","html-keyboard-response","200","287636","0.0-17.0-0.43","SS1604517816896","","null","","","","","","","","","","","","<img src=images/blank.png width =""500"" height = ""500"" style=""border:5px solid black"">","","",""
"","428.42500004917383","stimulus-presentation","201","288283","0.0-17.0-1.43","SS1604517816896","<img src='images/complex/6.png' width ='500' height = '500' style='border:5px solid black'>","40","mixed_simple_deviant","images/complex/7.png","images/complex/6.png","images/simple/7.png,images/simple/16.png,images/simple/6.png,images/simple/4.png,images/simple/3.png,images/simple/18.png,images/simple/17.png","1","null","","200","628.4250000491738","","","","background","",""
"","null","html-keyboard-response","202","289369","0.0-17.0-0.44","SS1604517816896","","null","","","","","","","","","","","","<img src=images/blank.png width =""500"" height = ""500"" style=""border:5px solid black"">","","",""
"","269.25499993376434","stimulus-presentation","203","289856","0.0-17.0-1.44","SS1604517816896","<img src='images/complex/6.png' width ='500' height = '500' style='border:5px solid black'>","40","mixed_simple_deviant","images/complex/7.png","images/complex/6.png","images/simple/7.png,images/simple/16.png,images/simple/6.png,images/simple/4.png,images/simple/3.png,images/simple/18.png,images/simple/17.png","1","null","","200","469.25499993376434","","","","background","",""
"","null","html-keyboard-response","204","290844","0.0-17.0-0.45","SS1604517816896","","null","","","","","","","","","","","","<img src=images/blank.png width =""500"" height = ""500"" style=""border:5px solid black"">","","",""
"","908.3399998489767","stimulus-presentation","205","291968","0.0-17.0-1.45","SS1604517816896","<img src='images/complex/7.png' width ='500' height = '500' style='border:5px solid black'>","40","mixed_simple_deviant","images/complex/7.png","images/complex/6.png","images/simple/7.png,images/simple/16.png,images/simple/6.png,images/simple/4.png,images/simple/3.png,images/simple/18.png,images/simple/17.png","1","null","","200","1108.3399998489767","yes","386.8149998597801","","target","",""
"","null","html-keyboard-response","206","293194","0.0-17.0-0.46","SS1604517816896","","null","","","","","","","","","","","","<img src=images/blank.png width =""500"" height = ""500"" style=""border:5px solid black"">","","",""
"","298.3399999793619","stimulus-presentation","207","293709","0.0-17.0-1.46","SS1604517816896","<img src='images/complex/6.png' width ='500' height = '500' style='border:5px solid black'>","40","mixed_simple_deviant","images/complex/7.png","images/complex/6.png","images/simple/7.png,images/simple/16.png,images/simple/6.png,images/simple/4.png,images/simple/3.png,images/simple/18.png,images/simple/17.png","1","null","","200","498.3399999793619","","","","background","",""
"","null","html-keyboard-response","208","294754","0.0-17.0-0.47","SS1604517816896","","null","","","","","","","","","","","","<img src=images/blank.png width =""500"" height = ""500"" style=""border:5px solid black"">","","",""
"","215.44499997980893","stimulus-presentation","209","295187","0.0-17.0-1.47","SS1604517816896","<img src='images/complex/6.png' width ='500' height = '500' style='border:5px solid black'>","40","mixed_simple_deviant","images/complex/7.png","images/complex/6.png","images/simple/7.png,images/simple/16.png,images/simple/6.png,images/simple/4.png,images/simple/3.png,images/simple/18.png,images/simple/17.png","1","null","","200","415.4449999798089","","","","background","",""
"","null","html-keyboard-response","210","296332","0.0-17.0-0.48","SS1604517816896","","null","","","","","","","","","","","","<img src=images/blank.png width =""500"" height = ""500"" style=""border:5px solid black"">","","",""
"","803.675000090152","stimulus-presentation","211","297338","0.0-17.0-1.48","SS1604517816896","<img src='images/complex/7.png' width ='500' height = '500' style='border:5px solid black'>","40","mixed_simple_deviant","images/complex/7.png","images/complex/6.png","images/simple/7.png,images/simple/16.png,images/simple/6.png,images/simple/4.png,images/simple/3.png,images/simple/18.png,images/simple/17.png","1","null","","200","1003.675000090152","yes","377.3100001271814","","target","",""
"[{""page_index"":0,""viewing_time"":2385}]","2385","task-instructions","212","299726","0.0-18.0","SS1604517816896","","","","","","","","","","","","","","","","",""
"[{""page_index"":0,""viewing_time"":3577.1900000981987},{""page_index"":1,""viewing_time"":2560.3650000412017},{""page_index"":2,""viewing_time"":2018.669999903068}]","8156.315000029281","instructions","213","307885","0.0-19.0","SS1604517816896","","","","","","","","","","","","","","","","",""
"","null","html-keyboard-response","214","308712","0.0-20.0-0.0","SS1604517816896","","null","","","","","","","","","","","","<img src=images/blank.png width =""500"" height = ""500"" style=""border:5px solid black"">","","",""
"","802.4600001517683","stimulus-presentation","215","309732","0.0-20.0-1.0","SS1604517816896","<img src='images/complex/18.png' width ='500' height = '500' style='border:5px solid black'>","40","all_complex","images/complex/11.png","images/complex/1.png","images/complex/17.png,images/complex/12.png,images/complex/3.png,images/complex/18.png,images/complex/13.png,images/complex/8.png,images/complex/4.png","2","null","","200","1002.4600001517683","","","","deviant","",""
"","null","html-keyboard-response","216","310833","0.0-20.0-0.1","SS1604517816896","","null","","","","","","","","","","","","<img src=images/blank.png width =""500"" height = ""500"" style=""border:5px solid black"">","","",""
"","402.3550001438707","stimulus-presentation","217","311452","0.0-20.0-1.1","SS1604517816896","<img src='images/complex/1.png' width ='500' height = '500' style='border:5px solid black'>","40","all_complex","images/complex/11.png","images/complex/1.png","images/complex/17.png,images/complex/12.png,images/complex/3.png,images/complex/18.png,images/complex/13.png,images/complex/8.png,images/complex/4.png","2","null","","200","602.3550001438707","","","","background","",""
"","null","html-keyboard-response","218","312606","0.0-20.0-0.2","SS1604517816896","","null","","","","","","","","","","","","<img src=images/blank.png width =""500"" height = ""500"" style=""border:5px solid black"">","","",""
"","242.19999997876585","stimulus-presentation","219","313065","0.0-20.0-1.2","SS1604517816896","<img src='images/complex/1.png' width ='500' height = '500' style='border:5px solid black'>","40","all_complex","images/complex/11.png","images/complex/1.png","images/complex/17.png,images/complex/12.png,images/complex/3.png,images/complex/18.png,images/complex/13.png,images/complex/8.png,images/complex/4.png","2","null","","200","442.19999997876585","","","","background","",""
"","null","html-keyboard-response","220","314130","0.0-20.0-0.3","SS1604517816896","","null","","","","","","","","","","","","<img src=images/blank.png width =""500"" height = ""500"" style=""border:5px solid black"">","","",""
"","334.17499996721745","stimulus-presentation","221","314668","0.0-20.0-1.3","SS1604517816896","<img src='images/complex/1.png' width ='500' height = '500' style='border:5px solid black'>","40","all_complex","images/complex/11.png","images/complex/1.png","images/complex/17.png,images/complex/12.png,images/complex/3.png,images/complex/18.png,images/complex/13.png,images/complex/8.png,images/complex/4.png","2","null","","200","534.1749999672174","","","","background","",""
"","null","html-keyboard-response","222","315833","0.0-20.0-0.4","SS1604517816896","","null","","","","","","","","","","","","<img src=images/blank.png width =""500"" height = ""500"" style=""border:5px solid black"">","","",""
"","173.31000021658838","stimulus-presentation","223","316225","0.0-20.0-1.4","SS1604517816896","<img src='images/complex/1.png' width ='500' height = '500' style='border:5px solid black'>","40","all_complex","images/complex/11.png","images/complex/1.png","images/complex/17.png,images/complex/12.png,images/complex/3.png,images/complex/18.png,images/complex/13.png,images/complex/8.png,images/complex/4.png","2","null","","200","373.3100002165884","","","","background","",""
"","null","html-keyboard-response","224","317217","0.0-20.0-0.5","SS1604517816896","","null","","","","","","","","","","","","<img src=images/blank.png width =""500"" height = ""500"" style=""border:5px solid black"">","","",""
"","227.99000004306436","stimulus-presentation","225","317648","0.0-20.0-1.5","SS1604517816896","<img src='images/complex/1.png' width ='500' height = '500' style='border:5px solid black'>","40","all_complex","images/complex/11.png","images/complex/1.png","images/complex/17.png,images/complex/12.png,images/complex/3.png,images/complex/18.png,images/complex/13.png,images/complex/8.png,images/complex/4.png","2","null","","200","427.99000004306436","","","","background","",""
"","null","html-keyboard-response","226","318653","0.0-20.0-0.6","SS1604517816896","","null","","","","","","","","","","","","<img src=images/blank.png width =""500"" height = ""500"" style=""border:5px solid black"">","","",""
"","415.3150001075119","stimulus-presentation","227","319286","0.0-20.0-1.6","SS1604517816896","<img src='images/complex/3.png' width ='500' height = '500' style='border:5px solid black'>","40","all_complex","images/complex/11.png","images/complex/1.png","images/complex/17.png,images/complex/12.png,images/complex/3.png,images/complex/18.png,images/complex/13.png,images/complex/8.png,images/complex/4.png","2","null","","200","615.3150001075119","","","","deviant","",""
"","null","html-keyboard-response","228","320410","0.0-20.0-0.7","SS1604517816896","","null","","","","","","","","","","","","<img src=images/blank.png width =""500"" height = ""500"" style=""border:5px solid black"">","","",""
"","267.6900001242757","stimulus-presentation","229","320895","0.0-20.0-1.7","SS1604517816896","<img src='images/complex/1.png' width ='500' height = '500' style='border:5px solid black'>","40","all_complex","images/complex/11.png","images/complex/1.png","images/complex/17.png,images/complex/12.png,images/complex/3.png,images/complex/18.png,images/complex/13.png,images/complex/8.png,images/complex/4.png","2","null","","200","467.6900001242757","","","","background","",""
"","null","html-keyboard-response","230","321859","0.0-20.0-0.8","SS1604517816896","","null","","","","","","","","","","","","<img src=images/blank.png width =""500"" height = ""500"" style=""border:5px solid black"">","","",""
"","243.40500007383525","stimulus-presentation","231","322307","0.0-20.0-1.8","SS1604517816896","<img src='images/complex/1.png' width ='500' height = '500' style='border:5px solid black'>","40","all_complex","images/complex/11.png","images/complex/1.png","images/complex/17.png,images/complex/12.png,images/complex/3.png,images/complex/18.png,images/complex/13.png,images/complex/8.png,images/complex/4.png","2","null","","200","443.40500007383525","","","","background","",""
"","null","html-keyboard-response","232","323169","0.0-20.0-0.9","SS1604517816896","","null","","","","","","","","","","","","<img src=images/blank.png width =""500"" height = ""500"" style=""border:5px solid black"">","","",""
"","825.4499998874962","stimulus-presentation","233","324199","0.0-20.0-1.9","SS1604517816896","<img src='images/complex/11.png' width ='500' height = '500' style='border:5px solid black'>","40","all_complex","images/complex/11.png","images/complex/1.png","images/complex/17.png,images/complex/12.png,images/complex/3.png,images/complex/18.png,images/complex/13.png,images/complex/8.png,images/complex/4.png","2","null","","200","1025.4499998874962","yes","461.2749998923391","","target","",""
"","null","html-keyboard-response","234","325121","0.0-20.0-0.10","SS1604517816896","","null","","","","","","","","","","","","<img src=images/blank.png width =""500"" height = ""500"" style=""border:5px solid black"">","","",""
"","378.2800000626594","stimulus-presentation","235","325718","0.0-20.0-1.10","SS1604517816896","<img src='images/complex/1.png' width ='500' height = '500' style='border:5px solid black'>","40","all_complex","images/complex/11.png","images/complex/1.png","images/complex/17.png,images/complex/12.png,images/complex/3.png,images/complex/18.png,images/complex/13.png,images/complex/8.png,images/complex/4.png","2","null","","200","578.2800000626594","","","","background","",""
"","null","html-keyboard-response","236","326773","0.0-20.0-0.11","SS1604517816896","","null","","","","","","","","","","","","<img src=images/blank.png width =""500"" height = ""500"" style=""border:5px solid black"">","","",""
"","299.94499986059964","stimulus-presentation","237","327276","0.0-20.0-1.11","SS1604517816896","<img src='images/complex/1.png' width ='500' height = '500' style='border:5px solid black'>","40","all_complex","images/complex/11.png","images/complex/1.png","images/complex/17.png,images/complex/12.png,images/complex/3.png,images/complex/18.png,images/complex/13.png,images/complex/8.png,images/complex/4.png","2","null","","200","499.94499986059964","","","","background","",""
"","null","html-keyboard-response","238","328475","0.0-20.0-0.12","SS1604517816896","","null","","","","","","","","","","","","<img src=images/blank.png width =""500"" height = ""500"" style=""border:5px solid black"">","","",""
"","872.2900000866503","stimulus-presentation","239","329564","0.0-20.0-1.12","SS1604517816896","<img src='images/complex/11.png' width ='500' height = '500' style='border:5px solid black'>","40","all_complex","images/complex/11.png","images/complex/1.png","images/complex/17.png,images/complex/12.png,images/complex/3.png,images/complex/18.png,images/complex/13.png,images/complex/8.png,images/complex/4.png","2","null","","200","1072.2900000866503","yes","446.6250000987202","","target","",""
"","null","html-keyboard-response","240","330846","0.0-20.0-0.13","SS1604517816896","","null","","","","","","","","","","","","<img src=images/blank.png width =""500"" height = ""500"" style=""border:5px solid black"">","","",""
"","414.01499998755753","stimulus-presentation","241","331479","0.0-20.0-1.13","SS1604517816896","<img src='images/complex/17.png' width ='500' height = '500' style='border:5px solid black'>","40","all_complex","images/complex/11.png","images/complex/1.png","images/complex/17.png,images/complex/12.png,images/complex/3.png,images/complex/18.png,images/complex/13.png,images/complex/8.png,images/complex/4.png","2","null","","200","614.0149999875575","","","","deviant","",""
"","null","html-keyboard-response","242","332420","0.0-20.0-0.14","SS1604517816896","","null","","","","","","","","","","","","<img src=images/blank.png width =""500"" height = ""500"" style=""border:5px solid black"">","","",""
"","903.0849998816848","stimulus-presentation","243","333539","0.0-20.0-1.14","SS1604517816896","<img src='images/complex/11.png' width ='500' height = '500' style='border:5px solid black'>","40","all_complex","images/complex/11.png","images/complex/1.png","images/complex/17.png,images/complex/12.png,images/complex/3.png,images/complex/18.png,images/complex/13.png,images/complex/8.png,images/complex/4.png","2","null","","200","1103.0849998816848","yes","422.95999987982213","","target","",""
"","null","html-keyboard-response","244","334813","0.0-20.0-0.15","SS1604517816896","","null","","","","","","","","","","","","<img src=images/blank.png width =""500"" height = ""500"" style=""border:5px solid black"">","","",""
"","370.094999903813","stimulus-presentation","245","335400","0.0-20.0-1.15","SS1604517816896","<img src='images/complex/4.png' width ='500' height = '500' style='border:5px solid black'>","40","all_complex","images/complex/11.png","images/complex/1.png","images/complex/17.png,images/complex/12.png,images/complex/3.png,images/complex/18.png,images/complex/13.png,images/complex/8.png,images/complex/4.png","2","null","","200","570.094999903813","","","","deviant","",""
"","null","html-keyboard-response","246","336607","0.0-20.0-0.16","SS1604517816896","","null","","","","","","","","","","","","<img src=images/blank.png width =""500"" height = ""500"" style=""border:5px solid black"">","","",""
"","264.9649998638779","stimulus-presentation","247","337087","0.0-20.0-1.16","SS1604517816896","<img src='images/complex/1.png' width ='500' height = '500' style='border:5px solid black'>","40","all_complex","images/complex/11.png","images/complex/1.png","images/complex/17.png,images/complex/12.png,images/complex/3.png,images/complex/18.png,images/complex/13.png,images/complex/8.png,images/complex/4.png","2","null","","200","464.9649998638779","","","","background","",""
"","null","html-keyboard-response","248","337953","0.0-20.0-0.17","SS1604517816896","","null","","","","","","","","","","","","<img src=images/blank.png width =""500"" height = ""500"" style=""border:5px solid black"">","","",""
"","255.69500005804002","stimulus-presentation","249","338423","0.0-20.0-1.17","SS1604517816896","<img src='images/complex/1.png' width ='500' height = '500' style='border:5px solid black'>","40","all_complex","images/complex/11.png","images/complex/1.png","images/complex/17.png,images/complex/12.png,images/complex/3.png,images/complex/18.png,images/complex/13.png,images/complex/8.png,images/complex/4.png","2","null","","200","455.69500005804","","","","background","",""
"","null","html-keyboard-response","250","339646","0.0-20.0-0.18","SS1604517816896","","null","","","","","","","","","","","","<img src=images/blank.png width =""500"" height = ""500"" style=""border:5px solid black"">","","",""
"","146.1699998471886","stimulus-presentation","251","340010","0.0-20.0-1.18","SS1604517816896","<img src='images/complex/1.png' width ='500' height = '500' style='border:5px solid black'>","40","all_complex","images/complex/11.png","images/complex/1.png","images/complex/17.png,images/complex/12.png,images/complex/3.png,images/complex/18.png,images/complex/13.png,images/complex/8.png,images/complex/4.png","2","null","","200","346.1699998471886","","","","background","",""
"","null","html-keyboard-response","252","340987","0.0-20.0-0.19","SS1604517816896","","null","","","","","","","","","","","","<img src=images/blank.png width =""500"" height = ""500"" style=""border:5px solid black"">","","",""
"","200.04499983042479","stimulus-presentation","253","341404","0.0-20.0-1.19","SS1604517816896","<img src='images/complex/1.png' width ='500' height = '500' style='border:5px solid black'>","40","all_complex","images/complex/11.png","images/complex/1.png","images/complex/17.png,images/complex/12.png,images/complex/3.png,images/complex/18.png,images/complex/13.png,images/complex/8.png,images/complex/4.png","2","null","","200","400.0449998304248","","","","background","",""
"","null","html-keyboard-response","254","342332","0.0-20.0-0.20","SS1604517816896","","null","","","","","","","","","","","","<img src=images/blank.png width =""500"" height = ""500"" style=""border:5px solid black"">","","",""
"","320.7300000358373","stimulus-presentation","255","342869","0.0-20.0-1.20","SS1604517816896","<img src='images/complex/1.png' width ='500' height = '500' style='border:5px solid black'>","40","all_complex","images/complex/11.png","images/complex/1.png","images/complex/17.png,images/complex/12.png,images/complex/3.png,images/complex/18.png,images/complex/13.png,images/complex/8.png,images/complex/4.png","2","null","","200","520.7300000358373","","","","background","",""
"","null","html-keyboard-response","256","343929","0.0-20.0-0.21","SS1604517816896","","null","","","","","","","","","","","","<img src=images/blank.png width =""500"" height = ""500"" style=""border:5px solid black"">","","",""
"","270.16999991610646","stimulus-presentation","257","344416","0.0-20.0-1.21","SS1604517816896","<img src='images/complex/1.png' width ='500' height = '500' style='border:5px solid black'>","40","all_complex","images/complex/11.png","images/complex/1.png","images/complex/17.png,images/complex/12.png,images/complex/3.png,images/complex/18.png,images/complex/13.png,images/complex/8.png,images/complex/4.png","2","null","","200","470.16999991610646","","","","background","",""
"","null","html-keyboard-response","258","345328","0.0-20.0-0.22","SS1604517816896","","null","","","","","","","","","","","","<img src=images/blank.png width =""500"" height = ""500"" style=""border:5px solid black"">","","",""
"","308.4899999666959","stimulus-presentation","259","345840","0.0-20.0-1.22","SS1604517816896","<img src='images/complex/1.png' width ='500' height = '500' style='border:5px solid black'>","40","all_complex","images/complex/11.png","images/complex/1.png","images/complex/17.png,images/complex/12.png,images/complex/3.png,images/complex/18.png,images/complex/13.png,images/complex/8.png,images/complex/4.png","2","null","","200","508.4899999666959","","","","background","",""
"","null","html-keyboard-response","260","346700","0.0-20.0-0.23","SS1604517816896","","null","","","","","","","","","","","","<img src=images/blank.png width =""500"" height = ""500"" style=""border:5px solid black"">","","",""
"","334.0049998369068","stimulus-presentation","261","347250","0.0-20.0-1.23","SS1604517816896","<img src='images/complex/1.png' width ='500' height = '500' style='border:5px solid black'>","40","all_complex","images/complex/11.png","images/complex/1.png","images/complex/17.png,images/complex/12.png,images/complex/3.png,images/complex/18.png,images/complex/13.png,images/complex/8.png,images/complex/4.png","2","null","","200","534.0049998369068","","","","background","",""
"","null","html-keyboard-response","262","348086","0.0-20.0-0.24","SS1604517816896","","null","","","","","","","","","","","","<img src=images/blank.png width =""500"" height = ""500"" style=""border:5px solid black"">","","",""
"","1014.4599999766797","stimulus-presentation","263","349318","0.0-20.0-1.24","SS1604517816896","<img src='images/complex/11.png' width ='500' height = '500' style='border:5px solid black'>","40","all_complex","images/complex/11.png","images/complex/1.png","images/complex/17.png,images/complex/12.png,images/complex/3.png,images/complex/18.png,images/complex/13.png,images/complex/8.png,images/complex/4.png","2","null","","200","1214.4599999766797","yes","459.84499994665384","","target","",""
"","null","html-keyboard-response","264","350627","0.0-20.0-0.25","SS1604517816896","","null","","","","","","","","","","","","<img src=images/blank.png width =""500"" height = ""500"" style=""border:5px solid black"">","","",""
"","903.249999973923","stimulus-presentation","265","351748","0.0-20.0-1.25","SS1604517816896","<img src='images/complex/11.png' width ='500' height = '500' style='border:5px solid black'>","40","all_complex","images/complex/11.png","images/complex/1.png","images/complex/17.png,images/complex/12.png,images/complex/3.png,images/complex/18.png,images/complex/13.png,images/complex/8.png,images/complex/4.png","2","null","","200","1103.249999973923","yes","408.8699999265373","","target","",""
"","null","html-keyboard-response","266","352607","0.0-20.0-0.26","SS1604517816896","","null","","","","","","","","","","","","<img src=images/blank.png width =""500"" height = ""500"" style=""border:5px solid black"">","","",""
"","295.1749998610467","stimulus-presentation","267","353120","0.0-20.0-1.26","SS1604517816896","<img src='images/complex/1.png' width ='500' height = '500' style='border:5px solid black'>","40","all_complex","images/complex/11.png","images/complex/1.png","images/complex/17.png,images/complex/12.png,images/complex/3.png,images/complex/18.png,images/complex/13.png,images/complex/8.png,images/complex/4.png","2","null","","200","495.1749998610467","","","","background","",""
"","null","html-keyboard-response","268","354044","0.0-20.0-0.27","SS1604517816896","","null","","","","","","","","","","","","<img src=images/blank.png width =""500"" height = ""500"" style=""border:5px solid black"">","","",""
"","437.65500001609325","stimulus-presentation","269","354685","0.0-20.0-1.27","SS1604517816896","<img src='images/complex/8.png' width ='500' height = '500' style='border:5px solid black'>","40","all_complex","images/complex/11.png","images/complex/1.png","images/complex/17.png,images/complex/12.png,images/complex/3.png,images/complex/18.png,images/complex/13.png,images/complex/8.png,images/complex/4.png","2","null","","200","637.6550000160933","","","","deviant","",""
"","null","html-keyboard-response","270","355986","0.0-20.0-0.28","SS1604517816896","","null","","","","","","","","","","","","<img src=images/blank.png width =""500"" height = ""500"" style=""border:5px solid black"">","","",""
"","349.58000015467405","stimulus-presentation","271","356555","0.0-20.0-1.28","SS1604517816896","<img src='images/complex/1.png' width ='500' height = '500' style='border:5px solid black'>","40","all_complex","images/complex/11.png","images/complex/1.png","images/complex/17.png,images/complex/12.png,images/complex/3.png,images/complex/18.png,images/complex/13.png,images/complex/8.png,images/complex/4.png","2","null","","200","549.580000154674","","","","background","",""
"","null","html-keyboard-response","272","357731","0.0-20.0-0.29","SS1604517816896","","null","","","","","","","","","","","","<img src=images/blank.png width =""500"" height = ""500"" style=""border:5px solid black"">","","",""
"","332.3000001255423","stimulus-presentation","273","358281","0.0-20.0-1.29","SS1604517816896","<img src='images/complex/1.png' width ='500' height = '500' style='border:5px solid black'>","40","all_complex","images/complex/11.png","images/complex/1.png","images/complex/17.png,images/complex/12.png,images/complex/3.png,images/complex/18.png,images/complex/13.png,images/complex/8.png,images/complex/4.png","2","null","","200","532.3000001255423","","","","background","",""
"","null","html-keyboard-response","274","359113","0.0-20.0-0.30","SS1604517816896","","null","","","","","","","","","","","","<img src=images/blank.png width =""500"" height = ""500"" style=""border:5px solid black"">","","",""
"","455.5000001564622","stimulus-presentation","275","359773","0.0-20.0-1.30","SS1604517816896","<img src='images/complex/12.png' width ='500' height = '500' style='border:5px solid black'>","40","all_complex","images/complex/11.png","images/complex/1.png","images/complex/17.png,images/complex/12.png,images/complex/3.png,images/complex/18.png,images/complex/13.png,images/complex/8.png,images/complex/4.png","2","null","","200","655.5000001564622","","","","deviant","",""
"","null","html-keyboard-response","276","360797","0.0-20.0-0.31","SS1604517816896","","null","","","","","","","","","","","","<img src=images/blank.png width =""500"" height = ""500"" style=""border:5px solid black"">","","",""
"","271.4549999218434","stimulus-presentation","277","361286","0.0-20.0-1.31","SS1604517816896","<img src='images/complex/1.png' width ='500' height = '500' style='border:5px solid black'>","40","all_complex","images/complex/11.png","images/complex/1.png","images/complex/17.png,images/complex/12.png,images/complex/3.png,images/complex/18.png,images/complex/13.png,images/complex/8.png,images/complex/4.png","2","null","","200","471.4549999218434","","","","background","",""
"","null","html-keyboard-response","278","362465","0.0-20.0-0.32","SS1604517816896","","null","","","","","","","","","","","","<img src=images/blank.png width =""500"" height = ""500"" style=""border:5px solid black"">","","",""
"","853.1400000210851","stimulus-presentation","279","363522","0.0-20.0-1.32","SS1604517816896","<img src='images/complex/11.png' width ='500' height = '500' style='border:5px solid black'>","40","all_complex","images/complex/11.png","images/complex/1.png","images/complex/17.png,images/complex/12.png,images/complex/3.png,images/complex/18.png,images/complex/13.png,images/complex/8.png,images/complex/4.png","2","null","","200","1053.1400000210851","yes","390.1150000747293","","target","",""
"","null","html-keyboard-response","280","364666","0.0-20.0-0.33","SS1604517816896","","null","","","","","","","","","","","","<img src=images/blank.png width =""500"" height = ""500"" style=""border:5px solid black"">","","",""
"","266.7900000233203","stimulus-presentation","281","365151","0.0-20.0-1.33","SS1604517816896","<img src='images/complex/1.png' width ='500' height = '500' style='border:5px solid black'>","40","all_complex","images/complex/11.png","images/complex/1.png","images/complex/17.png,images/complex/12.png,images/complex/3.png,images/complex/18.png,images/complex/13.png,images/complex/8.png,images/complex/4.png","2","null","","200","466.7900000233203","","","","background","",""
"","null","html-keyboard-response","282","366164","0.0-20.0-0.34","SS1604517816896","","null","","","","","","","","","","","","<img src=images/blank.png width =""500"" height = ""500"" style=""border:5px solid black"">","","",""
"","285.4700000025332","stimulus-presentation","283","366667","0.0-20.0-1.34","SS1604517816896","<img src='images/complex/1.png' width ='500' height = '500' style='border:5px solid black'>","40","all_complex","images/complex/11.png","images/complex/1.png","images/complex/17.png,images/complex/12.png,images/complex/3.png,images/complex/18.png,images/complex/13.png,images/complex/8.png,images/complex/4.png","2","null","","200","485.4700000025332","","","","background","",""
"","null","html-keyboard-response","284","367550","0.0-20.0-0.35","SS1604517816896","","null","","","","","","","","","","","","<img src=images/blank.png width =""500"" height = ""500"" style=""border:5px solid black"">","","",""
