"view_history","rt","trial_type","trial_index","time_elapsed","internal_node_id","subject","trial_stimulus","key_press","task_type","task_target_stimulus","task_background_stimulus","task_deviant_stimuli","task_order_number","block_order_number","trial_order_number","minimum_viewing_duration","trial_looking_time","trial_pressed_space_bar","trial_space_bar_rt","stimulus","trial_stimulus_type","responses","question_order"
"[{""page_index"":0,""viewing_time"":6943}]","6944","instructions","0","6947","0.0-0.0","SS1604611324615","","","","","","","","","","","","","","","","",""
"[{""page_index"":0,""viewing_time"":6256},{""page_index"":1,""viewing_time"":3960},{""page_index"":2,""viewing_time"":5888},{""page_index"":3,""viewing_time"":7102},{""page_index"":4,""viewing_time"":3469},{""page_index"":5,""viewing_time"":7491},{""page_index"":6,""viewing_time"":2607},{""page_index"":7,""viewing_time"":4297},{""page_index"":8,""viewing_time"":2398}]","43469","instructions","1","50420","0.0-1.0","SS1604611324615","","","","","","","","","","","","","","","","",""
"[{""page_index"":0,""viewing_time"":8963},{""page_index"":1,""viewing_time"":7771},{""page_index"":2,""viewing_time"":3045}]","19779","instructions","2","70199","0.0-2.0","SS1604611324615","","","","","","","","","","","","","","","","",""
"","1911","practice-block","3","72322","0.0-3.0","SS1604611324615","<img src='images/practice/practice_background.jpeg' width ='500' height = '500' style='border:5px solid black'>","40","null","images/practice/practice_target.jpg","null","null","null","null","","200","2111","","","","","",""
"","null","html-keyboard-response","4","73540","0.0-4.0","SS1604611324615","","null","","","","","","","","","","","","<img src=images/blank.png width =""500"" height = ""500"" style=""border:5px solid black"">","","",""
"","314","practice-block","5","74075","0.0-5.0","SS1604611324615","<img src='images/practice/practice_background.jpeg' width ='500' height = '500' style='border:5px solid black'>","40","null","images/practice/practice_target.jpg","null","null","null","null","","200","514","","","","","",""
"","null","html-keyboard-response","6","75241","0.0-6.0","SS1604611324615","","null","","","","","","","","","","","","<img src=images/blank.png width =""500"" height = ""500"" style=""border:5px solid black"">","","",""
"","131","practice-block","7","75581","0.0-7.0","SS1604611324615","<img src='images/practice/practice_deviant.jpeg' width ='500' height = '500' style='border:5px solid black'>","40","null","images/practice/practice_target.jpg","null","null","null","null","","200","331","","","","","",""
"","null","html-keyboard-response","8","76391","0.0-8.0","SS1604611324615","","null","","","","","","","","","","","","<img src=images/blank.png width =""500"" height = ""500"" style=""border:5px solid black"">","","",""
"","5773","practice-block","9","82383","0.0-9.0-0.0","SS1604611324615","<img src='images/practice/practice_target.jpg' width ='500' height = '500' style='border:5px solid black'>","40","null","images/practice/practice_target.jpg","null","null","null","null","","200","5973","yes","276","","","",""
"","null","html-keyboard-response","10","83612","0.0-10.0","SS1604611324615","","null","","","","","","","","","","","","<img src=images/blank.png width =""500"" height = ""500"" style=""border:5px solid black"">","","",""
"","222","practice-block","11","84054","0.0-11.0","SS1604611324615","<img src='images/practice/practice_background.jpeg' width ='500' height = '500' style='border:5px solid black'>","40","null","images/practice/practice_target.jpg","null","null","null","null","","200","422","","","","","",""
"[{""page_index"":0,""viewing_time"":3197}]","3198","task-instructions","12","87252","0.0-12.0","SS1604611324615","","","","","","","","","","","","","","","","",""
"[{""page_index"":0,""viewing_time"":2468},{""page_index"":1,""viewing_time"":3314},{""page_index"":2,""viewing_time"":1894}]","7677","instructions","13","94929","0.0-13.0","SS1604611324615","","","","","","","","","","","","","","","","",""
"","null","html-keyboard-response","14","96009","0.0-14.0-0.0","SS1604611324615","","null","","","","","","","","","","","","<img src=images/blank.png width =""500"" height = ""500"" style=""border:5px solid black"">","","",""
"","231","stimulus-presentation","15","96454","0.0-14.0-1.0","SS1604611324615","<img src='images/simple/18.png' width ='500' height = '500' style='border:5px solid black'>","40","all_simple","images/simple/13.png","images/simple/11.png","images/simple/14.png,images/simple/10.png,images/simple/18.png,images/simple/3.png,images/simple/17.png,images/simple/7.png,images/simple/8.png","0","null","","200","431","","","","deviant","",""
"","null","html-keyboard-response","16","97503","0.0-14.0-0.1","SS1604611324615","","null","","","","","","","","","","","","<img src=images/blank.png width =""500"" height = ""500"" style=""border:5px solid black"">","","",""
"","711","stimulus-presentation","17","98435","0.0-14.0-1.1","SS1604611324615","<img src='images/simple/11.png' width ='500' height = '500' style='border:5px solid black'>","40","all_simple","images/simple/13.png","images/simple/11.png","images/simple/14.png,images/simple/10.png,images/simple/18.png,images/simple/3.png,images/simple/17.png,images/simple/7.png,images/simple/8.png","0","null","","200","911","","","","background","",""
"","null","html-keyboard-response","18","99663","0.0-14.0-0.2","SS1604611324615","","null","","","","","","","","","","","","<img src=images/blank.png width =""500"" height = ""500"" style=""border:5px solid black"">","","",""
"","1709","stimulus-presentation","19","101592","0.0-14.0-1.2","SS1604611324615","<img src='images/simple/13.png' width ='500' height = '500' style='border:5px solid black'>","40","all_simple","images/simple/13.png","images/simple/11.png","images/simple/14.png,images/simple/10.png,images/simple/18.png,images/simple/3.png,images/simple/17.png,images/simple/7.png,images/simple/8.png","0","null","","200","1909","yes","305","","target","",""
"","null","html-keyboard-response","20","102709","0.0-14.0-0.3","SS1604611324615","","null","","","","","","","","","","","","<img src=images/blank.png width =""500"" height = ""500"" style=""border:5px solid black"">","","",""
"","374","stimulus-presentation","21","103287","0.0-14.0-1.3","SS1604611324615","<img src='images/simple/11.png' width ='500' height = '500' style='border:5px solid black'>","40","all_simple","images/simple/13.png","images/simple/11.png","images/simple/14.png,images/simple/10.png,images/simple/18.png,images/simple/3.png,images/simple/17.png,images/simple/7.png,images/simple/8.png","0","null","","200","574","","","","background","",""
"","null","html-keyboard-response","22","104174","0.0-14.0-0.4","SS1604611324615","","null","","","","","","","","","","","","<img src=images/blank.png width =""500"" height = ""500"" style=""border:5px solid black"">","","",""
"","227","stimulus-presentation","23","104610","0.0-14.0-1.4","SS1604611324615","<img src='images/simple/11.png' width ='500' height = '500' style='border:5px solid black'>","40","all_simple","images/simple/13.png","images/simple/11.png","images/simple/14.png,images/simple/10.png,images/simple/18.png,images/simple/3.png,images/simple/17.png,images/simple/7.png,images/simple/8.png","0","null","","200","427","","","","background","",""
"","null","html-keyboard-response","24","105863","0.0-14.0-0.5","SS1604611324615","","null","","","","","","","","","","","","<img src=images/blank.png width =""500"" height = ""500"" style=""border:5px solid black"">","","",""
"","111","stimulus-presentation","25","106195","0.0-14.0-1.5","SS1604611324615","<img src='images/simple/11.png' width ='500' height = '500' style='border:5px solid black'>","40","all_simple","images/simple/13.png","images/simple/11.png","images/simple/14.png,images/simple/10.png,images/simple/18.png,images/simple/3.png,images/simple/17.png,images/simple/7.png,images/simple/8.png","0","null","","200","311","","","","background","",""
"","null","html-keyboard-response","26","107182","0.0-14.0-0.6","SS1604611324615","","null","","","","","","","","","","","","<img src=images/blank.png width =""500"" height = ""500"" style=""border:5px solid black"">","","",""
"","186","stimulus-presentation","27","107578","0.0-14.0-1.6","SS1604611324615","<img src='images/simple/11.png' width ='500' height = '500' style='border:5px solid black'>","40","all_simple","images/simple/13.png","images/simple/11.png","images/simple/14.png,images/simple/10.png,images/simple/18.png,images/simple/3.png,images/simple/17.png,images/simple/7.png,images/simple/8.png","0","null","","200","386","","","","background","",""
"","null","html-keyboard-response","28","108574","0.0-14.0-0.7","SS1604611324615","","null","","","","","","","","","","","","<img src=images/blank.png width =""500"" height = ""500"" style=""border:5px solid black"">","","",""
"","76","stimulus-presentation","29","108854","0.0-14.0-1.7","SS1604611324615","<img src='images/simple/11.png' width ='500' height = '500' style='border:5px solid black'>","40","all_simple","images/simple/13.png","images/simple/11.png","images/simple/14.png,images/simple/10.png,images/simple/18.png,images/simple/3.png,images/simple/17.png,images/simple/7.png,images/simple/8.png","0","null","","200","276","","","","background","",""
"","null","html-keyboard-response","30","109673","0.0-14.0-0.8","SS1604611324615","","null","","","","","","","","","","","","<img src=images/blank.png width =""500"" height = ""500"" style=""border:5px solid black"">","","",""
"","80","stimulus-presentation","31","109974","0.0-14.0-1.8","SS1604611324615","<img src='images/simple/11.png' width ='500' height = '500' style='border:5px solid black'>","40","all_simple","images/simple/13.png","images/simple/11.png","images/simple/14.png,images/simple/10.png,images/simple/18.png,images/simple/3.png,images/simple/17.png,images/simple/7.png,images/simple/8.png","0","null","","200","280","","","","background","",""
"","null","html-keyboard-response","32","110874","0.0-14.0-0.9","SS1604611324615","","null","","","","","","","","","","","","<img src=images/blank.png width =""500"" height = ""500"" style=""border:5px solid black"">","","",""
"","410","stimulus-presentation","33","111505","0.0-14.0-1.9","SS1604611324615","<img src='images/simple/8.png' width ='500' height = '500' style='border:5px solid black'>","40","all_simple","images/simple/13.png","images/simple/11.png","images/simple/14.png,images/simple/10.png,images/simple/18.png,images/simple/3.png,images/simple/17.png,images/simple/7.png,images/simple/8.png","0","null","","200","610","","","","deviant","",""
"","null","html-keyboard-response","34","112713","0.0-14.0-0.10","SS1604611324615","","null","","","","","","","","","","","","<img src=images/blank.png width =""500"" height = ""500"" style=""border:5px solid black"">","","",""
"","107","stimulus-presentation","35","113040","0.0-14.0-1.10","SS1604611324615","<img src='images/simple/11.png' width ='500' height = '500' style='border:5px solid black'>","40","all_simple","images/simple/13.png","images/simple/11.png","images/simple/14.png,images/simple/10.png,images/simple/18.png,images/simple/3.png,images/simple/17.png,images/simple/7.png,images/simple/8.png","0","null","","200","307","","","","background","",""
"","null","html-keyboard-response","36","114053","0.0-14.0-0.11","SS1604611324615","","null","","","","","","","","","","","","<img src=images/blank.png width =""500"" height = ""500"" style=""border:5px solid black"">","","",""
"","70","stimulus-presentation","37","114344","0.0-14.0-1.11","SS1604611324615","<img src='images/simple/11.png' width ='500' height = '500' style='border:5px solid black'>","40","all_simple","images/simple/13.png","images/simple/11.png","images/simple/14.png,images/simple/10.png,images/simple/18.png,images/simple/3.png,images/simple/17.png,images/simple/7.png,images/simple/8.png","0","null","","200","270","","","","background","",""
"","null","html-keyboard-response","38","115333","0.0-14.0-0.12","SS1604611324615","","null","","","","","","","","","","","","<img src=images/blank.png width =""500"" height = ""500"" style=""border:5px solid black"">","","",""
"","43","stimulus-presentation","39","115587","0.0-14.0-1.12","SS1604611324615","<img src='images/simple/11.png' width ='500' height = '500' style='border:5px solid black'>","40","all_simple","images/simple/13.png","images/simple/11.png","images/simple/14.png,images/simple/10.png,images/simple/18.png,images/simple/3.png,images/simple/17.png,images/simple/7.png,images/simple/8.png","0","null","","200","243","","","","background","",""
"","null","html-keyboard-response","40","116544","0.0-14.0-0.13","SS1604611324615","","null","","","","","","","","","","","","<img src=images/blank.png width =""500"" height = ""500"" style=""border:5px solid black"">","","",""
"","35","stimulus-presentation","41","116799","0.0-14.0-1.13","SS1604611324615","<img src='images/simple/11.png' width ='500' height = '500' style='border:5px solid black'>","40","all_simple","images/simple/13.png","images/simple/11.png","images/simple/14.png,images/simple/10.png,images/simple/18.png,images/simple/3.png,images/simple/17.png,images/simple/7.png,images/simple/8.png","0","null","","200","235","","","","background","",""
"","null","html-keyboard-response","42","118073","0.0-14.0-0.14","SS1604611324615","","null","","","","","","","","","","","","<img src=images/blank.png width =""500"" height = ""500"" style=""border:5px solid black"">","","",""
"","3010","stimulus-presentation","43","121304","0.0-14.0-1.14","SS1604611324615","<img src='images/simple/13.png' width ='500' height = '500' style='border:5px solid black'>","40","all_simple","images/simple/13.png","images/simple/11.png","images/simple/14.png,images/simple/10.png,images/simple/18.png,images/simple/3.png,images/simple/17.png,images/simple/7.png,images/simple/8.png","0","null","","200","3210","yes","182","","target","",""
"","null","html-keyboard-response","44","122213","0.0-14.0-0.15","SS1604611324615","","null","","","","","","","","","","","","<img src=images/blank.png width =""500"" height = ""500"" style=""border:5px solid black"">","","",""
"","193","stimulus-presentation","45","122628","0.0-14.0-1.15","SS1604611324615","<img src='images/simple/11.png' width ='500' height = '500' style='border:5px solid black'>","40","all_simple","images/simple/13.png","images/simple/11.png","images/simple/14.png,images/simple/10.png,images/simple/18.png,images/simple/3.png,images/simple/17.png,images/simple/7.png,images/simple/8.png","0","null","","200","393","","","","background","",""
"","null","html-keyboard-response","46","123734","0.0-14.0-0.16","SS1604611324615","","null","","","","","","","","","","","","<img src=images/blank.png width =""500"" height = ""500"" style=""border:5px solid black"">","","",""
"","205","stimulus-presentation","47","124141","0.0-14.0-1.16","SS1604611324615","<img src='images/simple/10.png' width ='500' height = '500' style='border:5px solid black'>","40","all_simple","images/simple/13.png","images/simple/11.png","images/simple/14.png,images/simple/10.png,images/simple/18.png,images/simple/3.png,images/simple/17.png,images/simple/7.png,images/simple/8.png","0","null","","200","405","","","","deviant","",""
"","null","html-keyboard-response","48","125054","0.0-14.0-0.17","SS1604611324615","","null","","","","","","","","","","","","<img src=images/blank.png width =""500"" height = ""500"" style=""border:5px solid black"">","","",""
"","251","stimulus-presentation","49","125525","0.0-14.0-1.17","SS1604611324615","<img src='images/simple/11.png' width ='500' height = '500' style='border:5px solid black'>","40","all_simple","images/simple/13.png","images/simple/11.png","images/simple/14.png,images/simple/10.png,images/simple/18.png,images/simple/3.png,images/simple/17.png,images/simple/7.png,images/simple/8.png","0","null","","200","451","","","","background","",""
"","null","html-keyboard-response","50","126524","0.0-14.0-0.18","SS1604611324615","","null","","","","","","","","","","","","<img src=images/blank.png width =""500"" height = ""500"" style=""border:5px solid black"">","","",""
"","263","stimulus-presentation","51","127008","0.0-14.0-1.18","SS1604611324615","<img src='images/simple/11.png' width ='500' height = '500' style='border:5px solid black'>","40","all_simple","images/simple/13.png","images/simple/11.png","images/simple/14.png,images/simple/10.png,images/simple/18.png,images/simple/3.png,images/simple/17.png,images/simple/7.png,images/simple/8.png","0","null","","200","463","","","","background","",""
"","null","html-keyboard-response","52","128194","0.0-14.0-0.19","SS1604611324615","","null","","","","","","","","","","","","<img src=images/blank.png width =""500"" height = ""500"" style=""border:5px solid black"">","","",""
"","1059","stimulus-presentation","53","129473","0.0-14.0-1.19","SS1604611324615","<img src='images/simple/13.png' width ='500' height = '500' style='border:5px solid black'>","40","all_simple","images/simple/13.png","images/simple/11.png","images/simple/14.png,images/simple/10.png,images/simple/18.png,images/simple/3.png,images/simple/17.png,images/simple/7.png,images/simple/8.png","0","null","","200","1259","yes","239","","target","",""
"","null","html-keyboard-response","54","130424","0.0-14.0-0.20","SS1604611324615","","null","","","","","","","","","","","","<img src=images/blank.png width =""500"" height = ""500"" style=""border:5px solid black"">","","",""
"","105","stimulus-presentation","55","130750","0.0-14.0-1.20","SS1604611324615","<img src='images/simple/14.png' width ='500' height = '500' style='border:5px solid black'>","40","all_simple","images/simple/13.png","images/simple/11.png","images/simple/14.png,images/simple/10.png,images/simple/18.png,images/simple/3.png,images/simple/17.png,images/simple/7.png,images/simple/8.png","0","null","","200","305","","","","deviant","",""
"","null","html-keyboard-response","56","131595","0.0-14.0-0.21","SS1604611324615","","null","","","","","","","","","","","","<img src=images/blank.png width =""500"" height = ""500"" style=""border:5px solid black"">","","",""
"","317","stimulus-presentation","57","132124","0.0-14.0-1.21","SS1604611324615","<img src='images/simple/11.png' width ='500' height = '500' style='border:5px solid black'>","40","all_simple","images/simple/13.png","images/simple/11.png","images/simple/14.png,images/simple/10.png,images/simple/18.png,images/simple/3.png,images/simple/17.png,images/simple/7.png,images/simple/8.png","0","null","","200","517","","","","background","",""
"","null","html-keyboard-response","58","132987","0.0-14.0-0.22","SS1604611324615","","null","","","","","","","","","","","","<img src=images/blank.png width =""500"" height = ""500"" style=""border:5px solid black"">","","",""
"","73","stimulus-presentation","59","133278","0.0-14.0-1.22","SS1604611324615","<img src='images/simple/11.png' width ='500' height = '500' style='border:5px solid black'>","40","all_simple","images/simple/13.png","images/simple/11.png","images/simple/14.png,images/simple/10.png,images/simple/18.png,images/simple/3.png,images/simple/17.png,images/simple/7.png,images/simple/8.png","0","null","","200","273","","","","background","",""
"","null","html-keyboard-response","60","134275","0.0-14.0-0.23","SS1604611324615","","null","","","","","","","","","","","","<img src=images/blank.png width =""500"" height = ""500"" style=""border:5px solid black"">","","",""
"","849","stimulus-presentation","61","135343","0.0-14.0-1.23","SS1604611324615","<img src='images/simple/13.png' width ='500' height = '500' style='border:5px solid black'>","40","all_simple","images/simple/13.png","images/simple/11.png","images/simple/14.png,images/simple/10.png,images/simple/18.png,images/simple/3.png,images/simple/17.png,images/simple/7.png,images/simple/8.png","0","null","","200","1049","yes","133","","target","",""
"","null","html-keyboard-response","62","136304","0.0-14.0-0.24","SS1604611324615","","null","","","","","","","","","","","","<img src=images/blank.png width =""500"" height = ""500"" style=""border:5px solid black"">","","",""
"","177","stimulus-presentation","63","136702","0.0-14.0-1.24","SS1604611324615","<img src='images/simple/11.png' width ='500' height = '500' style='border:5px solid black'>","40","all_simple","images/simple/13.png","images/simple/11.png","images/simple/14.png,images/simple/10.png,images/simple/18.png,images/simple/3.png,images/simple/17.png,images/simple/7.png,images/simple/8.png","0","null","","200","377","","","","background","",""
"","null","html-keyboard-response","64","137995","0.0-14.0-0.25","SS1604611324615","","null","","","","","","","","","","","","<img src=images/blank.png width =""500"" height = ""500"" style=""border:5px solid black"">","","",""
"","144","stimulus-presentation","65","138358","0.0-14.0-1.25","SS1604611324615","<img src='images/simple/11.png' width ='500' height = '500' style='border:5px solid black'>","40","all_simple","images/simple/13.png","images/simple/11.png","images/simple/14.png,images/simple/10.png,images/simple/18.png,images/simple/3.png,images/simple/17.png,images/simple/7.png,images/simple/8.png","0","null","","200","344","","","","background","",""
"","null","html-keyboard-response","66","139434","0.0-14.0-0.26","SS1604611324615","","null","","","","","","","","","","","","<img src=images/blank.png width =""500"" height = ""500"" style=""border:5px solid black"">","","",""
"","835","stimulus-presentation","67","140490","0.0-14.0-1.26","SS1604611324615","<img src='images/simple/13.png' width ='500' height = '500' style='border:5px solid black'>","40","all_simple","images/simple/13.png","images/simple/11.png","images/simple/14.png,images/simple/10.png,images/simple/18.png,images/simple/3.png,images/simple/17.png,images/simple/7.png,images/simple/8.png","0","null","","200","1035","yes","105","","target","",""
"","null","html-keyboard-response","68","141734","0.0-14.0-0.27","SS1604611324615","","null","","","","","","","","","","","","<img src=images/blank.png width =""500"" height = ""500"" style=""border:5px solid black"">","","",""
"","115","stimulus-presentation","69","142069","0.0-14.0-1.27","SS1604611324615","<img src='images/simple/11.png' width ='500' height = '500' style='border:5px solid black'>","40","all_simple","images/simple/13.png","images/simple/11.png","images/simple/14.png,images/simple/10.png,images/simple/18.png,images/simple/3.png,images/simple/17.png,images/simple/7.png,images/simple/8.png","0","null","","200","315","","","","background","",""
"","null","html-keyboard-response","70","143120","0.0-14.0-0.28","SS1604611324615","","null","","","","","","","","","","","","<img src=images/blank.png width =""500"" height = ""500"" style=""border:5px solid black"">","","",""
"","128","stimulus-presentation","71","143452","0.0-14.0-1.28","SS1604611324615","<img src='images/simple/11.png' width ='500' height = '500' style='border:5px solid black'>","40","all_simple","images/simple/13.png","images/simple/11.png","images/simple/14.png,images/simple/10.png,images/simple/18.png,images/simple/3.png,images/simple/17.png,images/simple/7.png,images/simple/8.png","0","null","","200","328","","","","background","",""
"","null","html-keyboard-response","72","144666","0.0-14.0-0.29","SS1604611324615","","null","","","","","","","","","","","","<img src=images/blank.png width =""500"" height = ""500"" style=""border:5px solid black"">","","",""
"","173","stimulus-presentation","73","145059","0.0-14.0-1.29","SS1604611324615","<img src='images/simple/17.png' width ='500' height = '500' style='border:5px solid black'>","40","all_simple","images/simple/13.png","images/simple/11.png","images/simple/14.png,images/simple/10.png,images/simple/18.png,images/simple/3.png,images/simple/17.png,images/simple/7.png,images/simple/8.png","0","null","","200","373","","","","deviant","",""
"","null","html-keyboard-response","74","145906","0.0-14.0-0.30","SS1604611324615","","null","","","","","","","","","","","","<img src=images/blank.png width =""500"" height = ""500"" style=""border:5px solid black"">","","",""
"","229","stimulus-presentation","75","146344","0.0-14.0-1.30","SS1604611324615","<img src='images/simple/11.png' width ='500' height = '500' style='border:5px solid black'>","40","all_simple","images/simple/13.png","images/simple/11.png","images/simple/14.png,images/simple/10.png,images/simple/18.png,images/simple/3.png,images/simple/17.png,images/simple/7.png,images/simple/8.png","0","null","","200","429","","","","background","",""
"","null","html-keyboard-response","76","147575","0.0-14.0-0.31","SS1604611324615","","null","","","","","","","","","","","","<img src=images/blank.png width =""500"" height = ""500"" style=""border:5px solid black"">","","",""
"","88","stimulus-presentation","77","147884","0.0-14.0-1.31","SS1604611324615","<img src='images/simple/11.png' width ='500' height = '500' style='border:5px solid black'>","40","all_simple","images/simple/13.png","images/simple/11.png","images/simple/14.png,images/simple/10.png,images/simple/18.png,images/simple/3.png,images/simple/17.png,images/simple/7.png,images/simple/8.png","0","null","","200","288","","","","background","",""
"","null","html-keyboard-response","78","148735","0.0-14.0-0.32","SS1604611324615","","null","","","","","","","","","","","","<img src=images/blank.png width =""500"" height = ""500"" style=""border:5px solid black"">","","",""
"","119","stimulus-presentation","79","149075","0.0-14.0-1.32","SS1604611324615","<img src='images/simple/11.png' width ='500' height = '500' style='border:5px solid black'>","40","all_simple","images/simple/13.png","images/simple/11.png","images/simple/14.png,images/simple/10.png,images/simple/18.png,images/simple/3.png,images/simple/17.png,images/simple/7.png,images/simple/8.png","0","null","","200","319","","","","background","",""
"","null","html-keyboard-response","80","150324","0.0-14.0-0.33","SS1604611324615","","null","","","","","","","","","","","","<img src=images/blank.png width =""500"" height = ""500"" style=""border:5px solid black"">","","",""
"","191","stimulus-presentation","81","150736","0.0-14.0-1.33","SS1604611324615","<img src='images/simple/7.png' width ='500' height = '500' style='border:5px solid black'>","40","all_simple","images/simple/13.png","images/simple/11.png","images/simple/14.png,images/simple/10.png,images/simple/18.png,images/simple/3.png,images/simple/17.png,images/simple/7.png,images/simple/8.png","0","null","","200","391","","","","deviant","",""
"","null","html-keyboard-response","82","151916","0.0-14.0-0.34","SS1604611324615","","null","","","","","","","","","","","","<img src=images/blank.png width =""500"" height = ""500"" style=""border:5px solid black"">","","",""
"","122","stimulus-presentation","83","152257","0.0-14.0-1.34","SS1604611324615","<img src='images/simple/11.png' width ='500' height = '500' style='border:5px solid black'>","40","all_simple","images/simple/13.png","images/simple/11.png","images/simple/14.png,images/simple/10.png,images/simple/18.png,images/simple/3.png,images/simple/17.png,images/simple/7.png,images/simple/8.png","0","null","","200","322","","","","background","",""
"","null","html-keyboard-response","84","153465","0.0-14.0-0.35","SS1604611324615","","null","","","","","","","","","","","","<img src=images/blank.png width =""500"" height = ""500"" style=""border:5px solid black"">","","",""
"","59","stimulus-presentation","85","153746","0.0-14.0-1.35","SS1604611324615","<img src='images/simple/11.png' width ='500' height = '500' style='border:5px solid black'>","40","all_simple","images/simple/13.png","images/simple/11.png","images/simple/14.png,images/simple/10.png,images/simple/18.png,images/simple/3.png,images/simple/17.png,images/simple/7.png,images/simple/8.png","0","null","","200","259","","","","background","",""
"","null","html-keyboard-response","86","154856","0.0-14.0-0.36","SS1604611324615","","null","","","","","","","","","","","","<img src=images/blank.png width =""500"" height = ""500"" style=""border:5px solid black"">","","",""
"","55","stimulus-presentation","87","155131","0.0-14.0-1.36","SS1604611324615","<img src='images/simple/13.png' width ='500' height = '500' style='border:5px solid black'>","40","all_simple","images/simple/13.png","images/simple/11.png","images/simple/14.png,images/simple/10.png,images/simple/18.png,images/simple/3.png,images/simple/17.png,images/simple/7.png,images/simple/8.png","0","null","","200","255","","","","target","",""
"","null","html-keyboard-response","88","155946","0.0-14.0-0.37","SS1604611324615","","null","","","","","","","","","","","","<img src=images/blank.png width =""500"" height = ""500"" style=""border:5px solid black"">","","",""
"","135","stimulus-presentation","89","156300","0.0-14.0-1.37","SS1604611324615","<img src='images/simple/11.png' width ='500' height = '500' style='border:5px solid black'>","40","all_simple","images/simple/13.png","images/simple/11.png","images/simple/14.png,images/simple/10.png,images/simple/18.png,images/simple/3.png,images/simple/17.png,images/simple/7.png,images/simple/8.png","0","null","","200","335","","","","background","",""
"","null","html-keyboard-response","90","157345","0.0-14.0-0.38","SS1604611324615","","null","","","","","","","","","","","","<img src=images/blank.png width =""500"" height = ""500"" style=""border:5px solid black"">","","",""
"","925","stimulus-presentation","91","158490","0.0-14.0-1.38","SS1604611324615","<img src='images/simple/13.png' width ='500' height = '500' style='border:5px solid black'>","40","all_simple","images/simple/13.png","images/simple/11.png","images/simple/14.png,images/simple/10.png,images/simple/18.png,images/simple/3.png,images/simple/17.png,images/simple/7.png,images/simple/8.png","0","null","","200","1125","yes","156","","target","",""
"","null","html-keyboard-response","92","159526","0.0-14.0-0.39","SS1604611324615","","null","","","","","","","","","","","","<img src=images/blank.png width =""500"" height = ""500"" style=""border:5px solid black"">","","",""
"","108","stimulus-presentation","93","159854","0.0-14.0-1.39","SS1604611324615","<img src='images/simple/11.png' width ='500' height = '500' style='border:5px solid black'>","40","all_simple","images/simple/13.png","images/simple/11.png","images/simple/14.png,images/simple/10.png,images/simple/18.png,images/simple/3.png,images/simple/17.png,images/simple/7.png,images/simple/8.png","0","null","","200","308","","","","background","",""
"","null","html-keyboard-response","94","160936","0.0-14.0-0.40","SS1604611324615","","null","","","","","","","","","","","","<img src=images/blank.png width =""500"" height = ""500"" style=""border:5px solid black"">","","",""
"","108","stimulus-presentation","95","161263","0.0-14.0-1.40","SS1604611324615","<img src='images/simple/11.png' width ='500' height = '500' style='border:5px solid black'>","40","all_simple","images/simple/13.png","images/simple/11.png","images/simple/14.png,images/simple/10.png,images/simple/18.png,images/simple/3.png,images/simple/17.png,images/simple/7.png,images/simple/8.png","0","null","","200","308","","","","background","",""
"","null","html-keyboard-response","96","162315","0.0-14.0-0.41","SS1604611324615","","null","","","","","","","","","","","","<img src=images/blank.png width =""500"" height = ""500"" style=""border:5px solid black"">","","",""
"","301","stimulus-presentation","97","162837","0.0-14.0-1.41","SS1604611324615","<img src='images/simple/3.png' width ='500' height = '500' style='border:5px solid black'>","40","all_simple","images/simple/13.png","images/simple/11.png","images/simple/14.png,images/simple/10.png,images/simple/18.png,images/simple/3.png,images/simple/17.png,images/simple/7.png,images/simple/8.png","0","null","","200","501","","","","deviant","",""
"","null","html-keyboard-response","98","164146","0.0-14.0-0.42","SS1604611324615","","null","","","","","","","","","","","","<img src=images/blank.png width =""500"" height = ""500"" style=""border:5px solid black"">","","",""
"","203","stimulus-presentation","99","164564","0.0-14.0-1.42","SS1604611324615","<img src='images/simple/11.png' width ='500' height = '500' style='border:5px solid black'>","40","all_simple","images/simple/13.png","images/simple/11.png","images/simple/14.png,images/simple/10.png,images/simple/18.png,images/simple/3.png,images/simple/17.png,images/simple/7.png,images/simple/8.png","0","null","","200","403","","","","background","",""
"","null","html-keyboard-response","100","165446","0.0-14.0-0.43","SS1604611324615","","null","","","","","","","","","","","","<img src=images/blank.png width =""500"" height = ""500"" style=""border:5px solid black"">","","",""
"","106","stimulus-presentation","101","165772","0.0-14.0-1.43","SS1604611324615","<img src='images/simple/11.png' width ='500' height = '500' style='border:5px solid black'>","40","all_simple","images/simple/13.png","images/simple/11.png","images/simple/14.png,images/simple/10.png,images/simple/18.png,images/simple/3.png,images/simple/17.png,images/simple/7.png,images/simple/8.png","0","null","","200","306","","","","background","",""
"","null","html-keyboard-response","102","166625","0.0-14.0-0.44","SS1604611324615","","null","","","","","","","","","","","","<img src=images/blank.png width =""500"" height = ""500"" style=""border:5px solid black"">","","",""
"","343","stimulus-presentation","103","167189","0.0-14.0-1.44","SS1604611324615","<img src='images/simple/11.png' width ='500' height = '500' style='border:5px solid black'>","40","all_simple","images/simple/13.png","images/simple/11.png","images/simple/14.png,images/simple/10.png,images/simple/18.png,images/simple/3.png,images/simple/17.png,images/simple/7.png,images/simple/8.png","0","null","","200","543","","","","background","",""
"","null","html-keyboard-response","104","168266","0.0-14.0-0.45","SS1604611324615","","null","","","","","","","","","","","","<img src=images/blank.png width =""500"" height = ""500"" style=""border:5px solid black"">","","",""
"","141","stimulus-presentation","105","168618","0.0-14.0-1.45","SS1604611324615","<img src='images/simple/11.png' width ='500' height = '500' style='border:5px solid black'>","40","all_simple","images/simple/13.png","images/simple/11.png","images/simple/14.png,images/simple/10.png,images/simple/18.png,images/simple/3.png,images/simple/17.png,images/simple/7.png,images/simple/8.png","0","null","","200","341","","","","background","",""
"","null","html-keyboard-response","106","169876","0.0-14.0-0.46","SS1604611324615","","null","","","","","","","","","","","","<img src=images/blank.png width =""500"" height = ""500"" style=""border:5px solid black"">","","",""
"","143","stimulus-presentation","107","170238","0.0-14.0-1.46","SS1604611324615","<img src='images/simple/11.png' width ='500' height = '500' style='border:5px solid black'>","40","all_simple","images/simple/13.png","images/simple/11.png","images/simple/14.png,images/simple/10.png,images/simple/18.png,images/simple/3.png,images/simple/17.png,images/simple/7.png,images/simple/8.png","0","null","","200","343","","","","background","",""
"","null","html-keyboard-response","108","171526","0.0-14.0-0.47","SS1604611324615","","null","","","","","","","","","","","","<img src=images/blank.png width =""500"" height = ""500"" style=""border:5px solid black"">","","",""
"","130","stimulus-presentation","109","171875","0.0-14.0-1.47","SS1604611324615","<img src='images/simple/11.png' width ='500' height = '500' style='border:5px solid black'>","40","all_simple","images/simple/13.png","images/simple/11.png","images/simple/14.png,images/simple/10.png,images/simple/18.png,images/simple/3.png,images/simple/17.png,images/simple/7.png,images/simple/8.png","0","null","","200","330","","","","background","",""
"","null","html-keyboard-response","110","172696","0.0-14.0-0.48","SS1604611324615","","null","","","","","","","","","","","","<img src=images/blank.png width =""500"" height = ""500"" style=""border:5px solid black"">","","",""
"","110","stimulus-presentation","111","173025","0.0-14.0-1.48","SS1604611324615","<img src='images/simple/11.png' width ='500' height = '500' style='border:5px solid black'>","40","all_simple","images/simple/13.png","images/simple/11.png","images/simple/14.png,images/simple/10.png,images/simple/18.png,images/simple/3.png,images/simple/17.png,images/simple/7.png,images/simple/8.png","0","null","","200","310","","","","background","",""
"[{""page_index"":0,""viewing_time"":4078}]","4078","task-instructions","112","177106","0.0-15.0","SS1604611324615","","","","","","","","","","","","","","","","",""
"[{""page_index"":0,""viewing_time"":7230},{""page_index"":1,""viewing_time"":5651},{""page_index"":2,""viewing_time"":4233}]","17114","instructions","113","194223","0.0-16.0","SS1604611324615","","","","","","","","","","","","","","","","",""
"","null","html-keyboard-response","114","195047","0.0-17.0-0.0","SS1604611324615","","null","","","","","","","","","","","","<img src=images/blank.png width =""500"" height = ""500"" style=""border:5px solid black"">","","",""
"","644","stimulus-presentation","115","195911","0.0-17.0-1.0","SS1604611324615","<img src='images/simple/16.png' width ='500' height = '500' style='border:5px solid black'>","40","mixed_simple_deviant","images/complex/8.png","images/complex/6.png","images/simple/4.png,images/simple/6.png,images/simple/1.png,images/simple/12.png,images/simple/5.png,images/simple/16.png,images/simple/15.png","1","null","","200","844","","","","deviant","",""
"","null","html-keyboard-response","116","196889","0.0-17.0-0.1","SS1604611324615","","null","","","","","","","","","","","","<img src=images/blank.png width =""500"" height = ""500"" style=""border:5px solid black"">","","",""
"","268","stimulus-presentation","117","197359","0.0-17.0-1.1","SS1604611324615","<img src='images/complex/6.png' width ='500' height = '500' style='border:5px solid black'>","40","mixed_simple_deviant","images/complex/8.png","images/complex/6.png","images/simple/4.png,images/simple/6.png,images/simple/1.png,images/simple/12.png,images/simple/5.png,images/simple/16.png,images/simple/15.png","1","null","","200","468","","","","background","",""
"","null","html-keyboard-response","118","198526","0.0-17.0-0.2","SS1604611324615","","null","","","","","","","","","","","","<img src=images/blank.png width =""500"" height = ""500"" style=""border:5px solid black"">","","",""
"","73","stimulus-presentation","119","198822","0.0-17.0-1.2","SS1604611324615","<img src='images/complex/6.png' width ='500' height = '500' style='border:5px solid black'>","40","mixed_simple_deviant","images/complex/8.png","images/complex/6.png","images/simple/4.png,images/simple/6.png,images/simple/1.png,images/simple/12.png,images/simple/5.png,images/simple/16.png,images/simple/15.png","1","null","","200","273","","","","background","",""
"","null","html-keyboard-response","120","199837","0.0-17.0-0.3","SS1604611324615","","null","","","","","","","","","","","","<img src=images/blank.png width =""500"" height = ""500"" style=""border:5px solid black"">","","",""
"","80","stimulus-presentation","121","200138","0.0-17.0-1.3","SS1604611324615","<img src='images/complex/6.png' width ='500' height = '500' style='border:5px solid black'>","40","mixed_simple_deviant","images/complex/8.png","images/complex/6.png","images/simple/4.png,images/simple/6.png,images/simple/1.png,images/simple/12.png,images/simple/5.png,images/simple/16.png,images/simple/15.png","1","null","","200","280","","","","background","",""
"","null","html-keyboard-response","122","201217","0.0-17.0-0.4","SS1604611324615","","null","","","","","","","","","","","","<img src=images/blank.png width =""500"" height = ""500"" style=""border:5px solid black"">","","",""
"","305","stimulus-presentation","123","201742","0.0-17.0-1.4","SS1604611324615","<img src='images/simple/6.png' width ='500' height = '500' style='border:5px solid black'>","40","mixed_simple_deviant","images/complex/8.png","images/complex/6.png","images/simple/4.png,images/simple/6.png,images/simple/1.png,images/simple/12.png,images/simple/5.png,images/simple/16.png,images/simple/15.png","1","null","","200","505","","","","deviant","",""
"","null","html-keyboard-response","124","202627","0.0-17.0-0.5","SS1604611324615","","null","","","","","","","","","","","","<img src=images/blank.png width =""500"" height = ""500"" style=""border:5px solid black"">","","",""
"","81","stimulus-presentation","125","202928","0.0-17.0-1.5","SS1604611324615","<img src='images/complex/6.png' width ='500' height = '500' style='border:5px solid black'>","40","mixed_simple_deviant","images/complex/8.png","images/complex/6.png","images/simple/4.png,images/simple/6.png,images/simple/1.png,images/simple/12.png,images/simple/5.png,images/simple/16.png,images/simple/15.png","1","null","","200","281","","","","background","",""
"","null","html-keyboard-response","126","203857","0.0-17.0-0.6","SS1604611324615","","null","","","","","","","","","","","","<img src=images/blank.png width =""500"" height = ""500"" style=""border:5px solid black"">","","",""
"","47","stimulus-presentation","127","204125","0.0-17.0-1.6","SS1604611324615","<img src='images/complex/6.png' width ='500' height = '500' style='border:5px solid black'>","40","mixed_simple_deviant","images/complex/8.png","images/complex/6.png","images/simple/4.png,images/simple/6.png,images/simple/1.png,images/simple/12.png,images/simple/5.png,images/simple/16.png,images/simple/15.png","1","null","","200","247","","","","background","",""
"","null","html-keyboard-response","128","204957","0.0-17.0-0.7","SS1604611324615","","null","","","","","","","","","","","","<img src=images/blank.png width =""500"" height = ""500"" style=""border:5px solid black"">","","",""
"","67","stimulus-presentation","129","205246","0.0-17.0-1.7","SS1604611324615","<img src='images/complex/6.png' width ='500' height = '500' style='border:5px solid black'>","40","mixed_simple_deviant","images/complex/8.png","images/complex/6.png","images/simple/4.png,images/simple/6.png,images/simple/1.png,images/simple/12.png,images/simple/5.png,images/simple/16.png,images/simple/15.png","1","null","","200","267","","","","background","",""
"","null","html-keyboard-response","130","206197","0.0-17.0-0.8","SS1604611324615","","null","","","","","","","","","","","","<img src=images/blank.png width =""500"" height = ""500"" style=""border:5px solid black"">","","",""
"","62","stimulus-presentation","131","206479","0.0-17.0-1.8","SS1604611324615","<img src='images/complex/6.png' width ='500' height = '500' style='border:5px solid black'>","40","mixed_simple_deviant","images/complex/8.png","images/complex/6.png","images/simple/4.png,images/simple/6.png,images/simple/1.png,images/simple/12.png,images/simple/5.png,images/simple/16.png,images/simple/15.png","1","null","","200","262","","","","background","",""
"","null","html-keyboard-response","132","207458","0.0-17.0-0.9","SS1604611324615","","null","","","","","","","","","","","","<img src=images/blank.png width =""500"" height = ""500"" style=""border:5px solid black"">","","",""
"","148","stimulus-presentation","133","207826","0.0-17.0-1.9","SS1604611324615","<img src='images/complex/6.png' width ='500' height = '500' style='border:5px solid black'>","40","mixed_simple_deviant","images/complex/8.png","images/complex/6.png","images/simple/4.png,images/simple/6.png,images/simple/1.png,images/simple/12.png,images/simple/5.png,images/simple/16.png,images/simple/15.png","1","null","","200","348","","","","background","",""
"","null","html-keyboard-response","134","208879","0.0-17.0-0.10","SS1604611324615","","null","","","","","","","","","","","","<img src=images/blank.png width =""500"" height = ""500"" style=""border:5px solid black"">","","",""
"","52","stimulus-presentation","135","209134","0.0-17.0-1.10","SS1604611324615","<img src='images/complex/6.png' width ='500' height = '500' style='border:5px solid black'>","40","mixed_simple_deviant","images/complex/8.png","images/complex/6.png","images/simple/4.png,images/simple/6.png,images/simple/1.png,images/simple/12.png,images/simple/5.png,images/simple/16.png,images/simple/15.png","1","null","","200","252","","","","background","",""
"","null","html-keyboard-response","136","209978","0.0-17.0-0.11","SS1604611324615","","null","","","","","","","","","","","","<img src=images/blank.png width =""500"" height = ""500"" style=""border:5px solid black"">","","",""
"","266","stimulus-presentation","137","210455","0.0-17.0-1.11","SS1604611324615","<img src='images/simple/12.png' width ='500' height = '500' style='border:5px solid black'>","40","mixed_simple_deviant","images/complex/8.png","images/complex/6.png","images/simple/4.png,images/simple/6.png,images/simple/1.png,images/simple/12.png,images/simple/5.png,images/simple/16.png,images/simple/15.png","1","null","","200","466","","","","deviant","",""
"","null","html-keyboard-response","138","211357","0.0-17.0-0.12","SS1604611324615","","null","","","","","","","","","","","","<img src=images/blank.png width =""500"" height = ""500"" style=""border:5px solid black"">","","",""
"","94","stimulus-presentation","139","211672","0.0-17.0-1.12","SS1604611324615","<img src='images/complex/6.png' width ='500' height = '500' style='border:5px solid black'>","40","mixed_simple_deviant","images/complex/8.png","images/complex/6.png","images/simple/4.png,images/simple/6.png,images/simple/1.png,images/simple/12.png,images/simple/5.png,images/simple/16.png,images/simple/15.png","1","null","","200","294","","","","background","",""
"","null","html-keyboard-response","140","212578","0.0-17.0-0.13","SS1604611324615","","null","","","","","","","","","","","","<img src=images/blank.png width =""500"" height = ""500"" style=""border:5px solid black"">","","",""
"","902","stimulus-presentation","141","213700","0.0-17.0-1.13","SS1604611324615","<img src='images/complex/8.png' width ='500' height = '500' style='border:5px solid black'>","40","mixed_simple_deviant","images/complex/8.png","images/complex/6.png","images/simple/4.png,images/simple/6.png,images/simple/1.png,images/simple/12.png,images/simple/5.png,images/simple/16.png,images/simple/15.png","1","null","","200","1102","yes","192","","target","",""
"","null","html-keyboard-response","142","214907","0.0-17.0-0.14","SS1604611324615","","null","","","","","","","","","","","","<img src=images/blank.png width =""500"" height = ""500"" style=""border:5px solid black"">","","",""
"","94","stimulus-presentation","143","215221","0.0-17.0-1.14","SS1604611324615","<img src='images/complex/6.png' width ='500' height = '500' style='border:5px solid black'>","40","mixed_simple_deviant","images/complex/8.png","images/complex/6.png","images/simple/4.png,images/simple/6.png,images/simple/1.png,images/simple/12.png,images/simple/5.png,images/simple/16.png,images/simple/15.png","1","null","","200","294","","","","background","",""
"","null","html-keyboard-response","144","216098","0.0-17.0-0.15","SS1604611324615","","null","","","","","","","","","","","","<img src=images/blank.png width =""500"" height = ""500"" style=""border:5px solid black"">","","",""
"","47","stimulus-presentation","145","216354","0.0-17.0-1.15","SS1604611324615","<img src='images/complex/6.png' width ='500' height = '500' style='border:5px solid black'>","40","mixed_simple_deviant","images/complex/8.png","images/complex/6.png","images/simple/4.png,images/simple/6.png,images/simple/1.png,images/simple/12.png,images/simple/5.png,images/simple/16.png,images/simple/15.png","1","null","","200","247","","","","background","",""
"","null","html-keyboard-response","146","217277","0.0-17.0-0.16","SS1604611324615","","null","","","","","","","","","","","","<img src=images/blank.png width =""500"" height = ""500"" style=""border:5px solid black"">","","",""
"","67","stimulus-presentation","147","217565","0.0-17.0-1.16","SS1604611324615","<img src='images/complex/6.png' width ='500' height = '500' style='border:5px solid black'>","40","mixed_simple_deviant","images/complex/8.png","images/complex/6.png","images/simple/4.png,images/simple/6.png,images/simple/1.png,images/simple/12.png,images/simple/5.png,images/simple/16.png,images/simple/15.png","1","null","","200","267","","","","background","",""
"","null","html-keyboard-response","148","218628","0.0-17.0-0.17","SS1604611324615","","null","","","","","","","","","","","","<img src=images/blank.png width =""500"" height = ""500"" style=""border:5px solid black"">","","",""
"","45","stimulus-presentation","149","218882","0.0-17.0-1.17","SS1604611324615","<img src='images/complex/6.png' width ='500' height = '500' style='border:5px solid black'>","40","mixed_simple_deviant","images/complex/8.png","images/complex/6.png","images/simple/4.png,images/simple/6.png,images/simple/1.png,images/simple/12.png,images/simple/5.png,images/simple/16.png,images/simple/15.png","1","null","","200","245","","","","background","",""
"","null","html-keyboard-response","150","219928","0.0-17.0-0.18","SS1604611324615","","null","","","","","","","","","","","","<img src=images/blank.png width =""500"" height = ""500"" style=""border:5px solid black"">","","",""
"","31","stimulus-presentation","151","220179","0.0-17.0-1.18","SS1604611324615","<img src='images/complex/6.png' width ='500' height = '500' style='border:5px solid black'>","40","mixed_simple_deviant","images/complex/8.png","images/complex/6.png","images/simple/4.png,images/simple/6.png,images/simple/1.png,images/simple/12.png,images/simple/5.png,images/simple/16.png,images/simple/15.png","1","null","","200","231","","","","background","",""
"","null","html-keyboard-response","152","221378","0.0-17.0-0.19","SS1604611324615","","null","","","","","","","","","","","","<img src=images/blank.png width =""500"" height = ""500"" style=""border:5px solid black"">","","",""
"","185","stimulus-presentation","153","221783","0.0-17.0-1.19","SS1604611324615","<img src='images/simple/1.png' width ='500' height = '500' style='border:5px solid black'>","40","mixed_simple_deviant","images/complex/8.png","images/complex/6.png","images/simple/4.png,images/simple/6.png,images/simple/1.png,images/simple/12.png,images/simple/5.png,images/simple/16.png,images/simple/15.png","1","null","","200","385","","","","deviant","",""
"","null","html-keyboard-response","154","222709","0.0-17.0-0.20","SS1604611324615","","null","","","","","","","","","","","","<img src=images/blank.png width =""500"" height = ""500"" style=""border:5px solid black"">","","",""
"","62","stimulus-presentation","155","222991","0.0-17.0-1.20","SS1604611324615","<img src='images/complex/6.png' width ='500' height = '500' style='border:5px solid black'>","40","mixed_simple_deviant","images/complex/8.png","images/complex/6.png","images/simple/4.png,images/simple/6.png,images/simple/1.png,images/simple/12.png,images/simple/5.png,images/simple/16.png,images/simple/15.png","1","null","","200","262","","","","background","",""
"","null","html-keyboard-response","156","223968","0.0-17.0-0.21","SS1604611324615","","null","","","","","","","","","","","","<img src=images/blank.png width =""500"" height = ""500"" style=""border:5px solid black"">","","",""
"","773","stimulus-presentation","157","224963","0.0-17.0-1.21","SS1604611324615","<img src='images/complex/8.png' width ='500' height = '500' style='border:5px solid black'>","40","mixed_simple_deviant","images/complex/8.png","images/complex/6.png","images/simple/4.png,images/simple/6.png,images/simple/1.png,images/simple/12.png,images/simple/5.png,images/simple/16.png,images/simple/15.png","1","null","","200","973","yes","179","","target","",""
"","null","html-keyboard-response","158","225954","0.0-17.0-0.22","SS1604611324615","","null","","","","","","","","","","","","<img src=images/blank.png width =""500"" height = ""500"" style=""border:5px solid black"">","","",""
"","11","stimulus-presentation","159","226190","0.0-17.0-1.22","SS1604611324615","<img src='images/complex/6.png' width ='500' height = '500' style='border:5px solid black'>","40","mixed_simple_deviant","images/complex/8.png","images/complex/6.png","images/simple/4.png,images/simple/6.png,images/simple/1.png,images/simple/12.png,images/simple/5.png,images/simple/16.png,images/simple/15.png","1","null","","200","211","","","","background","",""
"","null","html-keyboard-response","160","227348","0.0-17.0-0.23","SS1604611324615","","null","","","","","","","","","","","","<img src=images/blank.png width =""500"" height = ""500"" style=""border:5px solid black"">","","",""
"","317","stimulus-presentation","161","227886","0.0-17.0-1.23","SS1604611324615","<img src='images/simple/15.png' width ='500' height = '500' style='border:5px solid black'>","40","mixed_simple_deviant","images/complex/8.png","images/complex/6.png","images/simple/4.png,images/simple/6.png,images/simple/1.png,images/simple/12.png,images/simple/5.png,images/simple/16.png,images/simple/15.png","1","null","","200","517","","","","deviant","",""
"","null","html-keyboard-response","162","229097","0.0-17.0-0.24","SS1604611324615","","null","","","","","","","","","","","","<img src=images/blank.png width =""500"" height = ""500"" style=""border:5px solid black"">","","",""
"","41","stimulus-presentation","163","229361","0.0-17.0-1.24","SS1604611324615","<img src='images/complex/6.png' width ='500' height = '500' style='border:5px solid black'>","40","mixed_simple_deviant","images/complex/8.png","images/complex/6.png","images/simple/4.png,images/simple/6.png,images/simple/1.png,images/simple/12.png,images/simple/5.png,images/simple/16.png,images/simple/15.png","1","null","","200","241","","","","background","",""
"","null","html-keyboard-response","164","230199","0.0-17.0-0.25","SS1604611324615","","null","","","","","","","","","","","","<img src=images/blank.png width =""500"" height = ""500"" style=""border:5px solid black"">","","",""
"","78","stimulus-presentation","165","230486","0.0-17.0-1.25","SS1604611324615","<img src='images/complex/6.png' width ='500' height = '500' style='border:5px solid black'>","40","mixed_simple_deviant","images/complex/8.png","images/complex/6.png","images/simple/4.png,images/simple/6.png,images/simple/1.png,images/simple/12.png,images/simple/5.png,images/simple/16.png,images/simple/15.png","1","null","","200","278","","","","background","",""
"","null","html-keyboard-response","166","231368","0.0-17.0-0.26","SS1604611324615","","null","","","","","","","","","","","","<img src=images/blank.png width =""500"" height = ""500"" style=""border:5px solid black"">","","",""
"","28","stimulus-presentation","167","231616","0.0-17.0-1.26","SS1604611324615","<img src='images/complex/6.png' width ='500' height = '500' style='border:5px solid black'>","40","mixed_simple_deviant","images/complex/8.png","images/complex/6.png","images/simple/4.png,images/simple/6.png,images/simple/1.png,images/simple/12.png,images/simple/5.png,images/simple/16.png,images/simple/15.png","1","null","","200","228","","","","background","",""
"","null","html-keyboard-response","168","232655","0.0-17.0-0.27","SS1604611324615","","null","","","","","","","","","","","","<img src=images/blank.png width =""500"" height = ""500"" style=""border:5px solid black"">","","",""
"","115","stimulus-presentation","169","232994","0.0-17.0-1.27","SS1604611324615","<img src='images/complex/6.png' width ='500' height = '500' style='border:5px solid black'>","40","mixed_simple_deviant","images/complex/8.png","images/complex/6.png","images/simple/4.png,images/simple/6.png,images/simple/1.png,images/simple/12.png,images/simple/5.png,images/simple/16.png,images/simple/15.png","1","null","","200","315","","","","background","",""
"","null","html-keyboard-response","170","233829","0.0-17.0-0.28","SS1604611324615","","null","","","","","","","","","","","","<img src=images/blank.png width =""500"" height = ""500"" style=""border:5px solid black"">","","",""
"","61","stimulus-presentation","171","234101","0.0-17.0-1.28","SS1604611324615","<img src='images/complex/6.png' width ='500' height = '500' style='border:5px solid black'>","40","mixed_simple_deviant","images/complex/8.png","images/complex/6.png","images/simple/4.png,images/simple/6.png,images/simple/1.png,images/simple/12.png,images/simple/5.png,images/simple/16.png,images/simple/15.png","1","null","","200","261","","","","background","",""
"","null","html-keyboard-response","172","235174","0.0-17.0-0.29","SS1604611324615","","null","","","","","","","","","","","","<img src=images/blank.png width =""500"" height = ""500"" style=""border:5px solid black"">","","",""
"","81","stimulus-presentation","173","235470","0.0-17.0-1.29","SS1604611324615","<img src='images/complex/6.png' width ='500' height = '500' style='border:5px solid black'>","40","mixed_simple_deviant","images/complex/8.png","images/complex/6.png","images/simple/4.png,images/simple/6.png,images/simple/1.png,images/simple/12.png,images/simple/5.png,images/simple/16.png,images/simple/15.png","1","null","","200","281","","","","background","",""
"","null","html-keyboard-response","174","236618","0.0-17.0-0.30","SS1604611324615","","null","","","","","","","","","","","","<img src=images/blank.png width =""500"" height = ""500"" style=""border:5px solid black"">","","",""
"","798","stimulus-presentation","175","237638","0.0-17.0-1.30","SS1604611324615","<img src='images/complex/8.png' width ='500' height = '500' style='border:5px solid black'>","40","mixed_simple_deviant","images/complex/8.png","images/complex/6.png","images/simple/4.png,images/simple/6.png,images/simple/1.png,images/simple/12.png,images/simple/5.png,images/simple/16.png,images/simple/15.png","1","null","","200","998","yes","178","","target","",""
"","null","html-keyboard-response","176","238578","0.0-17.0-0.31","SS1604611324615","","null","","","","","","","","","","","","<img src=images/blank.png width =""500"" height = ""500"" style=""border:5px solid black"">","","",""
"","120","stimulus-presentation","177","238918","0.0-17.0-1.31","SS1604611324615","<img src='images/complex/6.png' width ='500' height = '500' style='border:5px solid black'>","40","mixed_simple_deviant","images/complex/8.png","images/complex/6.png","images/simple/4.png,images/simple/6.png,images/simple/1.png,images/simple/12.png,images/simple/5.png,images/simple/16.png,images/simple/15.png","1","null","","200","320","","","","background","",""
"","null","html-keyboard-response","178","239999","0.0-17.0-0.32","SS1604611324615","","null","","","","","","","","","","","","<img src=images/blank.png width =""500"" height = ""500"" style=""border:5px solid black"">","","",""
"","1130","stimulus-presentation","179","241340","0.0-17.0-1.32","SS1604611324615","<img src='images/complex/8.png' width ='500' height = '500' style='border:5px solid black'>","40","mixed_simple_deviant","images/complex/8.png","images/complex/6.png","images/simple/4.png,images/simple/6.png,images/simple/1.png,images/simple/12.png,images/simple/5.png,images/simple/16.png,images/simple/15.png","1","null","","200","1330","yes","140","","target","",""
"","null","html-keyboard-response","180","242419","0.0-17.0-0.33","SS1604611324615","","null","","","","","","","","","","","","<img src=images/blank.png width =""500"" height = ""500"" style=""border:5px solid black"">","","",""
"","111","stimulus-presentation","181","242750","0.0-17.0-1.33","SS1604611324615","<img src='images/complex/6.png' width ='500' height = '500' style='border:5px solid black'>","40","mixed_simple_deviant","images/complex/8.png","images/complex/6.png","images/simple/4.png,images/simple/6.png,images/simple/1.png,images/simple/12.png,images/simple/5.png,images/simple/16.png,images/simple/15.png","1","null","","200","311","","","","background","",""
"","null","html-keyboard-response","182","243968","0.0-17.0-0.34","SS1604611324615","","null","","","","","","","","","","","","<img src=images/blank.png width =""500"" height = ""500"" style=""border:5px solid black"">","","",""
"","78","stimulus-presentation","183","244251","0.0-17.0-1.34","SS1604611324615","<img src='images/complex/6.png' width ='500' height = '500' style='border:5px solid black'>","40","mixed_simple_deviant","images/complex/8.png","images/complex/6.png","images/simple/4.png,images/simple/6.png,images/simple/1.png,images/simple/12.png,images/simple/5.png,images/simple/16.png,images/simple/15.png","1","null","","200","278","","","","background","",""
"","null","html-keyboard-response","184","245459","0.0-17.0-0.35","SS1604611324615","","null","","","","","","","","","","","","<img src=images/blank.png width =""500"" height = ""500"" style=""border:5px solid black"">","","",""
"","48","stimulus-presentation","185","245728","0.0-17.0-1.35","SS1604611324615","<img src='images/complex/6.png' width ='500' height = '500' style='border:5px solid black'>","40","mixed_simple_deviant","images/complex/8.png","images/complex/6.png","images/simple/4.png,images/simple/6.png,images/simple/1.png,images/simple/12.png,images/simple/5.png,images/simple/16.png,images/simple/15.png","1","null","","200","248","","","","background","",""
"","null","html-keyboard-response","186","246699","0.0-17.0-0.36","SS1604611324615","","null","","","","","","","","","","","","<img src=images/blank.png width =""500"" height = ""500"" style=""border:5px solid black"">","","",""
"","55","stimulus-presentation","187","246974","0.0-17.0-1.36","SS1604611324615","<img src='images/complex/6.png' width ='500' height = '500' style='border:5px solid black'>","40","mixed_simple_deviant","images/complex/8.png","images/complex/6.png","images/simple/4.png,images/simple/6.png,images/simple/1.png,images/simple/12.png,images/simple/5.png,images/simple/16.png,images/simple/15.png","1","null","","200","255","","","","background","",""
"","null","html-keyboard-response","188","248239","0.0-17.0-0.37","SS1604611324615","","null","","","","","","","","","","","","<img src=images/blank.png width =""500"" height = ""500"" style=""border:5px solid black"">","","",""
"","80","stimulus-presentation","189","248540","0.0-17.0-1.37","SS1604611324615","<img src='images/simple/5.png' width ='500' height = '500' style='border:5px solid black'>","40","mixed_simple_deviant","images/complex/8.png","images/complex/6.png","images/simple/4.png,images/simple/6.png,images/simple/1.png,images/simple/12.png,images/simple/5.png,images/simple/16.png,images/simple/15.png","1","null","","200","280","","","","deviant","",""
"","null","html-keyboard-response","190","249580","0.0-17.0-0.38","SS1604611324615","","null","","","","","","","","","","","","<img src=images/blank.png width =""500"" height = ""500"" style=""border:5px solid black"">","","",""
"","140","stimulus-presentation","191","249924","0.0-17.0-1.38","SS1604611324615","<img src='images/complex/6.png' width ='500' height = '500' style='border:5px solid black'>","40","mixed_simple_deviant","images/complex/8.png","images/complex/6.png","images/simple/4.png,images/simple/6.png,images/simple/1.png,images/simple/12.png,images/simple/5.png,images/simple/16.png,images/simple/15.png","1","null","","200","340","","","","background","",""
"","null","html-keyboard-response","192","250780","0.0-17.0-0.39","SS1604611324615","","null","","","","","","","","","","","","<img src=images/blank.png width =""500"" height = ""500"" style=""border:5px solid black"">","","",""
"","33","stimulus-presentation","193","251033","0.0-17.0-1.39","SS1604611324615","<img src='images/complex/6.png' width ='500' height = '500' style='border:5px solid black'>","40","mixed_simple_deviant","images/complex/8.png","images/complex/6.png","images/simple/4.png,images/simple/6.png,images/simple/1.png,images/simple/12.png,images/simple/5.png,images/simple/16.png,images/simple/15.png","1","null","","200","233","","","","background","",""
"","null","html-keyboard-response","194","251929","0.0-17.0-0.40","SS1604611324615","","null","","","","","","","","","","","","<img src=images/blank.png width =""500"" height = ""500"" style=""border:5px solid black"">","","",""
"","1018","stimulus-presentation","195","253167","0.0-17.0-1.40","SS1604611324615","<img src='images/complex/8.png' width ='500' height = '500' style='border:5px solid black'>","40","mixed_simple_deviant","images/complex/8.png","images/complex/6.png","images/simple/4.png,images/simple/6.png,images/simple/1.png,images/simple/12.png,images/simple/5.png,images/simple/16.png,images/simple/15.png","1","null","","200","1218","yes","247","","target","",""
"","null","html-keyboard-response","196","254409","0.0-17.0-0.41","SS1604611324615","","null","","","","","","","","","","","","<img src=images/blank.png width =""500"" height = ""500"" style=""border:5px solid black"">","","",""
"","174","stimulus-presentation","197","254789","0.0-17.0-1.41","SS1604611324615","<img src='images/complex/6.png' width ='500' height = '500' style='border:5px solid black'>","40","mixed_simple_deviant","images/complex/8.png","images/complex/6.png","images/simple/4.png,images/simple/6.png,images/simple/1.png,images/simple/12.png,images/simple/5.png,images/simple/16.png,images/simple/15.png","1","null","","200","374","","","","background","",""
"","null","html-keyboard-response","198","255680","0.0-17.0-0.42","SS1604611324615","","null","","","","","","","","","","","","<img src=images/blank.png width =""500"" height = ""500"" style=""border:5px solid black"">","","",""
"","1050","stimulus-presentation","199","256949","0.0-17.0-1.42","SS1604611324615","<img src='images/complex/8.png' width ='500' height = '500' style='border:5px solid black'>","40","mixed_simple_deviant","images/complex/8.png","images/complex/6.png","images/simple/4.png,images/simple/6.png,images/simple/1.png,images/simple/12.png,images/simple/5.png,images/simple/16.png,images/simple/15.png","1","null","","200","1250","yes","242","","target","",""
"","null","html-keyboard-response","200","257779","0.0-17.0-0.43","SS1604611324615","","null","","","","","","","","","","","","<img src=images/blank.png width =""500"" height = ""500"" style=""border:5px solid black"">","","",""
"","268","stimulus-presentation","201","258268","0.0-17.0-1.43","SS1604611324615","<img src='images/simple/4.png' width ='500' height = '500' style='border:5px solid black'>","40","mixed_simple_deviant","images/complex/8.png","images/complex/6.png","images/simple/4.png,images/simple/6.png,images/simple/1.png,images/simple/12.png,images/simple/5.png,images/simple/16.png,images/simple/15.png","1","null","","200","468","","","","deviant","",""
"","null","html-keyboard-response","202","259230","0.0-17.0-0.44","SS1604611324615","","null","","","","","","","","","","","","<img src=images/blank.png width =""500"" height = ""500"" style=""border:5px solid black"">","","",""
"","842","stimulus-presentation","203","260291","0.0-17.0-1.44","SS1604611324615","<img src='images/complex/8.png' width ='500' height = '500' style='border:5px solid black'>","40","mixed_simple_deviant","images/complex/8.png","images/complex/6.png","images/simple/4.png,images/simple/6.png,images/simple/1.png,images/simple/12.png,images/simple/5.png,images/simple/16.png,images/simple/15.png","1","null","","200","1042","yes","192","","target","",""
"","null","html-keyboard-response","204","261370","0.0-17.0-0.45","SS1604611324615","","null","","","","","","","","","","","","<img src=images/blank.png width =""500"" height = ""500"" style=""border:5px solid black"">","","",""
"","48","stimulus-presentation","205","261638","0.0-17.0-1.45","SS1604611324615","<img src='images/complex/6.png' width ='500' height = '500' style='border:5px solid black'>","40","mixed_simple_deviant","images/complex/8.png","images/complex/6.png","images/simple/4.png,images/simple/6.png,images/simple/1.png,images/simple/12.png,images/simple/5.png,images/simple/16.png,images/simple/15.png","1","null","","200","248","","","","background","",""
"","null","html-keyboard-response","206","262840","0.0-17.0-0.46","SS1604611324615","","null","","","","","","","","","","","","<img src=images/blank.png width =""500"" height = ""500"" style=""border:5px solid black"">","","",""
"","126","stimulus-presentation","207","263185","0.0-17.0-1.46","SS1604611324615","<img src='images/complex/6.png' width ='500' height = '500' style='border:5px solid black'>","40","mixed_simple_deviant","images/complex/8.png","images/complex/6.png","images/simple/4.png,images/simple/6.png,images/simple/1.png,images/simple/12.png,images/simple/5.png,images/simple/16.png,images/simple/15.png","1","null","","200","326","","","","background","",""
"","null","html-keyboard-response","208","264300","0.0-17.0-0.47","SS1604611324615","","null","","","","","","","","","","","","<img src=images/blank.png width =""500"" height = ""500"" style=""border:5px solid black"">","","",""
"","37","stimulus-presentation","209","264558","0.0-17.0-1.47","SS1604611324615","<img src='images/complex/6.png' width ='500' height = '500' style='border:5px solid black'>","40","mixed_simple_deviant","images/complex/8.png","images/complex/6.png","images/simple/4.png,images/simple/6.png,images/simple/1.png,images/simple/12.png,images/simple/5.png,images/simple/16.png,images/simple/15.png","1","null","","200","237","","","","background","",""
"","null","html-keyboard-response","210","265530","0.0-17.0-0.48","SS1604611324615","","null","","","","","","","","","","","","<img src=images/blank.png width =""500"" height = ""500"" style=""border:5px solid black"">","","",""
"","92","stimulus-presentation","211","265843","0.0-17.0-1.48","SS1604611324615","<img src='images/complex/6.png' width ='500' height = '500' style='border:5px solid black'>","40","mixed_simple_deviant","images/complex/8.png","images/complex/6.png","images/simple/4.png,images/simple/6.png,images/simple/1.png,images/simple/12.png,images/simple/5.png,images/simple/16.png,images/simple/15.png","1","null","","200","292","","","","background","",""
"[{""page_index"":0,""viewing_time"":85760}]","85761","task-instructions","212","351606","0.0-18.0","SS1604611324615","","","","","","","","","","","","","","","","",""
"[{""page_index"":0,""viewing_time"":4113},{""page_index"":1,""viewing_time"":3346},{""page_index"":2,""viewing_time"":951}]","8410","instructions","213","360018","0.0-19.0","SS1604611324615","","","","","","","","","","","","","","","","",""
"","null","html-keyboard-response","214","361274","0.0-20.0-0.0","SS1604611324615","","null","","","","","","","","","","","","<img src=images/blank.png width =""500"" height = ""500"" style=""border:5px solid black"">","","",""
"","228","stimulus-presentation","215","361723","0.0-20.0-1.0","SS1604611324615","<img src='images/complex/15.png' width ='500' height = '500' style='border:5px solid black'>","40","all_complex","images/complex/13.png","images/complex/9.png","images/complex/3.png,images/complex/11.png,images/complex/4.png,images/complex/15.png,images/complex/10.png,images/complex/16.png,images/complex/5.png","2","null","","200","428","","","","deviant","",""
"","null","html-keyboard-response","216","362894","0.0-20.0-0.1","SS1604611324615","","null","","","","","","","","","","","","<img src=images/blank.png width =""500"" height = ""500"" style=""border:5px solid black"">","","",""
"","66","stimulus-presentation","217","363179","0.0-20.0-1.1","SS1604611324615","<img src='images/complex/9.png' width ='500' height = '500' style='border:5px solid black'>","40","all_complex","images/complex/13.png","images/complex/9.png","images/complex/3.png,images/complex/11.png,images/complex/4.png,images/complex/15.png,images/complex/10.png,images/complex/16.png,images/complex/5.png","2","null","","200","266","","","","background","",""
"","null","html-keyboard-response","218","364314","0.0-20.0-0.2","SS1604611324615","","null","","","","","","","","","","","","<img src=images/blank.png width =""500"" height = ""500"" style=""border:5px solid black"">","","",""
"","85","stimulus-presentation","219","364619","0.0-20.0-1.2","SS1604611324615","<img src='images/complex/9.png' width ='500' height = '500' style='border:5px solid black'>","40","all_complex","images/complex/13.png","images/complex/9.png","images/complex/3.png,images/complex/11.png,images/complex/4.png,images/complex/15.png,images/complex/10.png,images/complex/16.png,images/complex/5.png","2","null","","200","285","","","","background","",""
"","null","html-keyboard-response","220","365694","0.0-20.0-0.3","SS1604611324615","","null","","","","","","","","","","","","<img src=images/blank.png width =""500"" height = ""500"" style=""border:5px solid black"">","","",""
"","119","stimulus-presentation","221","366033","0.0-20.0-1.3","SS1604611324615","<img src='images/complex/9.png' width ='500' height = '500' style='border:5px solid black'>","40","all_complex","images/complex/13.png","images/complex/9.png","images/complex/3.png,images/complex/11.png,images/complex/4.png,images/complex/15.png,images/complex/10.png,images/complex/16.png,images/complex/5.png","2","null","","200","319","","","","background","",""
"","null","html-keyboard-response","222","367254","0.0-20.0-0.4","SS1604611324615","","null","","","","","","","","","","","","<img src=images/blank.png width =""500"" height = ""500"" style=""border:5px solid black"">","","",""
"","82","stimulus-presentation","223","367555","0.0-20.0-1.4","SS1604611324615","<img src='images/complex/9.png' width ='500' height = '500' style='border:5px solid black'>","40","all_complex","images/complex/13.png","images/complex/9.png","images/complex/3.png,images/complex/11.png,images/complex/4.png,images/complex/15.png,images/complex/10.png,images/complex/16.png,images/complex/5.png","2","null","","200","282","","","","background","",""
"","null","html-keyboard-response","224","368694","0.0-20.0-0.5","SS1604611324615","","null","","","","","","","","","","","","<img src=images/blank.png width =""500"" height = ""500"" style=""border:5px solid black"">","","",""
"","82","stimulus-presentation","225","368983","0.0-20.0-1.5","SS1604611324615","<img src='images/complex/9.png' width ='500' height = '500' style='border:5px solid black'>","40","all_complex","images/complex/13.png","images/complex/9.png","images/complex/3.png,images/complex/11.png,images/complex/4.png,images/complex/15.png,images/complex/10.png,images/complex/16.png,images/complex/5.png","2","null","","200","282","","","","background","",""
"","null","html-keyboard-response","226","369864","0.0-20.0-0.6","SS1604611324615","","null","","","","","","","","","","","","<img src=images/blank.png width =""500"" height = ""500"" style=""border:5px solid black"">","","",""
"","102","stimulus-presentation","227","370186","0.0-20.0-1.6","SS1604611324615","<img src='images/complex/9.png' width ='500' height = '500' style='border:5px solid black'>","40","all_complex","images/complex/13.png","images/complex/9.png","images/complex/3.png,images/complex/11.png,images/complex/4.png,images/complex/15.png,images/complex/10.png,images/complex/16.png,images/complex/5.png","2","null","","200","302","","","","background","",""
"","null","html-keyboard-response","228","371178","0.0-20.0-0.7","SS1604611324615","","null","","","","","","","","","","","","<img src=images/blank.png width =""500"" height = ""500"" style=""border:5px solid black"">","","",""
"","68","stimulus-presentation","229","371453","0.0-20.0-1.7","SS1604611324615","<img src='images/complex/9.png' width ='500' height = '500' style='border:5px solid black'>","40","all_complex","images/complex/13.png","images/complex/9.png","images/complex/3.png,images/complex/11.png,images/complex/4.png,images/complex/15.png,images/complex/10.png,images/complex/16.png,images/complex/5.png","2","null","","200","268","","","","background","",""
"","null","html-keyboard-response","230","372665","0.0-20.0-0.8","SS1604611324615","","null","","","","","","","","","","","","<img src=images/blank.png width =""500"" height = ""500"" style=""border:5px solid black"">","","",""
"","64","stimulus-presentation","231","372949","0.0-20.0-1.8","SS1604611324615","<img src='images/complex/9.png' width ='500' height = '500' style='border:5px solid black'>","40","all_complex","images/complex/13.png","images/complex/9.png","images/complex/3.png,images/complex/11.png,images/complex/4.png,images/complex/15.png,images/complex/10.png,images/complex/16.png,images/complex/5.png","2","null","","200","264","","","","background","",""
"","null","html-keyboard-response","232","374204","0.0-20.0-0.9","SS1604611324615","","null","","","","","","","","","","","","<img src=images/blank.png width =""500"" height = ""500"" style=""border:5px solid black"">","","",""
"","43","stimulus-presentation","233","374467","0.0-20.0-1.9","SS1604611324615","<img src='images/complex/13.png' width ='500' height = '500' style='border:5px solid black'>","40","all_complex","images/complex/13.png","images/complex/9.png","images/complex/3.png,images/complex/11.png,images/complex/4.png,images/complex/15.png,images/complex/10.png,images/complex/16.png,images/complex/5.png","2","null","","200","243","","","","target","",""
"","null","html-keyboard-response","234","375755","0.0-20.0-0.10","SS1604611324615","","null","","","","","","","","","","","","<img src=images/blank.png width =""500"" height = ""500"" style=""border:5px solid black"">","","",""
"","119","stimulus-presentation","235","376093","0.0-20.0-1.10","SS1604611324615","<img src='images/complex/9.png' width ='500' height = '500' style='border:5px solid black'>","40","all_complex","images/complex/13.png","images/complex/9.png","images/complex/3.png,images/complex/11.png,images/complex/4.png,images/complex/15.png,images/complex/10.png,images/complex/16.png,images/complex/5.png","2","null","","200","319","","","","background","",""
"","null","html-keyboard-response","236","376945","0.0-20.0-0.11","SS1604611324615","","null","","","","","","","","","","","","<img src=images/blank.png width =""500"" height = ""500"" style=""border:5px solid black"">","","",""
"","119","stimulus-presentation","237","377284","0.0-20.0-1.11","SS1604611324615","<img src='images/complex/16.png' width ='500' height = '500' style='border:5px solid black'>","40","all_complex","images/complex/13.png","images/complex/9.png","images/complex/3.png,images/complex/11.png,images/complex/4.png,images/complex/15.png,images/complex/10.png,images/complex/16.png,images/complex/5.png","2","null","","200","319","","","","deviant","",""
"","null","html-keyboard-response","238","378135","0.0-20.0-0.12","SS1604611324615","","null","","","","","","","","","","","","<img src=images/blank.png width =""500"" height = ""500"" style=""border:5px solid black"">","","",""
"","36","stimulus-presentation","239","378390","0.0-20.0-1.12","SS1604611324615","<img src='images/complex/9.png' width ='500' height = '500' style='border:5px solid black'>","40","all_complex","images/complex/13.png","images/complex/9.png","images/complex/3.png,images/complex/11.png,images/complex/4.png,images/complex/15.png,images/complex/10.png,images/complex/16.png,images/complex/5.png","2","null","","200","236","","","","background","",""
"","null","html-keyboard-response","240","379424","0.0-20.0-0.13","SS1604611324615","","null","","","","","","","","","","","","<img src=images/blank.png width =""500"" height = ""500"" style=""border:5px solid black"">","","",""
"","836","stimulus-presentation","241","380481","0.0-20.0-1.13","SS1604611324615","<img src='images/complex/13.png' width ='500' height = '500' style='border:5px solid black'>","40","all_complex","images/complex/13.png","images/complex/9.png","images/complex/3.png,images/complex/11.png,images/complex/4.png,images/complex/15.png,images/complex/10.png,images/complex/16.png,images/complex/5.png","2","null","","200","1036","yes","182","","target","",""
"","null","html-keyboard-response","242","381546","0.0-20.0-0.14","SS1604611324615","","null","","","","","","","","","","","","<img src=images/blank.png width =""500"" height = ""500"" style=""border:5px solid black"">","","",""
"","164","stimulus-presentation","243","381920","0.0-20.0-1.14","SS1604611324615","<img src='images/complex/4.png' width ='500' height = '500' style='border:5px solid black'>","40","all_complex","images/complex/13.png","images/complex/9.png","images/complex/3.png,images/complex/11.png,images/complex/4.png,images/complex/15.png,images/complex/10.png,images/complex/16.png,images/complex/5.png","2","null","","200","364","","","","deviant","",""
"","null","html-keyboard-response","244","382895","0.0-20.0-0.15","SS1604611324615","","null","","","","","","","","","","","","<img src=images/blank.png width =""500"" height = ""500"" style=""border:5px solid black"">","","",""
"","96","stimulus-presentation","245","383211","0.0-20.0-1.15","SS1604611324615","<img src='images/complex/9.png' width ='500' height = '500' style='border:5px solid black'>","40","all_complex","images/complex/13.png","images/complex/9.png","images/complex/3.png,images/complex/11.png,images/complex/4.png,images/complex/15.png,images/complex/10.png,images/complex/16.png,images/complex/5.png","2","null","","200","296","","","","background","",""
"","null","html-keyboard-response","246","384055","0.0-20.0-0.16","SS1604611324615","","null","","","","","","","","","","","","<img src=images/blank.png width =""500"" height = ""500"" style=""border:5px solid black"">","","",""
"","116","stimulus-presentation","247","384390","0.0-20.0-1.16","SS1604611324615","<img src='images/complex/9.png' width ='500' height = '500' style='border:5px solid black'>","40","all_complex","images/complex/13.png","images/complex/9.png","images/complex/3.png,images/complex/11.png,images/complex/4.png,images/complex/15.png,images/complex/10.png,images/complex/16.png,images/complex/5.png","2","null","","200","316","","","","background","",""
"","null","html-keyboard-response","248","385624","0.0-20.0-0.17","SS1604611324615","","null","","","","","","","","","","","","<img src=images/blank.png width =""500"" height = ""500"" style=""border:5px solid black"">","","",""
"","163","stimulus-presentation","249","385993","0.0-20.0-1.17","SS1604611324615","<img src='images/complex/9.png' width ='500' height = '500' style='border:5px solid black'>","40","all_complex","images/complex/13.png","images/complex/9.png","images/complex/3.png,images/complex/11.png,images/complex/4.png,images/complex/15.png,images/complex/10.png,images/complex/16.png,images/complex/5.png","2","null","","200","363","","","","background","",""
"","null","html-keyboard-response","250","387065","0.0-20.0-0.18","SS1604611324615","","null","","","","","","","","","","","","<img src=images/blank.png width =""500"" height = ""500"" style=""border:5px solid black"">","","",""
"","95","stimulus-presentation","251","387379","0.0-20.0-1.18","SS1604611324615","<img src='images/complex/9.png' width ='500' height = '500' style='border:5px solid black'>","40","all_complex","images/complex/13.png","images/complex/9.png","images/complex/3.png,images/complex/11.png,images/complex/4.png,images/complex/15.png,images/complex/10.png,images/complex/16.png,images/complex/5.png","2","null","","200","295","","","","background","",""
"","null","html-keyboard-response","252","388205","0.0-20.0-0.19","SS1604611324615","","null","","","","","","","","","","","","<img src=images/blank.png width =""500"" height = ""500"" style=""border:5px solid black"">","","",""
"","240","stimulus-presentation","253","388655","0.0-20.0-1.19","SS1604611324615","<img src='images/complex/9.png' width ='500' height = '500' style='border:5px solid black'>","40","all_complex","images/complex/13.png","images/complex/9.png","images/complex/3.png,images/complex/11.png,images/complex/4.png,images/complex/15.png,images/complex/10.png,images/complex/16.png,images/complex/5.png","2","null","","200","440","","","","background","",""
"","null","html-keyboard-response","254","389945","0.0-20.0-0.20","SS1604611324615","","null","","","","","","","","","","","","<img src=images/blank.png width =""500"" height = ""500"" style=""border:5px solid black"">","","",""
"","110","stimulus-presentation","255","390275","0.0-20.0-1.20","SS1604611324615","<img src='images/complex/9.png' width ='500' height = '500' style='border:5px solid black'>","40","all_complex","images/complex/13.png","images/complex/9.png","images/complex/3.png,images/complex/11.png,images/complex/4.png,images/complex/15.png,images/complex/10.png,images/complex/16.png,images/complex/5.png","2","null","","200","310","","","","background","",""
"","null","html-keyboard-response","256","391095","0.0-20.0-0.21","SS1604611324615","","null","","","","","","","","","","","","<img src=images/blank.png width =""500"" height = ""500"" style=""border:5px solid black"">","","",""
"","157","stimulus-presentation","257","391472","0.0-20.0-1.21","SS1604611324615","<img src='images/complex/9.png' width ='500' height = '500' style='border:5px solid black'>","40","all_complex","images/complex/13.png","images/complex/9.png","images/complex/3.png,images/complex/11.png,images/complex/4.png,images/complex/15.png,images/complex/10.png,images/complex/16.png,images/complex/5.png","2","null","","200","357","","","","background","",""
"","null","html-keyboard-response","258","392335","0.0-20.0-0.22","SS1604611324615","","null","","","","","","","","","","","","<img src=images/blank.png width =""500"" height = ""500"" style=""border:5px solid black"">","","",""
"","984","stimulus-presentation","259","393540","0.0-20.0-1.22","SS1604611324615","<img src='images/complex/13.png' width ='500' height = '500' style='border:5px solid black'>","40","all_complex","images/complex/13.png","images/complex/9.png","images/complex/3.png,images/complex/11.png,images/complex/4.png,images/complex/15.png,images/complex/10.png,images/complex/16.png,images/complex/5.png","2","null","","200","1184","yes","363","","target","",""
"","null","html-keyboard-response","260","394425","0.0-20.0-0.23","SS1604611324615","","null","","","","","","","","","","","","<img src=images/blank.png width =""500"" height = ""500"" style=""border:5px solid black"">","","",""
"","49","stimulus-presentation","261","394695","0.0-20.0-1.23","SS1604611324615","<img src='images/complex/9.png' width ='500' height = '500' style='border:5px solid black'>","40","all_complex","images/complex/13.png","images/complex/9.png","images/complex/3.png,images/complex/11.png,images/complex/4.png,images/complex/15.png,images/complex/10.png,images/complex/16.png,images/complex/5.png","2","null","","200","249","","","","background","",""
"","null","html-keyboard-response","262","395724","0.0-20.0-0.24","SS1604611324615","","null","","","","","","","","","","","","<img src=images/blank.png width =""500"" height = ""500"" style=""border:5px solid black"">","","",""
"","78","stimulus-presentation","263","396014","0.0-20.0-1.24","SS1604611324615","<img src='images/complex/9.png' width ='500' height = '500' style='border:5px solid black'>","40","all_complex","images/complex/13.png","images/complex/9.png","images/complex/3.png,images/complex/11.png,images/complex/4.png,images/complex/15.png,images/complex/10.png,images/complex/16.png,images/complex/5.png","2","null","","200","278","","","","background","",""
"","null","html-keyboard-response","264","397165","0.0-20.0-0.25","SS1604611324615","","null","","","","","","","","","","","","<img src=images/blank.png width =""500"" height = ""500"" style=""border:5px solid black"">","","",""
"","77","stimulus-presentation","265","397464","0.0-20.0-1.25","SS1604611324615","<img src='images/complex/13.png' width ='500' height = '500' style='border:5px solid black'>","40","all_complex","images/complex/13.png","images/complex/9.png","images/complex/3.png,images/complex/11.png,images/complex/4.png,images/complex/15.png,images/complex/10.png,images/complex/16.png,images/complex/5.png","2","null","","200","277","","","","target","",""
"","null","html-keyboard-response","266","398425","0.0-20.0-0.26","SS1604611324615","","null","","","","","","","","","","","","<img src=images/blank.png width =""500"" height = ""500"" style=""border:5px solid black"">","","",""
"","112","stimulus-presentation","267","398748","0.0-20.0-1.26","SS1604611324615","<img src='images/complex/5.png' width ='500' height = '500' style='border:5px solid black'>","40","all_complex","images/complex/13.png","images/complex/9.png","images/complex/3.png,images/complex/11.png,images/complex/4.png,images/complex/15.png,images/complex/10.png,images/complex/16.png,images/complex/5.png","2","null","","200","312","","","","deviant","",""
"","null","html-keyboard-response","268","399955","0.0-20.0-0.27","SS1604611324615","","null","","","","","","","","","","","","<img src=images/blank.png width =""500"" height = ""500"" style=""border:5px solid black"">","","",""
"","92","stimulus-presentation","269","400268","0.0-20.0-1.27","SS1604611324615","<img src='images/complex/9.png' width ='500' height = '500' style='border:5px solid black'>","40","all_complex","images/complex/13.png","images/complex/9.png","images/complex/3.png,images/complex/11.png,images/complex/4.png,images/complex/15.png,images/complex/10.png,images/complex/16.png,images/complex/5.png","2","null","","200","292","","","","background","",""
"","null","html-keyboard-response","270","401266","0.0-20.0-0.28","SS1604611324615","","null","","","","","","","","","","","","<img src=images/blank.png width =""500"" height = ""500"" style=""border:5px solid black"">","","",""
"","100","stimulus-presentation","271","401586","0.0-20.0-1.28","SS1604611324615","<img src='images/complex/9.png' width ='500' height = '500' style='border:5px solid black'>","40","all_complex","images/complex/13.png","images/complex/9.png","images/complex/3.png,images/complex/11.png,images/complex/4.png,images/complex/15.png,images/complex/10.png,images/complex/16.png,images/complex/5.png","2","null","","200","300","","","","background","",""
"","null","html-keyboard-response","272","402695","0.0-20.0-0.29","SS1604611324615","","null","","","","","","","","","","","","<img src=images/blank.png width =""500"" height = ""500"" style=""border:5px solid black"">","","",""
"","97","stimulus-presentation","273","403012","0.0-20.0-1.29","SS1604611324615","<img src='images/complex/9.png' width ='500' height = '500' style='border:5px solid black'>","40","all_complex","images/complex/13.png","images/complex/9.png","images/complex/3.png,images/complex/11.png,images/complex/4.png,images/complex/15.png,images/complex/10.png,images/complex/16.png,images/complex/5.png","2","null","","200","297","","","","background","",""
"","null","html-keyboard-response","274","404006","0.0-20.0-0.30","SS1604611324615","","null","","","","","","","","","","","","<img src=images/blank.png width =""500"" height = ""500"" style=""border:5px solid black"">","","",""
"","88","stimulus-presentation","275","404314","0.0-20.0-1.30","SS1604611324615","<img src='images/complex/9.png' width ='500' height = '500' style='border:5px solid black'>","40","all_complex","images/complex/13.png","images/complex/9.png","images/complex/3.png,images/complex/11.png,images/complex/4.png,images/complex/15.png,images/complex/10.png,images/complex/16.png,images/complex/5.png","2","null","","200","288","","","","background","",""
"","null","html-keyboard-response","276","405606","0.0-20.0-0.31","SS1604611324615","","null","","","","","","","","","","","","<img src=images/blank.png width =""500"" height = ""500"" style=""border:5px solid black"">","","",""
"","164","stimulus-presentation","277","405976","0.0-20.0-1.31","SS1604611324615","<img src='images/complex/9.png' width ='500' height = '500' style='border:5px solid black'>","40","all_complex","images/complex/13.png","images/complex/9.png","images/complex/3.png,images/complex/11.png,images/complex/4.png,images/complex/15.png,images/complex/10.png,images/complex/16.png,images/complex/5.png","2","null","","200","364","","","","background","",""
"","null","html-keyboard-response","278","407145","0.0-20.0-0.32","SS1604611324615","","null","","","","","","","","","","","","<img src=images/blank.png width =""500"" height = ""500"" style=""border:5px solid black"">","","",""
"","527","stimulus-presentation","279","407894","0.0-20.0-1.32","SS1604611324615","<img src='images/complex/11.png' width ='500' height = '500' style='border:5px solid black'>","40","all_complex","images/complex/13.png","images/complex/9.png","images/complex/3.png,images/complex/11.png,images/complex/4.png,images/complex/15.png,images/complex/10.png,images/complex/16.png,images/complex/5.png","2","null","","200","727","","","","deviant","",""
"","null","html-keyboard-response","280","408775","0.0-20.0-0.33","SS1604611324615","","null","","","","","","","","","","","","<img src=images/blank.png width =""500"" height = ""500"" style=""border:5px solid black"">","","",""
"","1012","stimulus-presentation","281","410007","0.0-20.0-1.33","SS1604611324615","<img src='images/complex/13.png' width ='500' height = '500' style='border:5px solid black'>","40","all_complex","images/complex/13.png","images/complex/9.png","images/complex/3.png,images/complex/11.png,images/complex/4.png,images/complex/15.png,images/complex/10.png,images/complex/16.png,images/complex/5.png","2","null","","200","1212","yes","251","","target","",""
"","null","html-keyboard-response","282","411156","0.0-20.0-0.34","SS1604611324615","","null","","","","","","","","","","","","<img src=images/blank.png width =""500"" height = ""500"" style=""border:5px solid black"">","","",""
"","88","stimulus-presentation","283","411464","0.0-20.0-1.34","SS1604611324615","<img src='images/complex/9.png' width ='500' height = '500' style='border:5px solid black'>","40","all_complex","images/complex/13.png","images/complex/9.png","images/complex/3.png,images/complex/11.png,images/complex/4.png,images/complex/15.png,images/complex/10.png,images/complex/16.png,images/complex/5.png","2","null","","200","288","","","","background","",""
"","null","html-keyboard-response","284","412495","0.0-20.0-0.35","SS1604611324615","","null","","","","","","","","","","","","<img src=images/blank.png width =""500"" height = ""500"" style=""border:5px solid black"">","","",""
"","1111","stimulus-presentation","285","413817","0.0-20.0-1.35","SS1604611324615","<img src='images/complex/13.png' width ='500' height = '500' style='border:5px solid black'>","40","all_complex","images/complex/13.png","images/complex/9.png","images/complex/3.png,images/complex/11.png,images/complex/4.png,images/complex/15.png,images/complex/10.png,images/complex/16.png,images/complex/5.png","2","null","","200","1311","yes","436","","target","",""
"","null","html-keyboard-response","286","414855","0.0-20.0-0.36","SS1604611324615","","null","","","","","","","","","","","","<img src=images/blank.png width =""500"" height = ""500"" style=""border:5px solid black"">","","",""
"","167","stimulus-presentation","287","415227","0.0-20.0-1.36","SS1604611324615","<img src='images/complex/9.png' width ='500' height = '500' style='border:5px solid black'>","40","all_complex","images/complex/13.png","images/complex/9.png","images/complex/3.png,images/complex/11.png,images/complex/4.png,images/complex/15.png,images/complex/10.png,images/complex/16.png,images/complex/5.png","2","null","","200","367","","","","background","",""
"","null","html-keyboard-response","288","416496","0.0-20.0-0.37","SS1604611324615","","null","","","","","","","","","","","","<img src=images/blank.png width =""500"" height = ""500"" style=""border:5px solid black"">","","",""
"","182","stimulus-presentation","289","416888","0.0-20.0-1.37","SS1604611324615","<img src='images/complex/9.png' width ='500' height = '500' style='border:5px solid black'>","40","all_complex","images/complex/13.png","images/complex/9.png","images/complex/3.png,images/complex/11.png,images/complex/4.png,images/complex/15.png,images/complex/10.png,images/complex/16.png,images/complex/5.png","2","null","","200","382","","","","background","",""
"","null","html-keyboard-response","290","417915","0.0-20.0-0.38","SS1604611324615","","null","","","","","","","","","","","","<img src=images/blank.png width =""500"" height = ""500"" style=""border:5px solid black"">","","",""
"","916","stimulus-presentation","291","419043","0.0-20.0-1.38","SS1604611324615","<img src='images/complex/13.png' width ='500' height = '500' style='border:5px solid black'>","40","all_complex","images/complex/13.png","images/complex/9.png","images/complex/3.png,images/complex/11.png,images/complex/4.png,images/complex/15.png,images/complex/10.png,images/complex/16.png,images/complex/5.png","2","null","","200","1116","yes","309","","target","",""
"","null","html-keyboard-response","292","420167","0.0-20.0-0.39","SS1604611324615","","null","","","","","","","","","","","","<img src=images/blank.png width =""500"" height = ""500"" style=""border:5px solid black"">","","",""
"","160","stimulus-presentation","293","420537","0.0-20.0-1.39","SS1604611324615","<img src='images/complex/3.png' width ='500' height = '500' style='border:5px solid black'>","40","all_complex","images/complex/13.png","images/complex/9.png","images/complex/3.png,images/complex/11.png,images/complex/4.png,images/complex/15.png,images/complex/10.png,images/complex/16.png,images/complex/5.png","2","null","","200","360","","","","deviant","",""
"","null","html-keyboard-response","294","421466","0.0-20.0-0.40","SS1604611324615","","null","","","","","","","","","","","","<img src=images/blank.png width =""500"" height = ""500"" style=""border:5px solid black"">","","",""
"","3214","stimulus-presentation","295","424900","0.0-20.0-1.40","SS1604611324615","<img src='images/complex/9.png' width ='500' height = '500' style='border:5px solid black'>","40","all_complex","images/complex/13.png","images/complex/9.png","images/complex/3.png,images/complex/11.png,images/complex/4.png,images/complex/15.png,images/complex/10.png,images/complex/16.png,images/complex/5.png","2","null","","200","3414","","","","background","",""
"","null","html-keyboard-response","296","425806","0.0-20.0-0.41","SS1604611324615","","null","","","","","","","","","","","","<img src=images/blank.png width =""500"" height = ""500"" style=""border:5px solid black"">","","",""
"","240","stimulus-presentation","297","426266","0.0-20.0-1.41","SS1604611324615","<img src='images/complex/9.png' width ='500' height = '500' style='border:5px solid black'>","40","all_complex","images/complex/13.png","images/complex/9.png","images/complex/3.png,images/complex/11.png,images/complex/4.png,images/complex/15.png,images/complex/10.png,images/complex/16.png,images/complex/5.png","2","null","","200","440","","","","background","",""
"","null","html-keyboard-response","298","427237","0.0-20.0-0.42","SS1604611324615","","null","","","","","","","","","","","","<img src=images/blank.png width =""500"" height = ""500"" style=""border:5px solid black"">","","",""
