"view_history","rt","trial_type","trial_index","time_elapsed","internal_node_id","subject","trial_stimulus","key_press","task_type","task_target_stimulus","task_background_stimulus","task_deviant_stimuli","task_order_number","block_order_number","trial_order_number","minimum_viewing_duration","trial_looking_time","trial_pressed_space_bar","trial_space_bar_rt","stimulus","trial_stimulus_type","responses","question_order"
"[{""page_index"":0,""viewing_time"":2183.125000039581}]","2184.5850000390783","instructions","0","2246","0.0-0.0","SS1604609592919","","","","","","","","","","","","","","","","",""
"[{""page_index"":0,""viewing_time"":5597.0950000337325},{""page_index"":1,""viewing_time"":4436.999999976251},{""page_index"":2,""viewing_time"":4527.679999999236},{""page_index"":3,""viewing_time"":6256.915000034496},{""page_index"":4,""viewing_time"":3881.7749999579974},{""page_index"":5,""viewing_time"":5880.650000006426},{""page_index"":6,""viewing_time"":2550.8350000018254},{""page_index"":7,""viewing_time"":5882.5700000161305},{""page_index"":8,""viewing_time"":3150.904999987688}]","42166.064999997616","instructions","1","44417","0.0-1.0","SS1604609592919","","","","","","","","","","","","","","","","",""
"[{""page_index"":0,""viewing_time"":1642.2250000177883},{""page_index"":1,""viewing_time"":6749.869999999646},{""page_index"":2,""viewing_time"":1730.5000000051223}]","10123.614999989513","instructions","2","54544","0.0-2.0","SS1604609592919","","","","","","","","","","","","","","","","",""
"","1161.034999997355","practice-block","3","55915","0.0-3.0","SS1604609592919","<img src='images/practice/practice_background.jpeg' width ='500' height = '500' style='border:5px solid black'>","40","null","images/practice/practice_target.jpg","null","null","null","null","","200","1361.034999997355","","","","","",""
"","null","html-keyboard-response","4","56772","0.0-4.0","SS1604609592919","","null","","","","","","","","","","","","<img src=images/blank.png width =""500"" height = ""500"" style=""border:5px solid black"">","","",""
"","363.16000000806525","practice-block","5","57340","0.0-5.0","SS1604609592919","<img src='images/practice/practice_background.jpeg' width ='500' height = '500' style='border:5px solid black'>","40","null","images/practice/practice_target.jpg","null","null","null","null","","200","563.1600000080653","","","","","",""
"","null","html-keyboard-response","6","58476","0.0-6.0","SS1604609592919","","null","","","","","","","","","","","","<img src=images/blank.png width =""500"" height = ""500"" style=""border:5px solid black"">","","",""
"","502.20500002615154","practice-block","7","59185","0.0-7.0","SS1604609592919","<img src='images/practice/practice_deviant.jpeg' width ='500' height = '500' style='border:5px solid black'>","40","null","images/practice/practice_target.jpg","null","null","null","null","","200","702.2050000261515","","","","","",""
"","null","html-keyboard-response","8","60238","0.0-8.0","SS1604609592919","","null","","","","","","","","","","","","<img src=images/blank.png width =""500"" height = ""500"" style=""border:5px solid black"">","","",""
"","5220.135000010487","practice-block","9","65669","0.0-9.0-0.0","SS1604609592919","<img src='images/practice/practice_target.jpg' width ='500' height = '500' style='border:5px solid black'>","40","null","images/practice/practice_target.jpg","null","null","null","null","","200","5420.135000010487","yes","592.20999997342","","","",""
"","null","html-keyboard-response","10","66627","0.0-10.0","SS1604609592919","","null","","","","","","","","","","","","<img src=images/blank.png width =""500"" height = ""500"" style=""border:5px solid black"">","","",""
"","1145.9650000324473","practice-block","11","67979","0.0-11.0","SS1604609592919","<img src='images/practice/practice_background.jpeg' width ='500' height = '500' style='border:5px solid black'>","40","null","images/practice/practice_target.jpg","null","null","null","null","","200","1345.9650000324473","","","","","",""
"[{""page_index"":0,""viewing_time"":2060}]","2061","task-instructions","12","70045","0.0-12.0","SS1604609592919","","","","","","","","","","","","","","","","",""
"[{""page_index"":0,""viewing_time"":2280.864999978803},{""page_index"":1,""viewing_time"":3512.5649999827147},{""page_index"":2,""viewing_time"":1390.6650000135414}]","7184.689999965485","instructions","13","77233","0.0-13.0","SS1604609592919","","","","","","","","","","","","","","","","",""
"","null","html-keyboard-response","14","78084","0.0-14.0-0.0","SS1604609592919","","null","","","","","","","","","","","","<img src=images/blank.png width =""500"" height = ""500"" style=""border:5px solid black"">","","",""
"","546.4300000458024","stimulus-presentation","15","78851","0.0-14.0-1.0","SS1604609592919","<img src='images/complex/18.png' width ='500' height = '500' style='border:5px solid black'>","40","mixed_simple_deviant","images/complex/14.png","images/complex/18.png","images/simple/13.png,images/simple/16.png,images/simple/15.png,images/simple/4.png,images/simple/9.png,images/simple/1.png,images/simple/7.png","0","null","","200","746.4300000458024","","","","background","",""
"","null","html-keyboard-response","16","79762","0.0-14.0-0.1","SS1604609592919","","null","","","","","","","","","","","","<img src=images/blank.png width =""500"" height = ""500"" style=""border:5px solid black"">","","",""
"","345.2800000086427","stimulus-presentation","17","80316","0.0-14.0-1.1","SS1604609592919","<img src='images/simple/7.png' width ='500' height = '500' style='border:5px solid black'>","40","mixed_simple_deviant","images/complex/14.png","images/complex/18.png","images/simple/13.png,images/simple/16.png,images/simple/15.png,images/simple/4.png,images/simple/9.png,images/simple/1.png,images/simple/7.png","0","null","","200","545.2800000086427","","","","deviant","",""
"","null","html-keyboard-response","18","81291","0.0-14.0-0.2","SS1604609592919","","null","","","","","","","","","","","","<img src=images/blank.png width =""500"" height = ""500"" style=""border:5px solid black"">","","",""
"","428.0249999719672","stimulus-presentation","19","81929","0.0-14.0-1.2","SS1604609592919","<img src='images/complex/18.png' width ='500' height = '500' style='border:5px solid black'>","40","mixed_simple_deviant","images/complex/14.png","images/complex/18.png","images/simple/13.png,images/simple/16.png,images/simple/15.png,images/simple/4.png,images/simple/9.png,images/simple/1.png,images/simple/7.png","0","null","","200","628.0249999719672","","","","background","",""
"","null","html-keyboard-response","20","83171","0.0-14.0-0.3","SS1604609592919","","null","","","","","","","","","","","","<img src=images/blank.png width =""500"" height = ""500"" style=""border:5px solid black"">","","",""
"","436.73999997554347","stimulus-presentation","21","83813","0.0-14.0-1.3","SS1604609592919","<img src='images/complex/18.png' width ='500' height = '500' style='border:5px solid black'>","40","mixed_simple_deviant","images/complex/14.png","images/complex/18.png","images/simple/13.png,images/simple/16.png,images/simple/15.png,images/simple/4.png,images/simple/9.png,images/simple/1.png,images/simple/7.png","0","null","","200","636.7399999755435","","","","background","",""
"","null","html-keyboard-response","22","85100","0.0-14.0-0.4","SS1604609592919","","null","","","","","","","","","","","","<img src=images/blank.png width =""500"" height = ""500"" style=""border:5px solid black"">","","",""
"","488.5050000157207","stimulus-presentation","23","85800","0.0-14.0-1.4","SS1604609592919","<img src='images/complex/18.png' width ='500' height = '500' style='border:5px solid black'>","40","mixed_simple_deviant","images/complex/14.png","images/complex/18.png","images/simple/13.png,images/simple/16.png,images/simple/15.png,images/simple/4.png,images/simple/9.png,images/simple/1.png,images/simple/7.png","0","null","","200","688.5050000157207","","","","background","",""
"","null","html-keyboard-response","24","87109","0.0-14.0-0.5","SS1604609592919","","null","","","","","","","","","","","","<img src=images/blank.png width =""500"" height = ""500"" style=""border:5px solid black"">","","",""
"","561.6949999821372","stimulus-presentation","25","87880","0.0-14.0-1.5","SS1604609592919","<img src='images/complex/18.png' width ='500' height = '500' style='border:5px solid black'>","40","mixed_simple_deviant","images/complex/14.png","images/complex/18.png","images/simple/13.png,images/simple/16.png,images/simple/15.png,images/simple/4.png,images/simple/9.png,images/simple/1.png,images/simple/7.png","0","null","","200","761.6949999821372","","","","background","",""
"","null","html-keyboard-response","26","89096","0.0-14.0-0.6","SS1604609592919","","null","","","","","","","","","","","","<img src=images/blank.png width =""500"" height = ""500"" style=""border:5px solid black"">","","",""
"","469.5050000445917","stimulus-presentation","27","89778","0.0-14.0-1.6","SS1604609592919","<img src='images/simple/4.png' width ='500' height = '500' style='border:5px solid black'>","40","mixed_simple_deviant","images/complex/14.png","images/complex/18.png","images/simple/13.png,images/simple/16.png,images/simple/15.png,images/simple/4.png,images/simple/9.png,images/simple/1.png,images/simple/7.png","0","null","","200","669.5050000445917","","","","deviant","",""
"","null","html-keyboard-response","28","90645","0.0-14.0-0.7","SS1604609592919","","null","","","","","","","","","","","","<img src=images/blank.png width =""500"" height = ""500"" style=""border:5px solid black"">","","",""
"","448.2500000158325","stimulus-presentation","29","91306","0.0-14.0-1.7","SS1604609592919","<img src='images/complex/18.png' width ='500' height = '500' style='border:5px solid black'>","40","mixed_simple_deviant","images/complex/14.png","images/complex/18.png","images/simple/13.png,images/simple/16.png,images/simple/15.png,images/simple/4.png,images/simple/9.png,images/simple/1.png,images/simple/7.png","0","null","","200","648.2500000158325","","","","background","",""
"","null","html-keyboard-response","30","92413","0.0-14.0-0.8","SS1604609592919","","null","","","","","","","","","","","","<img src=images/blank.png width =""500"" height = ""500"" style=""border:5px solid black"">","","",""
"","447.3800000268966","stimulus-presentation","31","93067","0.0-14.0-1.8","SS1604609592919","<img src='images/complex/18.png' width ='500' height = '500' style='border:5px solid black'>","40","mixed_simple_deviant","images/complex/14.png","images/complex/18.png","images/simple/13.png,images/simple/16.png,images/simple/15.png,images/simple/4.png,images/simple/9.png,images/simple/1.png,images/simple/7.png","0","null","","200","647.3800000268966","","","","background","",""
"","null","html-keyboard-response","32","94071","0.0-14.0-0.9","SS1604609592919","","null","","","","","","","","","","","","<img src=images/blank.png width =""500"" height = ""500"" style=""border:5px solid black"">","","",""
"","382.17999995686114","stimulus-presentation","33","94673","0.0-14.0-1.9","SS1604609592919","<img src='images/complex/18.png' width ='500' height = '500' style='border:5px solid black'>","40","mixed_simple_deviant","images/complex/14.png","images/complex/18.png","images/simple/13.png,images/simple/16.png,images/simple/15.png,images/simple/4.png,images/simple/9.png,images/simple/1.png,images/simple/7.png","0","null","","200","582.1799999568611","","","","background","",""
"","null","html-keyboard-response","34","95568","0.0-14.0-0.10","SS1604609592919","","null","","","","","","","","","","","","<img src=images/blank.png width =""500"" height = ""500"" style=""border:5px solid black"">","","",""
"","614.8800000082701","stimulus-presentation","35","96401","0.0-14.0-1.10","SS1604609592919","<img src='images/complex/18.png' width ='500' height = '500' style='border:5px solid black'>","40","mixed_simple_deviant","images/complex/14.png","images/complex/18.png","images/simple/13.png,images/simple/16.png,images/simple/15.png,images/simple/4.png,images/simple/9.png,images/simple/1.png,images/simple/7.png","0","null","","200","814.8800000082701","","","","background","",""
"","null","html-keyboard-response","36","97575","0.0-14.0-0.11","SS1604609592919","","null","","","","","","","","","","","","<img src=images/blank.png width =""500"" height = ""500"" style=""border:5px solid black"">","","",""
"","413.3799999835901","stimulus-presentation","37","98199","0.0-14.0-1.11","SS1604609592919","<img src='images/complex/18.png' width ='500' height = '500' style='border:5px solid black'>","40","mixed_simple_deviant","images/complex/14.png","images/complex/18.png","images/simple/13.png,images/simple/16.png,images/simple/15.png,images/simple/4.png,images/simple/9.png,images/simple/1.png,images/simple/7.png","0","null","","200","613.3799999835901","","","","background","",""
"","null","html-keyboard-response","38","99446","0.0-14.0-0.12","SS1604609592919","","null","","","","","","","","","","","","<img src=images/blank.png width =""500"" height = ""500"" style=""border:5px solid black"">","","",""
"","375.47000002814457","stimulus-presentation","39","100035","0.0-14.0-1.12","SS1604609592919","<img src='images/complex/18.png' width ='500' height = '500' style='border:5px solid black'>","40","mixed_simple_deviant","images/complex/14.png","images/complex/18.png","images/simple/13.png,images/simple/16.png,images/simple/15.png,images/simple/4.png,images/simple/9.png,images/simple/1.png,images/simple/7.png","0","null","","200","575.4700000281446","","","","background","",""
"","null","html-keyboard-response","40","100973","0.0-14.0-0.13","SS1604609592919","","null","","","","","","","","","","","","<img src=images/blank.png width =""500"" height = ""500"" style=""border:5px solid black"">","","",""
"","4097.479999996722","stimulus-presentation","41","105284","0.0-14.0-1.13","SS1604609592919","<img src='images/complex/14.png' width ='500' height = '500' style='border:5px solid black'>","40","mixed_simple_deviant","images/complex/14.png","images/complex/18.png","images/simple/13.png,images/simple/16.png,images/simple/15.png,images/simple/4.png,images/simple/9.png,images/simple/1.png,images/simple/7.png","0","null","","200","4297.479999996722","yes","2626.5150000108406","","target","",""
"","null","html-keyboard-response","42","106488","0.0-14.0-0.14","SS1604609592919","","null","","","","","","","","","","","","<img src=images/blank.png width =""500"" height = ""500"" style=""border:5px solid black"">","","",""
"","460.0950000458397","stimulus-presentation","43","107159","0.0-14.0-1.14","SS1604609592919","<img src='images/simple/15.png' width ='500' height = '500' style='border:5px solid black'>","40","mixed_simple_deviant","images/complex/14.png","images/complex/18.png","images/simple/13.png,images/simple/16.png,images/simple/15.png,images/simple/4.png,images/simple/9.png,images/simple/1.png,images/simple/7.png","0","null","","200","660.0950000458397","","","","deviant","",""
"","null","html-keyboard-response","44","108178","0.0-14.0-0.15","SS1604609592919","","null","","","","","","","","","","","","<img src=images/blank.png width =""500"" height = ""500"" style=""border:5px solid black"">","","",""
"","1576.5550000360236","stimulus-presentation","45","109964","0.0-14.0-1.15","SS1604609592919","<img src='images/complex/14.png' width ='500' height = '500' style='border:5px solid black'>","40","mixed_simple_deviant","images/complex/14.png","images/complex/18.png","images/simple/13.png,images/simple/16.png,images/simple/15.png,images/simple/4.png,images/simple/9.png,images/simple/1.png,images/simple/7.png","0","null","","200","1776.5550000360236","yes","688.8500000350177","","target","",""
"","null","html-keyboard-response","46","111023","0.0-14.0-0.16","SS1604609592919","","null","","","","","","","","","","","","<img src=images/blank.png width =""500"" height = ""500"" style=""border:5px solid black"">","","",""
"","501.2599999899976","stimulus-presentation","47","111730","0.0-14.0-1.16","SS1604609592919","<img src='images/complex/18.png' width ='500' height = '500' style='border:5px solid black'>","40","mixed_simple_deviant","images/complex/14.png","images/complex/18.png","images/simple/13.png,images/simple/16.png,images/simple/15.png,images/simple/4.png,images/simple/9.png,images/simple/1.png,images/simple/7.png","0","null","","200","701.2599999899976","","","","background","",""
"","null","html-keyboard-response","48","112962","0.0-14.0-0.17","SS1604609592919","","null","","","","","","","","","","","","<img src=images/blank.png width =""500"" height = ""500"" style=""border:5px solid black"">","","",""
"","451.6299999668263","stimulus-presentation","49","113622","0.0-14.0-1.17","SS1604609592919","<img src='images/complex/18.png' width ='500' height = '500' style='border:5px solid black'>","40","mixed_simple_deviant","images/complex/14.png","images/complex/18.png","images/simple/13.png,images/simple/16.png,images/simple/15.png,images/simple/4.png,images/simple/9.png,images/simple/1.png,images/simple/7.png","0","null","","200","651.6299999668263","","","","background","",""
"","null","html-keyboard-response","50","114652","0.0-14.0-0.18","SS1604609592919","","null","","","","","","","","","","","","<img src=images/blank.png width =""500"" height = ""500"" style=""border:5px solid black"">","","",""
"","415.5200000386685","stimulus-presentation","51","115284","0.0-14.0-1.18","SS1604609592919","<img src='images/complex/18.png' width ='500' height = '500' style='border:5px solid black'>","40","mixed_simple_deviant","images/complex/14.png","images/complex/18.png","images/simple/13.png,images/simple/16.png,images/simple/15.png,images/simple/4.png,images/simple/9.png,images/simple/1.png,images/simple/7.png","0","null","","200","615.5200000386685","","","","background","",""
"","null","html-keyboard-response","52","116548","0.0-14.0-0.19","SS1604609592919","","null","","","","","","","","","","","","<img src=images/blank.png width =""500"" height = ""500"" style=""border:5px solid black"">","","",""
"","372.84999998519197","stimulus-presentation","53","117136","0.0-14.0-1.19","SS1604609592919","<img src='images/complex/18.png' width ='500' height = '500' style='border:5px solid black'>","40","mixed_simple_deviant","images/complex/14.png","images/complex/18.png","images/simple/13.png,images/simple/16.png,images/simple/15.png,images/simple/4.png,images/simple/9.png,images/simple/1.png,images/simple/7.png","0","null","","200","572.849999985192","","","","background","",""
"","null","html-keyboard-response","54","118220","0.0-14.0-0.20","SS1604609592919","","null","","","","","","","","","","","","<img src=images/blank.png width =""500"" height = ""500"" style=""border:5px solid black"">","","",""
"","434.19999995967373","stimulus-presentation","55","118866","0.0-14.0-1.20","SS1604609592919","<img src='images/complex/18.png' width ='500' height = '500' style='border:5px solid black'>","40","mixed_simple_deviant","images/complex/14.png","images/complex/18.png","images/simple/13.png,images/simple/16.png,images/simple/15.png,images/simple/4.png,images/simple/9.png,images/simple/1.png,images/simple/7.png","0","null","","200","634.1999999596737","","","","background","",""
"","null","html-keyboard-response","56","120140","0.0-14.0-0.21","SS1604609592919","","null","","","","","","","","","","","","<img src=images/blank.png width =""500"" height = ""500"" style=""border:5px solid black"">","","",""
"","402.26000000257045","stimulus-presentation","57","120752","0.0-14.0-1.21","SS1604609592919","<img src='images/simple/13.png' width ='500' height = '500' style='border:5px solid black'>","40","mixed_simple_deviant","images/complex/14.png","images/complex/18.png","images/simple/13.png,images/simple/16.png,images/simple/15.png,images/simple/4.png,images/simple/9.png,images/simple/1.png,images/simple/7.png","0","null","","200","602.2600000025705","","","","deviant","",""
"","null","html-keyboard-response","58","121988","0.0-14.0-0.22","SS1604609592919","","null","","","","","","","","","","","","<img src=images/blank.png width =""500"" height = ""500"" style=""border:5px solid black"">","","",""
"","433.32000001100823","stimulus-presentation","59","122632","0.0-14.0-1.22","SS1604609592919","<img src='images/complex/18.png' width ='500' height = '500' style='border:5px solid black'>","40","mixed_simple_deviant","images/complex/14.png","images/complex/18.png","images/simple/13.png,images/simple/16.png,images/simple/15.png,images/simple/4.png,images/simple/9.png,images/simple/1.png,images/simple/7.png","0","null","","200","633.3200000110082","","","","background","",""
"","null","html-keyboard-response","60","123655","0.0-14.0-0.23","SS1604609592919","","null","","","","","","","","","","","","<img src=images/blank.png width =""500"" height = ""500"" style=""border:5px solid black"">","","",""
"","491.3149999920279","stimulus-presentation","61","124358","0.0-14.0-1.23","SS1604609592919","<img src='images/complex/18.png' width ='500' height = '500' style='border:5px solid black'>","40","mixed_simple_deviant","images/complex/14.png","images/complex/18.png","images/simple/13.png,images/simple/16.png,images/simple/15.png,images/simple/4.png,images/simple/9.png,images/simple/1.png,images/simple/7.png","0","null","","200","691.3149999920279","","","","background","",""
"","null","html-keyboard-response","62","125360","0.0-14.0-0.24","SS1604609592919","","null","","","","","","","","","","","","<img src=images/blank.png width =""500"" height = ""500"" style=""border:5px solid black"">","","",""
"","1606.2399999937043","stimulus-presentation","63","127180","0.0-14.0-1.24","SS1604609592919","<img src='images/complex/14.png' width ='500' height = '500' style='border:5px solid black'>","40","mixed_simple_deviant","images/complex/14.png","images/complex/18.png","images/simple/13.png,images/simple/16.png,images/simple/15.png,images/simple/4.png,images/simple/9.png,images/simple/1.png,images/simple/7.png","0","null","","200","1806.2399999937043","yes","720.1650000060908","","target","",""
"","null","html-keyboard-response","64","128166","0.0-14.0-0.25","SS1604609592919","","null","","","","","","","","","","","","<img src=images/blank.png width =""500"" height = ""500"" style=""border:5px solid black"">","","",""
"","496.0900000296533","stimulus-presentation","65","128880","0.0-14.0-1.25","SS1604609592919","<img src='images/complex/18.png' width ='500' height = '500' style='border:5px solid black'>","40","mixed_simple_deviant","images/complex/14.png","images/complex/18.png","images/simple/13.png,images/simple/16.png,images/simple/15.png,images/simple/4.png,images/simple/9.png,images/simple/1.png,images/simple/7.png","0","null","","200","696.0900000296533","","","","background","",""
"","null","html-keyboard-response","66","129838","0.0-14.0-0.26","SS1604609592919","","null","","","","","","","","","","","","<img src=images/blank.png width =""500"" height = ""500"" style=""border:5px solid black"">","","",""
"","550.2349999733269","stimulus-presentation","67","130596","0.0-14.0-1.26","SS1604609592919","<img src='images/complex/18.png' width ='500' height = '500' style='border:5px solid black'>","40","mixed_simple_deviant","images/complex/14.png","images/complex/18.png","images/simple/13.png,images/simple/16.png,images/simple/15.png,images/simple/4.png,images/simple/9.png,images/simple/1.png,images/simple/7.png","0","null","","200","750.2349999733269","","","","background","",""
"","null","html-keyboard-response","68","131534","0.0-14.0-0.27","SS1604609592919","","null","","","","","","","","","","","","<img src=images/blank.png width =""500"" height = ""500"" style=""border:5px solid black"">","","",""
"","404.05000001192093","stimulus-presentation","69","132155","0.0-14.0-1.27","SS1604609592919","<img src='images/complex/18.png' width ='500' height = '500' style='border:5px solid black'>","40","mixed_simple_deviant","images/complex/14.png","images/complex/18.png","images/simple/13.png,images/simple/16.png,images/simple/15.png,images/simple/4.png,images/simple/9.png,images/simple/1.png,images/simple/7.png","0","null","","200","604.0500000119209","","","","background","",""
"","null","html-keyboard-response","70","133248","0.0-14.0-0.28","SS1604609592919","","null","","","","","","","","","","","","<img src=images/blank.png width =""500"" height = ""500"" style=""border:5px solid black"">","","",""
"","423.87500003678724","stimulus-presentation","71","133881","0.0-14.0-1.28","SS1604609592919","<img src='images/complex/18.png' width ='500' height = '500' style='border:5px solid black'>","40","mixed_simple_deviant","images/complex/14.png","images/complex/18.png","images/simple/13.png,images/simple/16.png,images/simple/15.png,images/simple/4.png,images/simple/9.png,images/simple/1.png,images/simple/7.png","0","null","","200","623.8750000367872","","","","background","",""
"","null","html-keyboard-response","72","135095","0.0-14.0-0.29","SS1604609592919","","null","","","","","","","","","","","","<img src=images/blank.png width =""500"" height = ""500"" style=""border:5px solid black"">","","",""
"","440.50999998580664","stimulus-presentation","73","135742","0.0-14.0-1.29","SS1604609592919","<img src='images/complex/18.png' width ='500' height = '500' style='border:5px solid black'>","40","mixed_simple_deviant","images/complex/14.png","images/complex/18.png","images/simple/13.png,images/simple/16.png,images/simple/15.png,images/simple/4.png,images/simple/9.png,images/simple/1.png,images/simple/7.png","0","null","","200","640.5099999858066","","","","background","",""
"","null","html-keyboard-response","74","136793","0.0-14.0-0.30","SS1604609592919","","null","","","","","","","","","","","","<img src=images/blank.png width =""500"" height = ""500"" style=""border:5px solid black"">","","",""
"","2789.1400000080466","stimulus-presentation","75","139790","0.0-14.0-1.30","SS1604609592919","<img src='images/complex/14.png' width ='500' height = '500' style='border:5px solid black'>","40","mixed_simple_deviant","images/complex/14.png","images/complex/18.png","images/simple/13.png,images/simple/16.png,images/simple/15.png,images/simple/4.png,images/simple/9.png,images/simple/1.png,images/simple/7.png","0","null","","200","2989.1400000080466","yes","1047.6349999662489","","target","",""
"","null","html-keyboard-response","76","140714","0.0-14.0-0.31","SS1604609592919","","null","","","","","","","","","","","","<img src=images/blank.png width =""500"" height = ""500"" style=""border:5px solid black"">","","",""
"","623.6900000367314","stimulus-presentation","77","141558","0.0-14.0-1.31","SS1604609592919","<img src='images/complex/18.png' width ='500' height = '500' style='border:5px solid black'>","40","mixed_simple_deviant","images/complex/14.png","images/complex/18.png","images/simple/13.png,images/simple/16.png,images/simple/15.png,images/simple/4.png,images/simple/9.png,images/simple/1.png,images/simple/7.png","0","null","","200","823.6900000367314","","","","background","",""
"","null","html-keyboard-response","78","142379","0.0-14.0-0.32","SS1604609592919","","null","","","","","","","","","","","","<img src=images/blank.png width =""500"" height = ""500"" style=""border:5px solid black"">","","",""
"","601.3099999981932","stimulus-presentation","79","143195","0.0-14.0-1.32","SS1604609592919","<img src='images/complex/18.png' width ='500' height = '500' style='border:5px solid black'>","40","mixed_simple_deviant","images/complex/14.png","images/complex/18.png","images/simple/13.png,images/simple/16.png,images/simple/15.png,images/simple/4.png,images/simple/9.png,images/simple/1.png,images/simple/7.png","0","null","","200","801.3099999981932","","","","background","",""
"","null","html-keyboard-response","80","144355","0.0-14.0-0.33","SS1604609592919","","null","","","","","","","","","","","","<img src=images/blank.png width =""500"" height = ""500"" style=""border:5px solid black"">","","",""
"","592.0100000221282","stimulus-presentation","81","145159","0.0-14.0-1.33","SS1604609592919","<img src='images/complex/18.png' width ='500' height = '500' style='border:5px solid black'>","40","mixed_simple_deviant","images/complex/14.png","images/complex/18.png","images/simple/13.png,images/simple/16.png,images/simple/15.png,images/simple/4.png,images/simple/9.png,images/simple/1.png,images/simple/7.png","0","null","","200","792.0100000221282","","","","background","",""
"","null","html-keyboard-response","82","146073","0.0-14.0-0.34","SS1604609592919","","null","","","","","","","","","","","","<img src=images/blank.png width =""500"" height = ""500"" style=""border:5px solid black"">","","",""
"","759.0150000178255","stimulus-presentation","83","147043","0.0-14.0-1.34","SS1604609592919","<img src='images/complex/18.png' width ='500' height = '500' style='border:5px solid black'>","40","mixed_simple_deviant","images/complex/14.png","images/complex/18.png","images/simple/13.png,images/simple/16.png,images/simple/15.png,images/simple/4.png,images/simple/9.png,images/simple/1.png,images/simple/7.png","0","null","","200","959.0150000178255","","","","background","",""
"","null","html-keyboard-response","84","148179","0.0-14.0-0.35","SS1604609592919","","null","","","","","","","","","","","","<img src=images/blank.png width =""500"" height = ""500"" style=""border:5px solid black"">","","",""
"","548.7100000027567","stimulus-presentation","85","148942","0.0-14.0-1.35","SS1604609592919","<img src='images/simple/1.png' width ='500' height = '500' style='border:5px solid black'>","40","mixed_simple_deviant","images/complex/14.png","images/complex/18.png","images/simple/13.png,images/simple/16.png,images/simple/15.png,images/simple/4.png,images/simple/9.png,images/simple/1.png,images/simple/7.png","0","null","","200","748.7100000027567","","","","deviant","",""
"","null","html-keyboard-response","86","149986","0.0-14.0-0.36","SS1604609592919","","null","","","","","","","","","","","","<img src=images/blank.png width =""500"" height = ""500"" style=""border:5px solid black"">","","",""
"","560.5849999701604","stimulus-presentation","87","150756","0.0-14.0-1.36","SS1604609592919","<img src='images/complex/18.png' width ='500' height = '500' style='border:5px solid black'>","40","mixed_simple_deviant","images/complex/14.png","images/complex/18.png","images/simple/13.png,images/simple/16.png,images/simple/15.png,images/simple/4.png,images/simple/9.png,images/simple/1.png,images/simple/7.png","0","null","","200","760.5849999701604","","","","background","",""
"","null","html-keyboard-response","88","151660","0.0-14.0-0.37","SS1604609592919","","null","","","","","","","","","","","","<img src=images/blank.png width =""500"" height = ""500"" style=""border:5px solid black"">","","",""
"","411.6199999698438","stimulus-presentation","89","152287","0.0-14.0-1.37","SS1604609592919","<img src='images/complex/18.png' width ='500' height = '500' style='border:5px solid black'>","40","mixed_simple_deviant","images/complex/14.png","images/complex/18.png","images/simple/13.png,images/simple/16.png,images/simple/15.png,images/simple/4.png,images/simple/9.png,images/simple/1.png,images/simple/7.png","0","null","","200","611.6199999698438","","","","background","",""
"","null","html-keyboard-response","90","153500","0.0-14.0-0.38","SS1604609592919","","null","","","","","","","","","","","","<img src=images/blank.png width =""500"" height = ""500"" style=""border:5px solid black"">","","",""
"","1588.4150000056252","stimulus-presentation","91","155307","0.0-14.0-1.38","SS1604609592919","<img src='images/complex/14.png' width ='500' height = '500' style='border:5px solid black'>","40","mixed_simple_deviant","images/complex/14.png","images/complex/18.png","images/simple/13.png,images/simple/16.png,images/simple/15.png,images/simple/4.png,images/simple/9.png,images/simple/1.png,images/simple/7.png","0","null","","200","1788.4150000056252","yes","564.6450000349432","","target","",""
"","null","html-keyboard-response","92","156293","0.0-14.0-0.39","SS1604609592919","","null","","","","","","","","","","","","<img src=images/blank.png width =""500"" height = ""500"" style=""border:5px solid black"">","","",""
"","472.8099999483675","stimulus-presentation","93","156976","0.0-14.0-1.39","SS1604609592919","<img src='images/complex/18.png' width ='500' height = '500' style='border:5px solid black'>","40","mixed_simple_deviant","images/complex/14.png","images/complex/18.png","images/simple/13.png,images/simple/16.png,images/simple/15.png,images/simple/4.png,images/simple/9.png,images/simple/1.png,images/simple/7.png","0","null","","200","672.8099999483675","","","","background","",""
"","null","html-keyboard-response","94","157827","0.0-14.0-0.40","SS1604609592919","","null","","","","","","","","","","","","<img src=images/blank.png width =""500"" height = ""500"" style=""border:5px solid black"">","","",""
"","493.0999999633059","stimulus-presentation","95","158531","0.0-14.0-1.40","SS1604609592919","<img src='images/complex/18.png' width ='500' height = '500' style='border:5px solid black'>","40","mixed_simple_deviant","images/complex/14.png","images/complex/18.png","images/simple/13.png,images/simple/16.png,images/simple/15.png,images/simple/4.png,images/simple/9.png,images/simple/1.png,images/simple/7.png","0","null","","200","693.0999999633059","","","","background","",""
"","null","html-keyboard-response","96","159443","0.0-14.0-0.41","SS1604609592919","","null","","","","","","","","","","","","<img src=images/blank.png width =""500"" height = ""500"" style=""border:5px solid black"">","","",""
"","397.5400000344962","stimulus-presentation","97","160061","0.0-14.0-1.41","SS1604609592919","<img src='images/complex/18.png' width ='500' height = '500' style='border:5px solid black'>","40","mixed_simple_deviant","images/complex/14.png","images/complex/18.png","images/simple/13.png,images/simple/16.png,images/simple/15.png,images/simple/4.png,images/simple/9.png,images/simple/1.png,images/simple/7.png","0","null","","200","597.5400000344962","","","","background","",""
"","null","html-keyboard-response","98","160910","0.0-14.0-0.42","SS1604609592919","","null","","","","","","","","","","","","<img src=images/blank.png width =""500"" height = ""500"" style=""border:5px solid black"">","","",""
"","673.4849999775179","stimulus-presentation","99","161800","0.0-14.0-1.42","SS1604609592919","<img src='images/simple/9.png' width ='500' height = '500' style='border:5px solid black'>","40","mixed_simple_deviant","images/complex/14.png","images/complex/18.png","images/simple/13.png,images/simple/16.png,images/simple/15.png,images/simple/4.png,images/simple/9.png,images/simple/1.png,images/simple/7.png","0","null","","200","873.4849999775179","","","","deviant","",""
"","null","html-keyboard-response","100","162910","0.0-14.0-0.43","SS1604609592919","","null","","","","","","","","","","","","<img src=images/blank.png width =""500"" height = ""500"" style=""border:5px solid black"">","","",""
"","376.9249999895692","stimulus-presentation","101","163505","0.0-14.0-1.43","SS1604609592919","<img src='images/complex/18.png' width ='500' height = '500' style='border:5px solid black'>","40","mixed_simple_deviant","images/complex/14.png","images/complex/18.png","images/simple/13.png,images/simple/16.png,images/simple/15.png,images/simple/4.png,images/simple/9.png,images/simple/1.png,images/simple/7.png","0","null","","200","576.9249999895692","","","","background","",""
"","null","html-keyboard-response","102","164695","0.0-14.0-0.44","SS1604609592919","","null","","","","","","","","","","","","<img src=images/blank.png width =""500"" height = ""500"" style=""border:5px solid black"">","","",""
"","352.88000002037734","stimulus-presentation","103","165255","0.0-14.0-1.44","SS1604609592919","<img src='images/complex/18.png' width ='500' height = '500' style='border:5px solid black'>","40","mixed_simple_deviant","images/complex/14.png","images/complex/18.png","images/simple/13.png,images/simple/16.png,images/simple/15.png,images/simple/4.png,images/simple/9.png,images/simple/1.png,images/simple/7.png","0","null","","200","552.8800000203773","","","","background","",""
"","null","html-keyboard-response","104","166439","0.0-14.0-0.45","SS1604609592919","","null","","","","","","","","","","","","<img src=images/blank.png width =""500"" height = ""500"" style=""border:5px solid black"">","","",""
"","1378.5949999582954","stimulus-presentation","105","168031","0.0-14.0-1.45","SS1604609592919","<img src='images/complex/14.png' width ='500' height = '500' style='border:5px solid black'>","40","mixed_simple_deviant","images/complex/14.png","images/complex/18.png","images/simple/13.png,images/simple/16.png,images/simple/15.png,images/simple/4.png,images/simple/9.png,images/simple/1.png,images/simple/7.png","0","null","","200","1578.5949999582954","yes","560.1899999892339","","target","",""
"","null","html-keyboard-response","106","169009","0.0-14.0-0.46","SS1604609592919","","null","","","","","","","","","","","","<img src=images/blank.png width =""500"" height = ""500"" style=""border:5px solid black"">","","",""
"","360.3599999914877","stimulus-presentation","107","169584","0.0-14.0-1.46","SS1604609592919","<img src='images/simple/16.png' width ='500' height = '500' style='border:5px solid black'>","40","mixed_simple_deviant","images/complex/14.png","images/complex/18.png","images/simple/13.png,images/simple/16.png,images/simple/15.png,images/simple/4.png,images/simple/9.png,images/simple/1.png,images/simple/7.png","0","null","","200","560.3599999914877","","","","deviant","",""
"","null","html-keyboard-response","108","170688","0.0-14.0-0.47","SS1604609592919","","null","","","","","","","","","","","","<img src=images/blank.png width =""500"" height = ""500"" style=""border:5px solid black"">","","",""
"","649.3250000057742","stimulus-presentation","109","171544","0.0-14.0-1.47","SS1604609592919","<img src='images/complex/18.png' width ='500' height = '500' style='border:5px solid black'>","40","mixed_simple_deviant","images/complex/14.png","images/complex/18.png","images/simple/13.png,images/simple/16.png,images/simple/15.png,images/simple/4.png,images/simple/9.png,images/simple/1.png,images/simple/7.png","0","null","","200","849.3250000057742","","","","background","",""
"","null","html-keyboard-response","110","172495","0.0-14.0-0.48","SS1604609592919","","null","","","","","","","","","","","","<img src=images/blank.png width =""500"" height = ""500"" style=""border:5px solid black"">","","",""
"","2240.5349999899045","stimulus-presentation","111","174945","0.0-14.0-1.48","SS1604609592919","<img src='images/complex/14.png' width ='500' height = '500' style='border:5px solid black'>","40","mixed_simple_deviant","images/complex/14.png","images/complex/18.png","images/simple/13.png,images/simple/16.png,images/simple/15.png,images/simple/4.png,images/simple/9.png,images/simple/1.png,images/simple/7.png","0","null","","200","2440.5349999899045","yes","516.2600000039674","","target","",""
"[{""page_index"":0,""viewing_time"":255915}]","255915","task-instructions","112","430868","0.0-15.0","SS1604609592919","","","","","","","","","","","","","","","","",""
"[{""page_index"":0,""viewing_time"":3724.765000049956},{""page_index"":1,""viewing_time"":2562.5449999934062},{""page_index"":2,""viewing_time"":1519.609999959357}]","7808.4750000271015","instructions","113","438683","0.0-16.0","SS1604609592919","","","","","","","","","","","","","","","","",""
"","null","html-keyboard-response","114","439973","0.0-17.0-0.0","SS1604609592919","","null","","","","","","","","","","","","<img src=images/blank.png width =""500"" height = ""500"" style=""border:5px solid black"">","","",""
"","1689.2850000294857","stimulus-presentation","115","441875","0.0-17.0-1.0","SS1604609592919","<img src='images/simple/5.png' width ='500' height = '500' style='border:5px solid black'>","40","all_simple","images/simple/5.png","images/simple/2.png","images/simple/10.png,images/simple/14.png,images/simple/18.png,images/simple/11.png,images/simple/3.png,images/simple/12.png,images/simple/8.png","1","null","","200","1889.2850000294857","yes","913.6400000425056","","target","",""
"","null","html-keyboard-response","116","442934","0.0-17.0-0.1","SS1604609592919","","null","","","","","","","","","","","","<img src=images/blank.png width =""500"" height = ""500"" style=""border:5px solid black"">","","",""
"","955.4050000151619","stimulus-presentation","117","444099","0.0-17.0-1.1","SS1604609592919","<img src='images/simple/2.png' width ='500' height = '500' style='border:5px solid black'>","40","all_simple","images/simple/5.png","images/simple/2.png","images/simple/10.png,images/simple/14.png,images/simple/18.png,images/simple/11.png,images/simple/3.png,images/simple/12.png,images/simple/8.png","1","null","","200","1155.405000015162","","","","background","",""
"","null","html-keyboard-response","118","445363","0.0-17.0-0.2","SS1604609592919","","null","","","","","","","","","","","","<img src=images/blank.png width =""500"" height = ""500"" style=""border:5px solid black"">","","",""
"","552.1849999786355","stimulus-presentation","119","446128","0.0-17.0-1.2","SS1604609592919","<img src='images/simple/2.png' width ='500' height = '500' style='border:5px solid black'>","40","all_simple","images/simple/5.png","images/simple/2.png","images/simple/10.png,images/simple/14.png,images/simple/18.png,images/simple/11.png,images/simple/3.png,images/simple/12.png,images/simple/8.png","1","null","","200","752.1849999786355","","","","background","",""
"","null","html-keyboard-response","120","447001","0.0-17.0-0.3","SS1604609592919","","null","","","","","","","","","","","","<img src=images/blank.png width =""500"" height = ""500"" style=""border:5px solid black"">","","",""
"","508.73999996110797","stimulus-presentation","121","447719","0.0-17.0-1.3","SS1604609592919","<img src='images/simple/2.png' width ='500' height = '500' style='border:5px solid black'>","40","all_simple","images/simple/5.png","images/simple/2.png","images/simple/10.png,images/simple/14.png,images/simple/18.png,images/simple/11.png,images/simple/3.png,images/simple/12.png,images/simple/8.png","1","null","","200","708.739999961108","","","","background","",""
"","null","html-keyboard-response","122","448925","0.0-17.0-0.4","SS1604609592919","","null","","","","","","","","","","","","<img src=images/blank.png width =""500"" height = ""500"" style=""border:5px solid black"">","","",""
"","274.0600000252016","stimulus-presentation","123","449420","0.0-17.0-1.4","SS1604609592919","<img src='images/simple/2.png' width ='500' height = '500' style='border:5px solid black'>","40","all_simple","images/simple/5.png","images/simple/2.png","images/simple/10.png,images/simple/14.png,images/simple/18.png,images/simple/11.png,images/simple/3.png,images/simple/12.png,images/simple/8.png","1","null","","200","474.0600000252016","","","","background","",""
"","null","html-keyboard-response","124","450676","0.0-17.0-0.5","SS1604609592919","","null","","","","","","","","","","","","<img src=images/blank.png width =""500"" height = ""500"" style=""border:5px solid black"">","","",""
"","401.40999999130145","stimulus-presentation","125","451296","0.0-17.0-1.5","SS1604609592919","<img src='images/simple/2.png' width ='500' height = '500' style='border:5px solid black'>","40","all_simple","images/simple/5.png","images/simple/2.png","images/simple/10.png,images/simple/14.png,images/simple/18.png,images/simple/11.png,images/simple/3.png,images/simple/12.png,images/simple/8.png","1","null","","200","601.4099999913014","","","","background","",""
"","null","html-keyboard-response","126","452389","0.0-17.0-0.6","SS1604609592919","","null","","","","","","","","","","","","<img src=images/blank.png width =""500"" height = ""500"" style=""border:5px solid black"">","","",""
"","684.8400000017136","stimulus-presentation","127","453295","0.0-17.0-1.6","SS1604609592919","<img src='images/simple/10.png' width ='500' height = '500' style='border:5px solid black'>","40","all_simple","images/simple/5.png","images/simple/2.png","images/simple/10.png,images/simple/14.png,images/simple/18.png,images/simple/11.png,images/simple/3.png,images/simple/12.png,images/simple/8.png","1","null","","200","884.8400000017136","","","","deviant","",""
"","null","html-keyboard-response","128","454166","0.0-17.0-0.7","SS1604609592919","","null","","","","","","","","","","","","<img src=images/blank.png width =""500"" height = ""500"" style=""border:5px solid black"">","","",""
"","641.7750000255182","stimulus-presentation","129","455024","0.0-17.0-1.7","SS1604609592919","<img src='images/simple/2.png' width ='500' height = '500' style='border:5px solid black'>","40","all_simple","images/simple/5.png","images/simple/2.png","images/simple/10.png,images/simple/14.png,images/simple/18.png,images/simple/11.png,images/simple/3.png,images/simple/12.png,images/simple/8.png","1","null","","200","841.7750000255182","","","","background","",""
"","null","html-keyboard-response","130","455918","0.0-17.0-0.8","SS1604609592919","","null","","","","","","","","","","","","<img src=images/blank.png width =""500"" height = ""500"" style=""border:5px solid black"">","","",""
"","500.1850000116974","stimulus-presentation","131","456629","0.0-17.0-1.8","SS1604609592919","<img src='images/simple/2.png' width ='500' height = '500' style='border:5px solid black'>","40","all_simple","images/simple/5.png","images/simple/2.png","images/simple/10.png,images/simple/14.png,images/simple/18.png,images/simple/11.png,images/simple/3.png,images/simple/12.png,images/simple/8.png","1","null","","200","700.1850000116974","","","","background","",""
"","null","html-keyboard-response","132","457639","0.0-17.0-0.9","SS1604609592919","","null","","","","","","","","","","","","<img src=images/blank.png width =""500"" height = ""500"" style=""border:5px solid black"">","","",""
"","3127.89000000339","stimulus-presentation","133","460982","0.0-17.0-1.9","SS1604609592919","<img src='images/simple/5.png' width ='500' height = '500' style='border:5px solid black'>","40","all_simple","images/simple/5.png","images/simple/2.png","images/simple/10.png,images/simple/14.png,images/simple/18.png,images/simple/11.png,images/simple/3.png,images/simple/12.png,images/simple/8.png","1","null","","200","3327.89000000339","yes","965.825000021141","","target","",""
"","null","html-keyboard-response","134","461855","0.0-17.0-0.10","SS1604609592919","","null","","","","","","","","","","","","<img src=images/blank.png width =""500"" height = ""500"" style=""border:5px solid black"">","","",""
"","451.9599999766797","stimulus-presentation","135","462524","0.0-17.0-1.10","SS1604609592919","<img src='images/simple/2.png' width ='500' height = '500' style='border:5px solid black'>","40","all_simple","images/simple/5.png","images/simple/2.png","images/simple/10.png,images/simple/14.png,images/simple/18.png,images/simple/11.png,images/simple/3.png,images/simple/12.png,images/simple/8.png","1","null","","200","651.9599999766797","","","","background","",""
"","null","html-keyboard-response","136","463463","0.0-17.0-0.11","SS1604609592919","","null","","","","","","","","","","","","<img src=images/blank.png width =""500"" height = ""500"" style=""border:5px solid black"">","","",""
"","366.4800000260584","stimulus-presentation","137","464037","0.0-17.0-1.11","SS1604609592919","<img src='images/simple/2.png' width ='500' height = '500' style='border:5px solid black'>","40","all_simple","images/simple/5.png","images/simple/2.png","images/simple/10.png,images/simple/14.png,images/simple/18.png,images/simple/11.png,images/simple/3.png,images/simple/12.png,images/simple/8.png","1","null","","200","566.4800000260584","","","","background","",""
"","null","html-keyboard-response","138","465057","0.0-17.0-0.12","SS1604609592919","","null","","","","","","","","","","","","<img src=images/blank.png width =""500"" height = ""500"" style=""border:5px solid black"">","","",""
"","331.8600000347942","stimulus-presentation","139","465619","0.0-17.0-1.12","SS1604609592919","<img src='images/simple/2.png' width ='500' height = '500' style='border:5px solid black'>","40","all_simple","images/simple/5.png","images/simple/2.png","images/simple/10.png,images/simple/14.png,images/simple/18.png,images/simple/11.png,images/simple/3.png,images/simple/12.png,images/simple/8.png","1","null","","200","531.8600000347942","","","","background","",""
"","null","html-keyboard-response","140","466881","0.0-17.0-0.13","SS1604609592919","","null","","","","","","","","","","","","<img src=images/blank.png width =""500"" height = ""500"" style=""border:5px solid black"">","","",""
"","623.8799999700859","stimulus-presentation","141","467728","0.0-17.0-1.13","SS1604609592919","<img src='images/simple/18.png' width ='500' height = '500' style='border:5px solid black'>","40","all_simple","images/simple/5.png","images/simple/2.png","images/simple/10.png,images/simple/14.png,images/simple/18.png,images/simple/11.png,images/simple/3.png,images/simple/12.png,images/simple/8.png","1","null","","200","823.8799999700859","","","","deviant","",""
"","null","html-keyboard-response","142","469011","0.0-17.0-0.14","SS1604609592919","","null","","","","","","","","","","","","<img src=images/blank.png width =""500"" height = ""500"" style=""border:5px solid black"">","","",""
"","1667.090000002645","stimulus-presentation","143","470896","0.0-17.0-1.14","SS1604609592919","<img src='images/simple/5.png' width ='500' height = '500' style='border:5px solid black'>","40","all_simple","images/simple/5.png","images/simple/2.png","images/simple/10.png,images/simple/14.png,images/simple/18.png,images/simple/11.png,images/simple/3.png,images/simple/12.png,images/simple/8.png","1","null","","200","1867.090000002645","yes","572.7250000345521","","target","",""
"","null","html-keyboard-response","144","471940","0.0-17.0-0.15","SS1604609592919","","null","","","","","","","","","","","","<img src=images/blank.png width =""500"" height = ""500"" style=""border:5px solid black"">","","",""
"","501.43999996362254","stimulus-presentation","145","472650","0.0-17.0-1.15","SS1604609592919","<img src='images/simple/2.png' width ='500' height = '500' style='border:5px solid black'>","40","all_simple","images/simple/5.png","images/simple/2.png","images/simple/10.png,images/simple/14.png,images/simple/18.png,images/simple/11.png,images/simple/3.png,images/simple/12.png,images/simple/8.png","1","null","","200","701.4399999636225","","","","background","",""
"","null","html-keyboard-response","146","473667","0.0-17.0-0.16","SS1604609592919","","null","","","","","","","","","","","","<img src=images/blank.png width =""500"" height = ""500"" style=""border:5px solid black"">","","",""
"","248.32499999320135","stimulus-presentation","147","474128","0.0-17.0-1.16","SS1604609592919","<img src='images/simple/2.png' width ='500' height = '500' style='border:5px solid black'>","40","all_simple","images/simple/5.png","images/simple/2.png","images/simple/10.png,images/simple/14.png,images/simple/18.png,images/simple/11.png,images/simple/3.png,images/simple/12.png,images/simple/8.png","1","null","","200","448.32499999320135","","","","background","",""
"","null","html-keyboard-response","148","475396","0.0-17.0-0.17","SS1604609592919","","null","","","","","","","","","","","","<img src=images/blank.png width =""500"" height = ""500"" style=""border:5px solid black"">","","",""
"","463.76000001328066","stimulus-presentation","149","476069","0.0-17.0-1.17","SS1604609592919","<img src='images/simple/2.png' width ='500' height = '500' style='border:5px solid black'>","40","all_simple","images/simple/5.png","images/simple/2.png","images/simple/10.png,images/simple/14.png,images/simple/18.png,images/simple/11.png,images/simple/3.png,images/simple/12.png,images/simple/8.png","1","null","","200","663.7600000132807","","","","background","",""
"","null","html-keyboard-response","150","477044","0.0-17.0-0.18","SS1604609592919","","null","","","","","","","","","","","","<img src=images/blank.png width =""500"" height = ""500"" style=""border:5px solid black"">","","",""
"","508.95499996840954","stimulus-presentation","151","477765","0.0-17.0-1.18","SS1604609592919","<img src='images/simple/2.png' width ='500' height = '500' style='border:5px solid black'>","40","all_simple","images/simple/5.png","images/simple/2.png","images/simple/10.png,images/simple/14.png,images/simple/18.png,images/simple/11.png,images/simple/3.png,images/simple/12.png,images/simple/8.png","1","null","","200","708.9549999684095","","","","background","",""
"","null","html-keyboard-response","152","478797","0.0-17.0-0.19","SS1604609592919","","null","","","","","","","","","","","","<img src=images/blank.png width =""500"" height = ""500"" style=""border:5px solid black"">","","",""
"","930.5000000167638","stimulus-presentation","153","479937","0.0-17.0-1.19","SS1604609592919","<img src='images/simple/11.png' width ='500' height = '500' style='border:5px solid black'>","40","all_simple","images/simple/5.png","images/simple/2.png","images/simple/10.png,images/simple/14.png,images/simple/18.png,images/simple/11.png,images/simple/3.png,images/simple/12.png,images/simple/8.png","1","null","","200","1130.5000000167638","","","","deviant","",""
"","null","html-keyboard-response","154","481183","0.0-17.0-0.20","SS1604609592919","","null","","","","","","","","","","","","<img src=images/blank.png width =""500"" height = ""500"" style=""border:5px solid black"">","","",""
"","582.0750000420958","stimulus-presentation","155","481987","0.0-17.0-1.20","SS1604609592919","<img src='images/simple/2.png' width ='500' height = '500' style='border:5px solid black'>","40","all_simple","images/simple/5.png","images/simple/2.png","images/simple/10.png,images/simple/14.png,images/simple/18.png,images/simple/11.png,images/simple/3.png,images/simple/12.png,images/simple/8.png","1","null","","200","782.0750000420958","","","","background","",""
"","null","html-keyboard-response","156","483255","0.0-17.0-0.21","SS1604609592919","","null","","","","","","","","","","","","<img src=images/blank.png width =""500"" height = ""500"" style=""border:5px solid black"">","","",""
"","542.5999999861233","stimulus-presentation","157","484014","0.0-17.0-1.21","SS1604609592919","<img src='images/simple/2.png' width ='500' height = '500' style='border:5px solid black'>","40","all_simple","images/simple/5.png","images/simple/2.png","images/simple/10.png,images/simple/14.png,images/simple/18.png,images/simple/11.png,images/simple/3.png,images/simple/12.png,images/simple/8.png","1","null","","200","742.5999999861233","","","","background","",""
"","null","html-keyboard-response","158","485161","0.0-17.0-0.22","SS1604609592919","","null","","","","","","","","","","","","<img src=images/blank.png width =""500"" height = ""500"" style=""border:5px solid black"">","","",""
"","433.1850000307895","stimulus-presentation","159","485814","0.0-17.0-1.22","SS1604609592919","<img src='images/simple/2.png' width ='500' height = '500' style='border:5px solid black'>","40","all_simple","images/simple/5.png","images/simple/2.png","images/simple/10.png,images/simple/14.png,images/simple/18.png,images/simple/11.png,images/simple/3.png,images/simple/12.png,images/simple/8.png","1","null","","200","633.1850000307895","","","","background","",""
"","null","html-keyboard-response","160","486727","0.0-17.0-0.23","SS1604609592919","","null","","","","","","","","","","","","<img src=images/blank.png width =""500"" height = ""500"" style=""border:5px solid black"">","","",""
"","433.3699999842793","stimulus-presentation","161","487374","0.0-17.0-1.23","SS1604609592919","<img src='images/simple/2.png' width ='500' height = '500' style='border:5px solid black'>","40","all_simple","images/simple/5.png","images/simple/2.png","images/simple/10.png,images/simple/14.png,images/simple/18.png,images/simple/11.png,images/simple/3.png,images/simple/12.png,images/simple/8.png","1","null","","200","633.3699999842793","","","","background","",""
"","null","html-keyboard-response","162","488305","0.0-17.0-0.24","SS1604609592919","","null","","","","","","","","","","","","<img src=images/blank.png width =""500"" height = ""500"" style=""border:5px solid black"">","","",""
"","432.45999998180196","stimulus-presentation","163","488961","0.0-17.0-1.24","SS1604609592919","<img src='images/simple/2.png' width ='500' height = '500' style='border:5px solid black'>","40","all_simple","images/simple/5.png","images/simple/2.png","images/simple/10.png,images/simple/14.png,images/simple/18.png,images/simple/11.png,images/simple/3.png,images/simple/12.png,images/simple/8.png","1","null","","200","632.459999981802","","","","background","",""
"","null","html-keyboard-response","164","489792","0.0-17.0-0.25","SS1604609592919","","null","","","","","","","","","","","","<img src=images/blank.png width =""500"" height = ""500"" style=""border:5px solid black"">","","",""
"","1436.5600000019185","stimulus-presentation","165","491440","0.0-17.0-1.25","SS1604609592919","<img src='images/simple/5.png' width ='500' height = '500' style='border:5px solid black'>","40","all_simple","images/simple/5.png","images/simple/2.png","images/simple/10.png,images/simple/14.png,images/simple/18.png,images/simple/11.png,images/simple/3.png,images/simple/12.png,images/simple/8.png","1","null","","200","1636.5600000019185","yes","515.1399999740534","","target","",""
"","null","html-keyboard-response","166","492492","0.0-17.0-0.26","SS1604609592919","","null","","","","","","","","","","","","<img src=images/blank.png width =""500"" height = ""500"" style=""border:5px solid black"">","","",""
"","2183.919999981299","stimulus-presentation","167","494888","0.0-17.0-1.26","SS1604609592919","<img src='images/simple/5.png' width ='500' height = '500' style='border:5px solid black'>","40","all_simple","images/simple/5.png","images/simple/2.png","images/simple/10.png,images/simple/14.png,images/simple/18.png,images/simple/11.png,images/simple/3.png,images/simple/12.png,images/simple/8.png","1","null","","200","2383.919999981299","yes","576.1150000034831","","target","",""
"","null","html-keyboard-response","168","495994","0.0-17.0-0.27","SS1604609592919","","null","","","","","","","","","","","","<img src=images/blank.png width =""500"" height = ""500"" style=""border:5px solid black"">","","",""
"","726.8799999728799","stimulus-presentation","169","496930","0.0-17.0-1.27","SS1604609592919","<img src='images/simple/12.png' width ='500' height = '500' style='border:5px solid black'>","40","all_simple","images/simple/5.png","images/simple/2.png","images/simple/10.png,images/simple/14.png,images/simple/18.png,images/simple/11.png,images/simple/3.png,images/simple/12.png,images/simple/8.png","1","null","","200","926.8799999728799","","","","deviant","",""
"","null","html-keyboard-response","170","498090","0.0-17.0-0.28","SS1604609592919","","null","","","","","","","","","","","","<img src=images/blank.png width =""500"" height = ""500"" style=""border:5px solid black"">","","",""
"","581.2149999546818","stimulus-presentation","171","498883","0.0-17.0-1.28","SS1604609592919","<img src='images/simple/2.png' width ='500' height = '500' style='border:5px solid black'>","40","all_simple","images/simple/5.png","images/simple/2.png","images/simple/10.png,images/simple/14.png,images/simple/18.png,images/simple/11.png,images/simple/3.png,images/simple/12.png,images/simple/8.png","1","null","","200","781.2149999546818","","","","background","",""
"","null","html-keyboard-response","172","500074","0.0-17.0-0.29","SS1604609592919","","null","","","","","","","","","","","","<img src=images/blank.png width =""500"" height = ""500"" style=""border:5px solid black"">","","",""
"","320.975000038743","stimulus-presentation","173","500605","0.0-17.0-1.29","SS1604609592919","<img src='images/simple/2.png' width ='500' height = '500' style='border:5px solid black'>","40","all_simple","images/simple/5.png","images/simple/2.png","images/simple/10.png,images/simple/14.png,images/simple/18.png,images/simple/11.png,images/simple/3.png,images/simple/12.png,images/simple/8.png","1","null","","200","520.975000038743","","","","background","",""
"","null","html-keyboard-response","174","501496","0.0-17.0-0.30","SS1604609592919","","null","","","","","","","","","","","","<img src=images/blank.png width =""500"" height = ""500"" style=""border:5px solid black"">","","",""
"","323.9150000154041","stimulus-presentation","175","502033","0.0-17.0-1.30","SS1604609592919","<img src='images/simple/8.png' width ='500' height = '500' style='border:5px solid black'>","40","all_simple","images/simple/5.png","images/simple/2.png","images/simple/10.png,images/simple/14.png,images/simple/18.png,images/simple/11.png,images/simple/3.png,images/simple/12.png,images/simple/8.png","1","null","","200","523.9150000154041","","","","deviant","",""
"","null","html-keyboard-response","176","503035","0.0-17.0-0.31","SS1604609592919","","null","","","","","","","","","","","","<img src=images/blank.png width =""500"" height = ""500"" style=""border:5px solid black"">","","",""
"","298.55499998666346","stimulus-presentation","177","503548","0.0-17.0-1.31","SS1604609592919","<img src='images/simple/2.png' width ='500' height = '500' style='border:5px solid black'>","40","all_simple","images/simple/5.png","images/simple/2.png","images/simple/10.png,images/simple/14.png,images/simple/18.png,images/simple/11.png,images/simple/3.png,images/simple/12.png,images/simple/8.png","1","null","","200","498.55499998666346","","","","background","",""
"","null","html-keyboard-response","178","504692","0.0-17.0-0.32","SS1604609592919","","null","","","","","","","","","","","","<img src=images/blank.png width =""500"" height = ""500"" style=""border:5px solid black"">","","",""
"","367.12499998975545","stimulus-presentation","179","505275","0.0-17.0-1.32","SS1604609592919","<img src='images/simple/2.png' width ='500' height = '500' style='border:5px solid black'>","40","all_simple","images/simple/5.png","images/simple/2.png","images/simple/10.png,images/simple/14.png,images/simple/18.png,images/simple/11.png,images/simple/3.png,images/simple/12.png,images/simple/8.png","1","null","","200","567.1249999897555","","","","background","",""
"","null","html-keyboard-response","180","506484","0.0-17.0-0.33","SS1604609592919","","null","","","","","","","","","","","","<img src=images/blank.png width =""500"" height = ""500"" style=""border:5px solid black"">","","",""
"","774.8000000137836","stimulus-presentation","181","507475","0.0-17.0-1.33","SS1604609592919","<img src='images/simple/3.png' width ='500' height = '500' style='border:5px solid black'>","40","all_simple","images/simple/5.png","images/simple/2.png","images/simple/10.png,images/simple/14.png,images/simple/18.png,images/simple/11.png,images/simple/3.png,images/simple/12.png,images/simple/8.png","1","null","","200","974.8000000137836","","","","deviant","",""
"","null","html-keyboard-response","182","508729","0.0-17.0-0.34","SS1604609592919","","null","","","","","","","","","","","","<img src=images/blank.png width =""500"" height = ""500"" style=""border:5px solid black"">","","",""
"","458.9300000225194","stimulus-presentation","183","509400","0.0-17.0-1.34","SS1604609592919","<img src='images/simple/2.png' width ='500' height = '500' style='border:5px solid black'>","40","all_simple","images/simple/5.png","images/simple/2.png","images/simple/10.png,images/simple/14.png,images/simple/18.png,images/simple/11.png,images/simple/3.png,images/simple/12.png,images/simple/8.png","1","null","","200","658.9300000225194","","","","background","",""
"","null","html-keyboard-response","184","510678","0.0-17.0-0.35","SS1604609592919","","null","","","","","","","","","","","","<img src=images/blank.png width =""500"" height = ""500"" style=""border:5px solid black"">","","",""
"","377.4850000045262","stimulus-presentation","185","511278","0.0-17.0-1.35","SS1604609592919","<img src='images/simple/2.png' width ='500' height = '500' style='border:5px solid black'>","40","all_simple","images/simple/5.png","images/simple/2.png","images/simple/10.png,images/simple/14.png,images/simple/18.png,images/simple/11.png,images/simple/3.png,images/simple/12.png,images/simple/8.png","1","null","","200","577.4850000045262","","","","background","",""
"","null","html-keyboard-response","186","512230","0.0-17.0-0.36","SS1604609592919","","null","","","","","","","","","","","","<img src=images/blank.png width =""500"" height = ""500"" style=""border:5px solid black"">","","",""
"","358.6650000070222","stimulus-presentation","187","512800","0.0-17.0-1.36","SS1604609592919","<img src='images/simple/2.png' width ='500' height = '500' style='border:5px solid black'>","40","all_simple","images/simple/5.png","images/simple/2.png","images/simple/10.png,images/simple/14.png,images/simple/18.png,images/simple/11.png,images/simple/3.png,images/simple/12.png,images/simple/8.png","1","null","","200","558.6650000070222","","","","background","",""
"","null","html-keyboard-response","188","513926","0.0-17.0-0.37","SS1604609592919","","null","","","","","","","","","","","","<img src=images/blank.png width =""500"" height = ""500"" style=""border:5px solid black"">","","",""
"","1391.5250000427477","stimulus-presentation","189","515525","0.0-17.0-1.37","SS1604609592919","<img src='images/simple/5.png' width ='500' height = '500' style='border:5px solid black'>","40","all_simple","images/simple/5.png","images/simple/2.png","images/simple/10.png,images/simple/14.png,images/simple/18.png,images/simple/11.png,images/simple/3.png,images/simple/12.png,images/simple/8.png","1","null","","200","1591.5250000427477","yes","552.5000000488944","","target","",""
"","null","html-keyboard-response","190","516807","0.0-17.0-0.38","SS1604609592919","","null","","","","","","","","","","","","<img src=images/blank.png width =""500"" height = ""500"" style=""border:5px solid black"">","","",""
"","406.9850000087172","stimulus-presentation","191","517432","0.0-17.0-1.38","SS1604609592919","<img src='images/simple/2.png' width ='500' height = '500' style='border:5px solid black'>","40","all_simple","images/simple/5.png","images/simple/2.png","images/simple/10.png,images/simple/14.png,images/simple/18.png,images/simple/11.png,images/simple/3.png,images/simple/12.png,images/simple/8.png","1","null","","200","606.9850000087172","","","","background","",""
"","null","html-keyboard-response","192","518328","0.0-17.0-0.39","SS1604609592919","","null","","","","","","","","","","","","<img src=images/blank.png width =""500"" height = ""500"" style=""border:5px solid black"">","","",""
"","238.7250000028871","stimulus-presentation","193","518782","0.0-17.0-1.39","SS1604609592919","<img src='images/simple/2.png' width ='500' height = '500' style='border:5px solid black'>","40","all_simple","images/simple/5.png","images/simple/2.png","images/simple/10.png,images/simple/14.png,images/simple/18.png,images/simple/11.png,images/simple/3.png,images/simple/12.png,images/simple/8.png","1","null","","200","438.7250000028871","","","","background","",""
"","null","html-keyboard-response","194","519943","0.0-17.0-0.40","SS1604609592919","","null","","","","","","","","","","","","<img src=images/blank.png width =""500"" height = ""500"" style=""border:5px solid black"">","","",""
"","360.8000000240281","stimulus-presentation","195","520520","0.0-17.0-1.40","SS1604609592919","<img src='images/simple/2.png' width ='500' height = '500' style='border:5px solid black'>","40","all_simple","images/simple/5.png","images/simple/2.png","images/simple/10.png,images/simple/14.png,images/simple/18.png,images/simple/11.png,images/simple/3.png,images/simple/12.png,images/simple/8.png","1","null","","200","560.8000000240281","","","","background","",""
"","null","html-keyboard-response","196","521704","0.0-17.0-0.41","SS1604609592919","","null","","","","","","","","","","","","<img src=images/blank.png width =""500"" height = ""500"" style=""border:5px solid black"">","","",""
"","875.1000000047497","stimulus-presentation","197","522800","0.0-17.0-1.41","SS1604609592919","<img src='images/simple/14.png' width ='500' height = '500' style='border:5px solid black'>","40","all_simple","images/simple/5.png","images/simple/2.png","images/simple/10.png,images/simple/14.png,images/simple/18.png,images/simple/11.png,images/simple/3.png,images/simple/12.png,images/simple/8.png","1","null","","200","1075.1000000047497","","","","deviant","",""
"","null","html-keyboard-response","198","523688","0.0-17.0-0.42","SS1604609592919","","null","","","","","","","","","","","","<img src=images/blank.png width =""500"" height = ""500"" style=""border:5px solid black"">","","",""
"","355.90999998385087","stimulus-presentation","199","524266","0.0-17.0-1.42","SS1604609592919","<img src='images/simple/2.png' width ='500' height = '500' style='border:5px solid black'>","40","all_simple","images/simple/5.png","images/simple/2.png","images/simple/10.png,images/simple/14.png,images/simple/18.png,images/simple/11.png,images/simple/3.png,images/simple/12.png,images/simple/8.png","1","null","","200","555.9099999838509","","","","background","",""
"","null","html-keyboard-response","200","525241","0.0-17.0-0.43","SS1604609592919","","null","","","","","","","","","","","","<img src=images/blank.png width =""500"" height = ""500"" style=""border:5px solid black"">","","",""
"","445.7649999530986","stimulus-presentation","201","525905","0.0-17.0-1.43","SS1604609592919","<img src='images/simple/2.png' width ='500' height = '500' style='border:5px solid black'>","40","all_simple","images/simple/5.png","images/simple/2.png","images/simple/10.png,images/simple/14.png,images/simple/18.png,images/simple/11.png,images/simple/3.png,images/simple/12.png,images/simple/8.png","1","null","","200","645.7649999530986","","","","background","",""
"","null","html-keyboard-response","202","527138","0.0-17.0-0.44","SS1604609592919","","null","","","","","","","","","","","","<img src=images/blank.png width =""500"" height = ""500"" style=""border:5px solid black"">","","",""
"","324.384999985341","stimulus-presentation","203","527677","0.0-17.0-1.44","SS1604609592919","<img src='images/simple/2.png' width ='500' height = '500' style='border:5px solid black'>","40","all_simple","images/simple/5.png","images/simple/2.png","images/simple/10.png,images/simple/14.png,images/simple/18.png,images/simple/11.png,images/simple/3.png,images/simple/12.png,images/simple/8.png","1","null","","200","524.384999985341","","","","background","",""
"","null","html-keyboard-response","204","528884","0.0-17.0-0.45","SS1604609592919","","null","","","","","","","","","","","","<img src=images/blank.png width =""500"" height = ""500"" style=""border:5px solid black"">","","",""
"","318.67000000784174","stimulus-presentation","205","529412","0.0-17.0-1.45","SS1604609592919","<img src='images/simple/2.png' width ='500' height = '500' style='border:5px solid black'>","40","all_simple","images/simple/5.png","images/simple/2.png","images/simple/10.png,images/simple/14.png,images/simple/18.png,images/simple/11.png,images/simple/3.png,images/simple/12.png,images/simple/8.png","1","null","","200","518.6700000078417","","","","background","",""
"","null","html-keyboard-response","206","530556","0.0-17.0-0.46","SS1604609592919","","null","","","","","","","","","","","","<img src=images/blank.png width =""500"" height = ""500"" style=""border:5px solid black"">","","",""
"","262.929999968037","stimulus-presentation","207","531035","0.0-17.0-1.46","SS1604609592919","<img src='images/simple/2.png' width ='500' height = '500' style='border:5px solid black'>","40","all_simple","images/simple/5.png","images/simple/2.png","images/simple/10.png,images/simple/14.png,images/simple/18.png,images/simple/11.png,images/simple/3.png,images/simple/12.png,images/simple/8.png","1","null","","200","462.929999968037","","","","background","",""
"","null","html-keyboard-response","208","532127","0.0-17.0-0.47","SS1604609592919","","null","","","","","","","","","","","","<img src=images/blank.png width =""500"" height = ""500"" style=""border:5px solid black"">","","",""
"","319.9500000337139","stimulus-presentation","209","532672","0.0-17.0-1.47","SS1604609592919","<img src='images/simple/2.png' width ='500' height = '500' style='border:5px solid black'>","40","all_simple","images/simple/5.png","images/simple/2.png","images/simple/10.png,images/simple/14.png,images/simple/18.png,images/simple/11.png,images/simple/3.png,images/simple/12.png,images/simple/8.png","1","null","","200","519.9500000337139","","","","background","",""
"","null","html-keyboard-response","210","533909","0.0-17.0-0.48","SS1604609592919","","null","","","","","","","","","","","","<img src=images/blank.png width =""500"" height = ""500"" style=""border:5px solid black"">","","",""
"","1336.8699999991804","stimulus-presentation","211","535465","0.0-17.0-1.48","SS1604609592919","<img src='images/simple/5.png' width ='500' height = '500' style='border:5px solid black'>","40","all_simple","images/simple/5.png","images/simple/2.png","images/simple/10.png,images/simple/14.png,images/simple/18.png,images/simple/11.png,images/simple/3.png,images/simple/12.png,images/simple/8.png","1","null","","200","1536.8699999991804","yes","489.19000005116686","","target","",""
"[{""page_index"":0,""viewing_time"":2220}]","2221","task-instructions","212","537695","0.0-18.0","SS1604609592919","","","","","","","","","","","","","","","","",""
"[{""page_index"":0,""viewing_time"":725.464999966789},{""page_index"":1,""viewing_time"":2334.755000018049},{""page_index"":2,""viewing_time"":1520.7649999647401}]","4585.4749999707565","instructions","213","542289","0.0-19.0","SS1604609592919","","","","","","","","","","","","","","","","",""
"","null","html-keyboard-response","214","543199","0.0-20.0-0.0","SS1604609592919","","null","","","","","","","","","","","","<img src=images/blank.png width =""500"" height = ""500"" style=""border:5px solid black"">","","",""
"","1130.684999981895","stimulus-presentation","215","544551","0.0-20.0-1.0","SS1604609592919","<img src='images/complex/6.png' width ='500' height = '500' style='border:5px solid black'>","40","all_complex","images/complex/17.png","images/complex/15.png","images/complex/2.png,images/complex/1.png,images/complex/6.png,images/complex/7.png,images/complex/4.png,images/complex/12.png,images/complex/13.png","2","null","","200","1330.684999981895","","","","deviant","",""
"","null","html-keyboard-response","216","545863","0.0-20.0-0.1","SS1604609592919","","null","","","","","","","","","","","","<img src=images/blank.png width =""500"" height = ""500"" style=""border:5px solid black"">","","",""
"","1530.4550000000745","stimulus-presentation","217","547614","0.0-20.0-1.1","SS1604609592919","<img src='images/complex/17.png' width ='500' height = '500' style='border:5px solid black'>","40","all_complex","images/complex/17.png","images/complex/15.png","images/complex/2.png,images/complex/1.png,images/complex/6.png,images/complex/7.png,images/complex/4.png,images/complex/12.png,images/complex/13.png","2","null","","200","1730.4550000000745","yes","728.0349999782629","","target","",""
"","null","html-keyboard-response","218","548679","0.0-20.0-0.2","SS1604609592919","","null","","","","","","","","","","","","<img src=images/blank.png width =""500"" height = ""500"" style=""border:5px solid black"">","","",""
"","493.735000025481","stimulus-presentation","219","549390","0.0-20.0-1.2","SS1604609592919","<img src='images/complex/15.png' width ='500' height = '500' style='border:5px solid black'>","40","all_complex","images/complex/17.png","images/complex/15.png","images/complex/2.png,images/complex/1.png,images/complex/6.png,images/complex/7.png,images/complex/4.png,images/complex/12.png,images/complex/13.png","2","null","","200","693.735000025481","","","","background","",""
"","null","html-keyboard-response","220","550264","0.0-20.0-0.3","SS1604609592919","","null","","","","","","","","","","","","<img src=images/blank.png width =""500"" height = ""500"" style=""border:5px solid black"">","","",""
"","568.8249999657273","stimulus-presentation","221","551056","0.0-20.0-1.3","SS1604609592919","<img src='images/complex/15.png' width ='500' height = '500' style='border:5px solid black'>","40","all_complex","images/complex/17.png","images/complex/15.png","images/complex/2.png,images/complex/1.png,images/complex/6.png,images/complex/7.png,images/complex/4.png,images/complex/12.png,images/complex/13.png","2","null","","200","768.8249999657273","","","","background","",""
"","null","html-keyboard-response","222","552051","0.0-20.0-0.4","SS1604609592919","","null","","","","","","","","","","","","<img src=images/blank.png width =""500"" height = ""500"" style=""border:5px solid black"">","","",""
"","591.6399999987334","stimulus-presentation","223","552860","0.0-20.0-1.4","SS1604609592919","<img src='images/complex/15.png' width ='500' height = '500' style='border:5px solid black'>","40","all_complex","images/complex/17.png","images/complex/15.png","images/complex/2.png,images/complex/1.png,images/complex/6.png,images/complex/7.png,images/complex/4.png,images/complex/12.png,images/complex/13.png","2","null","","200","791.6399999987334","","","","background","",""
"","null","html-keyboard-response","224","553764","0.0-20.0-0.5","SS1604609592919","","null","","","","","","","","","","","","<img src=images/blank.png width =""500"" height = ""500"" style=""border:5px solid black"">","","",""
"","577.8549999813549","stimulus-presentation","225","554556","0.0-20.0-1.5","SS1604609592919","<img src='images/complex/15.png' width ='500' height = '500' style='border:5px solid black'>","40","all_complex","images/complex/17.png","images/complex/15.png","images/complex/2.png,images/complex/1.png,images/complex/6.png,images/complex/7.png,images/complex/4.png,images/complex/12.png,images/complex/13.png","2","null","","200","777.8549999813549","","","","background","",""
"","null","html-keyboard-response","226","555729","0.0-20.0-0.6","SS1604609592919","","null","","","","","","","","","","","","<img src=images/blank.png width =""500"" height = ""500"" style=""border:5px solid black"">","","",""
"","1189.1950000426732","stimulus-presentation","227","557134","0.0-20.0-1.6","SS1604609592919","<img src='images/complex/13.png' width ='500' height = '500' style='border:5px solid black'>","40","all_complex","images/complex/17.png","images/complex/15.png","images/complex/2.png,images/complex/1.png,images/complex/6.png,images/complex/7.png,images/complex/4.png,images/complex/12.png,images/complex/13.png","2","null","","200","1389.1950000426732","","","","deviant","",""
"","null","html-keyboard-response","228","558226","0.0-20.0-0.7","SS1604609592919","","null","","","","","","","","","","","","<img src=images/blank.png width =""500"" height = ""500"" style=""border:5px solid black"">","","",""
"","572.3800000268966","stimulus-presentation","229","559011","0.0-20.0-1.7","SS1604609592919","<img src='images/complex/15.png' width ='500' height = '500' style='border:5px solid black'>","40","all_complex","images/complex/17.png","images/complex/15.png","images/complex/2.png,images/complex/1.png,images/complex/6.png,images/complex/7.png,images/complex/4.png,images/complex/12.png,images/complex/13.png","2","null","","200","772.3800000268966","","","","background","",""
"","null","html-keyboard-response","230","560043","0.0-20.0-0.8","SS1604609592919","","null","","","","","","","","","","","","<img src=images/blank.png width =""500"" height = ""500"" style=""border:5px solid black"">","","",""
"","1129.350000002887","stimulus-presentation","231","561392","0.0-20.0-1.8","SS1604609592919","<img src='images/complex/15.png' width ='500' height = '500' style='border:5px solid black'>","40","all_complex","images/complex/17.png","images/complex/15.png","images/complex/2.png,images/complex/1.png,images/complex/6.png,images/complex/7.png,images/complex/4.png,images/complex/12.png,images/complex/13.png","2","null","","200","1329.350000002887","","","","background","",""
"","null","html-keyboard-response","232","562428","0.0-20.0-0.9","SS1604609592919","","null","","","","","","","","","","","","<img src=images/blank.png width =""500"" height = ""500"" style=""border:5px solid black"">","","",""
"","784.734999993816","stimulus-presentation","233","563430","0.0-20.0-1.9","SS1604609592919","<img src='images/complex/15.png' width ='500' height = '500' style='border:5px solid black'>","40","all_complex","images/complex/17.png","images/complex/15.png","images/complex/2.png,images/complex/1.png,images/complex/6.png,images/complex/7.png,images/complex/4.png,images/complex/12.png,images/complex/13.png","2","null","","200","984.734999993816","","","","background","",""
"","null","html-keyboard-response","234","564260","0.0-20.0-0.10","SS1604609592919","","null","","","","","","","","","","","","<img src=images/blank.png width =""500"" height = ""500"" style=""border:5px solid black"">","","",""
"","884.1149999643676","stimulus-presentation","235","565356","0.0-20.0-1.10","SS1604609592919","<img src='images/complex/1.png' width ='500' height = '500' style='border:5px solid black'>","40","all_complex","images/complex/17.png","images/complex/15.png","images/complex/2.png,images/complex/1.png,images/complex/6.png,images/complex/7.png,images/complex/4.png,images/complex/12.png,images/complex/13.png","2","null","","200","1084.1149999643676","","","","deviant","",""
"","null","html-keyboard-response","236","566604","0.0-20.0-0.11","SS1604609592919","","null","","","","","","","","","","","","<img src=images/blank.png width =""500"" height = ""500"" style=""border:5px solid black"">","","",""
"","1686.6699999663979","stimulus-presentation","237","568508","0.0-20.0-1.11","SS1604609592919","<img src='images/complex/17.png' width ='500' height = '500' style='border:5px solid black'>","40","all_complex","images/complex/17.png","images/complex/15.png","images/complex/2.png,images/complex/1.png,images/complex/6.png,images/complex/7.png,images/complex/4.png,images/complex/12.png,images/complex/13.png","2","null","","200","1886.6699999663979","yes","727.6449999772012","","target","",""
"","null","html-keyboard-response","238","569486","0.0-20.0-0.12","SS1604609592919","","null","","","","","","","","","","","","<img src=images/blank.png width =""500"" height = ""500"" style=""border:5px solid black"">","","",""
"","569.82000003336","stimulus-presentation","239","570275","0.0-20.0-1.12","SS1604609592919","<img src='images/complex/15.png' width ='500' height = '500' style='border:5px solid black'>","40","all_complex","images/complex/17.png","images/complex/15.png","images/complex/2.png,images/complex/1.png,images/complex/6.png,images/complex/7.png,images/complex/4.png,images/complex/12.png,images/complex/13.png","2","null","","200","769.82000003336","","","","background","",""
"","null","html-keyboard-response","240","571149","0.0-20.0-0.13","SS1604609592919","","null","","","","","","","","","","","","<img src=images/blank.png width =""500"" height = ""500"" style=""border:5px solid black"">","","",""
"","549.8950000037439","stimulus-presentation","241","571913","0.0-20.0-1.13","SS1604609592919","<img src='images/complex/15.png' width ='500' height = '500' style='border:5px solid black'>","40","all_complex","images/complex/17.png","images/complex/15.png","images/complex/2.png,images/complex/1.png,images/complex/6.png,images/complex/7.png,images/complex/4.png,images/complex/12.png,images/complex/13.png","2","null","","200","749.8950000037439","","","","background","",""
"","null","html-keyboard-response","242","573047","0.0-20.0-0.14","SS1604609592919","","null","","","","","","","","","","","","<img src=images/blank.png width =""500"" height = ""500"" style=""border:5px solid black"">","","",""
"","860.7900000060908","stimulus-presentation","243","574125","0.0-20.0-1.14","SS1604609592919","<img src='images/complex/4.png' width ='500' height = '500' style='border:5px solid black'>","40","all_complex","images/complex/17.png","images/complex/15.png","images/complex/2.png,images/complex/1.png,images/complex/6.png,images/complex/7.png,images/complex/4.png,images/complex/12.png,images/complex/13.png","2","null","","200","1060.7900000060908","","","","deviant","",""
"","null","html-keyboard-response","244","575270","0.0-20.0-0.15","SS1604609592919","","null","","","","","","","","","","","","<img src=images/blank.png width =""500"" height = ""500"" style=""border:5px solid black"">","","",""
"","1027.7449999703094","stimulus-presentation","245","576515","0.0-20.0-1.15","SS1604609592919","<img src='images/complex/15.png' width ='500' height = '500' style='border:5px solid black'>","40","all_complex","images/complex/17.png","images/complex/15.png","images/complex/2.png,images/complex/1.png,images/complex/6.png,images/complex/7.png,images/complex/4.png,images/complex/12.png,images/complex/13.png","2","null","","200","1227.7449999703094","","","","background","",""
"","null","html-keyboard-response","246","577712","0.0-20.0-0.16","SS1604609592919","","null","","","","","","","","","","","","<img src=images/blank.png width =""500"" height = ""500"" style=""border:5px solid black"">","","",""
"","484.88000000361353","stimulus-presentation","247","578422","0.0-20.0-1.16","SS1604609592919","<img src='images/complex/15.png' width ='500' height = '500' style='border:5px solid black'>","40","all_complex","images/complex/17.png","images/complex/15.png","images/complex/2.png,images/complex/1.png,images/complex/6.png,images/complex/7.png,images/complex/4.png,images/complex/12.png,images/complex/13.png","2","null","","200","684.8800000036135","","","","background","",""
"","null","html-keyboard-response","248","579535","0.0-20.0-0.17","SS1604609592919","","null","","","","","","","","","","","","<img src=images/blank.png width =""500"" height = ""500"" style=""border:5px solid black"">","","",""
"","1824.2750000208616","stimulus-presentation","249","581571","0.0-20.0-1.17","SS1604609592919","<img src='images/complex/17.png' width ='500' height = '500' style='border:5px solid black'>","40","all_complex","images/complex/17.png","images/complex/15.png","images/complex/2.png,images/complex/1.png,images/complex/6.png,images/complex/7.png,images/complex/4.png,images/complex/12.png,images/complex/13.png","2","null","","200","2024.2750000208616","yes","843.5250000329688","","target","",""
"","null","html-keyboard-response","250","582711","0.0-20.0-0.18","SS1604609592919","","null","","","","","","","","","","","","<img src=images/blank.png width =""500"" height = ""500"" style=""border:5px solid black"">","","",""
"","665.9949999884702","stimulus-presentation","251","583604","0.0-20.0-1.18","SS1604609592919","<img src='images/complex/15.png' width ='500' height = '500' style='border:5px solid black'>","40","all_complex","images/complex/17.png","images/complex/15.png","images/complex/2.png,images/complex/1.png,images/complex/6.png,images/complex/7.png,images/complex/4.png,images/complex/12.png,images/complex/13.png","2","null","","200","865.9949999884702","","","","background","",""
"","null","html-keyboard-response","252","584642","0.0-20.0-0.19","SS1604609592919","","null","","","","","","","","","","","","<img src=images/blank.png width =""500"" height = ""500"" style=""border:5px solid black"">","","",""
"","1637.1199999703094","stimulus-presentation","253","586492","0.0-20.0-1.19","SS1604609592919","<img src='images/complex/17.png' width ='500' height = '500' style='border:5px solid black'>","40","all_complex","images/complex/17.png","images/complex/15.png","images/complex/2.png,images/complex/1.png,images/complex/6.png,images/complex/7.png,images/complex/4.png,images/complex/12.png,images/complex/13.png","2","null","","200","1837.1199999703094","yes","765.5950000043958","","target","",""
"","null","html-keyboard-response","254","587322","0.0-20.0-0.20","SS1604609592919","","null","","","","","","","","","","","","<img src=images/blank.png width =""500"" height = ""500"" style=""border:5px solid black"">","","",""
"","851.9599999999627","stimulus-presentation","255","588386","0.0-20.0-1.20","SS1604609592919","<img src='images/complex/12.png' width ='500' height = '500' style='border:5px solid black'>","40","all_complex","images/complex/17.png","images/complex/15.png","images/complex/2.png,images/complex/1.png,images/complex/6.png,images/complex/7.png,images/complex/4.png,images/complex/12.png,images/complex/13.png","2","null","","200","1051.9599999999627","","","","deviant","",""
"","null","html-keyboard-response","256","589379","0.0-20.0-0.21","SS1604609592919","","null","","","","","","","","","","","","<img src=images/blank.png width =""500"" height = ""500"" style=""border:5px solid black"">","","",""
"","488.69999998714775","stimulus-presentation","257","590085","0.0-20.0-1.21","SS1604609592919","<img src='images/complex/15.png' width ='500' height = '500' style='border:5px solid black'>","40","all_complex","images/complex/17.png","images/complex/15.png","images/complex/2.png,images/complex/1.png,images/complex/6.png,images/complex/7.png,images/complex/4.png,images/complex/12.png,images/complex/13.png","2","null","","200","688.6999999871477","","","","background","",""
"","null","html-keyboard-response","258","591269","0.0-20.0-0.22","SS1604609592919","","null","","","","","","","","","","","","<img src=images/blank.png width =""500"" height = ""500"" style=""border:5px solid black"">","","",""
"","530.8799999766052","stimulus-presentation","259","592020","0.0-20.0-1.22","SS1604609592919","<img src='images/complex/15.png' width ='500' height = '500' style='border:5px solid black'>","40","all_complex","images/complex/17.png","images/complex/15.png","images/complex/2.png,images/complex/1.png,images/complex/6.png,images/complex/7.png,images/complex/4.png,images/complex/12.png,images/complex/13.png","2","null","","200","730.8799999766052","","","","background","",""
"","null","html-keyboard-response","260","593212","0.0-20.0-0.23","SS1604609592919","","null","","","","","","","","","","","","<img src=images/blank.png width =""500"" height = ""500"" style=""border:5px solid black"">","","",""
"","511.1950000282377","stimulus-presentation","261","593949","0.0-20.0-1.23","SS1604609592919","<img src='images/complex/15.png' width ='500' height = '500' style='border:5px solid black'>","40","all_complex","images/complex/17.png","images/complex/15.png","images/complex/2.png,images/complex/1.png,images/complex/6.png,images/complex/7.png,images/complex/4.png,images/complex/12.png,images/complex/13.png","2","null","","200","711.1950000282377","","","","background","",""
"","null","html-keyboard-response","262","594820","0.0-20.0-0.24","SS1604609592919","","null","","","","","","","","","","","","<img src=images/blank.png width =""500"" height = ""500"" style=""border:5px solid black"">","","",""
"","543.8700000522658","stimulus-presentation","263","595575","0.0-20.0-1.24","SS1604609592919","<img src='images/complex/15.png' width ='500' height = '500' style='border:5px solid black'>","40","all_complex","images/complex/17.png","images/complex/15.png","images/complex/2.png,images/complex/1.png,images/complex/6.png,images/complex/7.png,images/complex/4.png,images/complex/12.png,images/complex/13.png","2","null","","200","743.8700000522658","","","","background","",""
"","null","html-keyboard-response","264","596756","0.0-20.0-0.25","SS1604609592919","","null","","","","","","","","","","","","<img src=images/blank.png width =""500"" height = ""500"" style=""border:5px solid black"">","","",""
"","543.7099999981001","stimulus-presentation","265","597521","0.0-20.0-1.25","SS1604609592919","<img src='images/complex/15.png' width ='500' height = '500' style='border:5px solid black'>","40","all_complex","images/complex/17.png","images/complex/15.png","images/complex/2.png,images/complex/1.png,images/complex/6.png,images/complex/7.png,images/complex/4.png,images/complex/12.png,images/complex/13.png","2","null","","200","743.7099999981001","","","","background","",""
"","null","html-keyboard-response","266","598529","0.0-20.0-0.26","SS1604609592919","","null","","","","","","","","","","","","<img src=images/blank.png width =""500"" height = ""500"" style=""border:5px solid black"">","","",""
"","580.5599999730475","stimulus-presentation","267","599329","0.0-20.0-1.26","SS1604609592919","<img src='images/complex/15.png' width ='500' height = '500' style='border:5px solid black'>","40","all_complex","images/complex/17.png","images/complex/15.png","images/complex/2.png,images/complex/1.png,images/complex/6.png,images/complex/7.png,images/complex/4.png,images/complex/12.png,images/complex/13.png","2","null","","200","780.5599999730475","","","","background","",""
"","null","html-keyboard-response","268","600570","0.0-20.0-0.27","SS1604609592919","","null","","","","","","","","","","","","<img src=images/blank.png width =""500"" height = ""500"" style=""border:5px solid black"">","","",""
"","765.6399999978021","stimulus-presentation","269","601571","0.0-20.0-1.27","SS1604609592919","<img src='images/complex/15.png' width ='500' height = '500' style='border:5px solid black'>","40","all_complex","images/complex/17.png","images/complex/15.png","images/complex/2.png,images/complex/1.png,images/complex/6.png,images/complex/7.png,images/complex/4.png,images/complex/12.png,images/complex/13.png","2","null","","200","965.6399999978021","","","","background","",""
"","null","html-keyboard-response","270","602534","0.0-20.0-0.28","SS1604609592919","","null","","","","","","","","","","","","<img src=images/blank.png width =""500"" height = ""500"" style=""border:5px solid black"">","","",""
"","667.9350000340492","stimulus-presentation","271","603424","0.0-20.0-1.28","SS1604609592919","<img src='images/complex/15.png' width ='500' height = '500' style='border:5px solid black'>","40","all_complex","images/complex/17.png","images/complex/15.png","images/complex/2.png,images/complex/1.png,images/complex/6.png,images/complex/7.png,images/complex/4.png,images/complex/12.png,images/complex/13.png","2","null","","200","867.9350000340492","","","","background","",""
"","null","html-keyboard-response","272","604560","0.0-20.0-0.29","SS1604609592919","","null","","","","","","","","","","","","<img src=images/blank.png width =""500"" height = ""500"" style=""border:5px solid black"">","","",""
"","756.4049999928102","stimulus-presentation","273","605547","0.0-20.0-1.29","SS1604609592919","<img src='images/complex/15.png' width ='500' height = '500' style='border:5px solid black'>","40","all_complex","images/complex/17.png","images/complex/15.png","images/complex/2.png,images/complex/1.png,images/complex/6.png,images/complex/7.png,images/complex/4.png,images/complex/12.png,images/complex/13.png","2","null","","200","956.4049999928102","","","","background","",""
"","null","html-keyboard-response","274","606511","0.0-20.0-0.30","SS1604609592919","","null","","","","","","","","","","","","<img src=images/blank.png width =""500"" height = ""500"" style=""border:5px solid black"">","","",""
"","980.0299999769777","stimulus-presentation","275","607721","0.0-20.0-1.30","SS1604609592919","<img src='images/complex/15.png' width ='500' height = '500' style='border:5px solid black'>","40","all_complex","images/complex/17.png","images/complex/15.png","images/complex/2.png,images/complex/1.png,images/complex/6.png,images/complex/7.png,images/complex/4.png,images/complex/12.png,images/complex/13.png","2","null","","200","1180.0299999769777","","","","background","",""
"","null","html-keyboard-response","276","608591","0.0-20.0-0.31","SS1604609592919","","null","","","","","","","","","","","","<img src=images/blank.png width =""500"" height = ""500"" style=""border:5px solid black"">","","",""
"","1600.319999968633","stimulus-presentation","277","610407","0.0-20.0-1.31","SS1604609592919","<img src='images/complex/17.png' width ='500' height = '500' style='border:5px solid black'>","40","all_complex","images/complex/17.png","images/complex/15.png","images/complex/2.png,images/complex/1.png,images/complex/6.png,images/complex/7.png,images/complex/4.png,images/complex/12.png,images/complex/13.png","2","null","","200","1800.319999968633","yes","760.149999987334","","target","",""
"","null","html-keyboard-response","278","611616","0.0-20.0-0.32","SS1604609592919","","null","","","","","","","","","","","","<img src=images/blank.png width =""500"" height = ""500"" style=""border:5px solid black"">","","",""
"","878.7149999989197","stimulus-presentation","279","612721","0.0-20.0-1.32","SS1604609592919","<img src='images/complex/7.png' width ='500' height = '500' style='border:5px solid black'>","40","all_complex","images/complex/17.png","images/complex/15.png","images/complex/2.png,images/complex/1.png,images/complex/6.png,images/complex/7.png,images/complex/4.png,images/complex/12.png,images/complex/13.png","2","null","","200","1078.7149999989197","","","","deviant","",""
"","null","html-keyboard-response","280","613891","0.0-20.0-0.33","SS1604609592919","","null","","","","","","","","","","","","<img src=images/blank.png width =""500"" height = ""500"" style=""border:5px solid black"">","","",""
"","927.2349999519065","stimulus-presentation","281","615034","0.0-20.0-1.33","SS1604609592919","<img src='images/complex/15.png' width ='500' height = '500' style='border:5px solid black'>","40","all_complex","images/complex/17.png","images/complex/15.png","images/complex/2.png,images/complex/1.png,images/complex/6.png,images/complex/7.png,images/complex/4.png,images/complex/12.png,images/complex/13.png","2","null","","200","1127.2349999519065","","","","background","",""
"","null","html-keyboard-response","282","615939","0.0-20.0-0.34","SS1604609592919","","null","","","","","","","","","","","","<img src=images/blank.png width =""500"" height = ""500"" style=""border:5px solid black"">","","",""
"","2060.9450000338256","stimulus-presentation","283","618215","0.0-20.0-1.34","SS1604609592919","<img src='images/complex/17.png' width ='500' height = '500' style='border:5px solid black'>","40","all_complex","images/complex/17.png","images/complex/15.png","images/complex/2.png,images/complex/1.png,images/complex/6.png,images/complex/7.png,images/complex/4.png,images/complex/12.png,images/complex/13.png","2","null","","200","2260.9450000338256","yes","1171.3100000051782","","target","",""
"","null","html-keyboard-response","284","619122","0.0-20.0-0.35","SS1604609592919","","null","","","","","","","","","","","","<img src=images/blank.png width =""500"" height = ""500"" style=""border:5px solid black"">","","",""
