"view_history","rt","trial_type","trial_index","time_elapsed","internal_node_id","subject","trial_stimulus","key_press","task_type","task_target_stimulus","task_background_stimulus","task_deviant_stimuli","task_order_number","block_order_number","trial_order_number","minimum_viewing_duration","trial_looking_time","trial_pressed_space_bar","trial_space_bar_rt","stimulus","trial_stimulus_type","responses","question_order"
"[{""page_index"":0,""viewing_time"":33457.704999998896}]","33458.27499999905","instructions","0","33488","0.0-0.0","SS1604588488439","","","","","","","","","","","","","","","","",""
"[{""page_index"":0,""viewing_time"":9439.739999999802},{""page_index"":1,""viewing_time"":4627.964999999676},{""page_index"":2,""viewing_time"":5290.060000001176},{""page_index"":3,""viewing_time"":4791.874999998981},{""page_index"":4,""viewing_time"":5427.999999999884},{""page_index"":5,""viewing_time"":5291.93000000123},{""page_index"":6,""viewing_time"":3240.009999999529},{""page_index"":7,""viewing_time"":15495.899999999892},{""page_index"":8,""viewing_time"":6333.979999999428}]","59939.71000000056","instructions","1","93429","0.0-1.0","SS1604588488439","","","","","","","","","","","","","","","","",""
"[{""page_index"":0,""viewing_time"":4570.830000000569},{""page_index"":1,""viewing_time"":4631.954999998925},{""page_index"":2,""viewing_time"":1965.9900000006019}]","11169.019999999364","instructions","2","104599","0.0-2.0","SS1604588488439","","","","","","","","","","","","","","","","",""
"","1450.2099999990605","practice-block","3","106253","0.0-3.0","SS1604588488439","<img src='images/practice/practice_background.jpeg' width ='500' height = '500' style='border:5px solid black'>","40","null","images/practice/practice_target.jpg","null","null","null","null","","200","1650.2099999990605","","","","","",""
"","null","html-keyboard-response","4","107180","0.0-4.0","SS1604588488439","","null","","","","","","","","","","","","<img src=images/blank.png width =""500"" height = ""500"" style=""border:5px solid black"">","","",""
"","1018.4600000011415","practice-block","5","108412","0.0-5.0","SS1604588488439","<img src='images/practice/practice_background.jpeg' width ='500' height = '500' style='border:5px solid black'>","40","null","images/practice/practice_target.jpg","null","null","null","null","","200","1218.4600000011415","","","","","",""
"","null","html-keyboard-response","6","109664","0.0-6.0","SS1604588488439","","null","","","","","","","","","","","","<img src=images/blank.png width =""500"" height = ""500"" style=""border:5px solid black"">","","",""
"","1013.3549999991374","practice-block","7","110892","0.0-7.0","SS1604588488439","<img src='images/practice/practice_deviant.jpeg' width ='500' height = '500' style='border:5px solid black'>","40","null","images/practice/practice_target.jpg","null","null","null","null","","200","1213.3549999991374","","","","","",""
"","null","html-keyboard-response","8","111763","0.0-8.0","SS1604588488439","","null","","","","","","","","","","","","<img src=images/blank.png width =""500"" height = ""500"" style=""border:5px solid black"">","","",""
"","5225.560000000769","practice-block","9","117196","0.0-9.0-0.0","SS1604588488439","<img src='images/practice/practice_target.jpg' width ='500' height = '500' style='border:5px solid black'>","40","null","images/practice/practice_target.jpg","null","null","null","null","","200","5425.560000000769","yes","1033.7199999994482","","","",""
"","null","html-keyboard-response","10","118477","0.0-10.0","SS1604588488439","","null","","","","","","","","","","","","<img src=images/blank.png width =""500"" height = ""500"" style=""border:5px solid black"">","","",""
"","981.4699999988079","practice-block","11","119676","0.0-11.0","SS1604588488439","<img src='images/practice/practice_background.jpeg' width ='500' height = '500' style='border:5px solid black'>","40","null","images/practice/practice_target.jpg","null","null","null","null","","200","1181.469999998808","","","","","",""
"[{""page_index"":0,""viewing_time"":2265}]","2266","task-instructions","12","121945","0.0-12.0","SS1604588488439","","","","","","","","","","","","","","","","",""
"[{""page_index"":0,""viewing_time"":3940.599999999904},{""page_index"":1,""viewing_time"":4031.989999999496},{""page_index"":2,""viewing_time"":1653.9700000012235}]","9626.804999999862","instructions","13","131573","0.0-13.0","SS1604588488439","","","","","","","","","","","","","","","","",""
"","null","html-keyboard-response","14","132814","0.0-14.0-0.0","SS1604588488439","","null","","","","","","","","","","","","<img src=images/blank.png width =""500"" height = ""500"" style=""border:5px solid black"">","","",""
"","1660.4550000011222","stimulus-presentation","15","134685","0.0-14.0-1.0","SS1604588488439","<img src='images/simple/10.png' width ='500' height = '500' style='border:5px solid black'>","40","all_simple","images/simple/17.png","images/simple/4.png","images/simple/11.png,images/simple/12.png,images/simple/6.png,images/simple/10.png,images/simple/3.png,images/simple/1.png,images/simple/7.png","0","null","","200","1860.4550000011222","","","","deviant","",""
"","null","html-keyboard-response","16","135965","0.0-14.0-0.1","SS1604588488439","","null","","","","","","","","","","","","<img src=images/blank.png width =""500"" height = ""500"" style=""border:5px solid black"">","","",""
"","1977.149999998801","stimulus-presentation","17","138155","0.0-14.0-1.1","SS1604588488439","<img src='images/simple/4.png' width ='500' height = '500' style='border:5px solid black'>","40","all_simple","images/simple/17.png","images/simple/4.png","images/simple/11.png,images/simple/12.png,images/simple/6.png,images/simple/10.png,images/simple/3.png,images/simple/1.png,images/simple/7.png","0","null","","200","2177.149999998801","","","","background","",""
"","null","html-keyboard-response","18","139183","0.0-14.0-0.2","SS1604588488439","","null","","","","","","","","","","","","<img src=images/blank.png width =""500"" height = ""500"" style=""border:5px solid black"">","","",""
"","1240.999999999971","stimulus-presentation","19","140636","0.0-14.0-1.2","SS1604588488439","<img src='images/simple/4.png' width ='500' height = '500' style='border:5px solid black'>","40","all_simple","images/simple/17.png","images/simple/4.png","images/simple/11.png,images/simple/12.png,images/simple/6.png,images/simple/10.png,images/simple/3.png,images/simple/1.png,images/simple/7.png","0","null","","200","1440.999999999971","","","","background","",""
"","null","html-keyboard-response","20","141715","0.0-14.0-0.3","SS1604588488439","","null","","","","","","","","","","","","<img src=images/blank.png width =""500"" height = ""500"" style=""border:5px solid black"">","","",""
"","926.4600000005739","stimulus-presentation","21","142860","0.0-14.0-1.3","SS1604588488439","<img src='images/simple/4.png' width ='500' height = '500' style='border:5px solid black'>","40","all_simple","images/simple/17.png","images/simple/4.png","images/simple/11.png,images/simple/12.png,images/simple/6.png,images/simple/10.png,images/simple/3.png,images/simple/1.png,images/simple/7.png","0","null","","200","1126.460000000574","","","","background","",""
"","null","html-keyboard-response","22","143881","0.0-14.0-0.4","SS1604588488439","","null","","","","","","","","","","","","<img src=images/blank.png width =""500"" height = ""500"" style=""border:5px solid black"">","","",""
"","973.5950000012817","stimulus-presentation","23","145068","0.0-14.0-1.4","SS1604588488439","<img src='images/simple/4.png' width ='500' height = '500' style='border:5px solid black'>","40","all_simple","images/simple/17.png","images/simple/4.png","images/simple/11.png,images/simple/12.png,images/simple/6.png,images/simple/10.png,images/simple/3.png,images/simple/1.png,images/simple/7.png","0","null","","200","1173.5950000012817","","","","background","",""
"","null","html-keyboard-response","24","146065","0.0-14.0-0.5","SS1604588488439","","null","","","","","","","","","","","","<img src=images/blank.png width =""500"" height = ""500"" style=""border:5px solid black"">","","",""
"","677.8799999992771","stimulus-presentation","25","146956","0.0-14.0-1.5","SS1604588488439","<img src='images/simple/4.png' width ='500' height = '500' style='border:5px solid black'>","40","all_simple","images/simple/17.png","images/simple/4.png","images/simple/11.png,images/simple/12.png,images/simple/6.png,images/simple/10.png,images/simple/3.png,images/simple/1.png,images/simple/7.png","0","null","","200","877.8799999992771","","","","background","",""
"","null","html-keyboard-response","26","148064","0.0-14.0-0.6","SS1604588488439","","null","","","","","","","","","","","","<img src=images/blank.png width =""500"" height = ""500"" style=""border:5px solid black"">","","",""
"","308.2950000007404","stimulus-presentation","27","148588","0.0-14.0-1.6","SS1604588488439","<img src='images/simple/4.png' width ='500' height = '500' style='border:5px solid black'>","40","all_simple","images/simple/17.png","images/simple/4.png","images/simple/11.png,images/simple/12.png,images/simple/6.png,images/simple/10.png,images/simple/3.png,images/simple/1.png,images/simple/7.png","0","null","","200","508.2950000007404","","","","background","",""
"","null","html-keyboard-response","28","149432","0.0-14.0-0.7","SS1604588488439","","null","","","","","","","","","","","","<img src=images/blank.png width =""500"" height = ""500"" style=""border:5px solid black"">","","",""
"","462.7899999995716","stimulus-presentation","29","150108","0.0-14.0-1.7","SS1604588488439","<img src='images/simple/4.png' width ='500' height = '500' style='border:5px solid black'>","40","all_simple","images/simple/17.png","images/simple/4.png","images/simple/11.png,images/simple/12.png,images/simple/6.png,images/simple/10.png,images/simple/3.png,images/simple/1.png,images/simple/7.png","0","null","","200","662.7899999995716","","","","background","",""
"","null","html-keyboard-response","30","150964","0.0-14.0-0.8","SS1604588488439","","null","","","","","","","","","","","","<img src=images/blank.png width =""500"" height = ""500"" style=""border:5px solid black"">","","",""
"","1938.109999999142","stimulus-presentation","31","153116","0.0-14.0-1.8","SS1604588488439","<img src='images/simple/11.png' width ='500' height = '500' style='border:5px solid black'>","40","all_simple","images/simple/17.png","images/simple/4.png","images/simple/11.png,images/simple/12.png,images/simple/6.png,images/simple/10.png,images/simple/3.png,images/simple/1.png,images/simple/7.png","0","null","","200","2138.109999999142","","","","deviant","",""
"","null","html-keyboard-response","32","154231","0.0-14.0-0.9","SS1604588488439","","null","","","","","","","","","","","","<img src=images/blank.png width =""500"" height = ""500"" style=""border:5px solid black"">","","",""
"","956.3400000006368","stimulus-presentation","33","155404","0.0-14.0-1.9","SS1604588488439","<img src='images/simple/4.png' width ='500' height = '500' style='border:5px solid black'>","40","all_simple","images/simple/17.png","images/simple/4.png","images/simple/11.png,images/simple/12.png,images/simple/6.png,images/simple/10.png,images/simple/3.png,images/simple/1.png,images/simple/7.png","0","null","","200","1156.3400000006368","","","","background","",""
"","null","html-keyboard-response","34","156249","0.0-14.0-0.10","SS1604588488439","","null","","","","","","","","","","","","<img src=images/blank.png width =""500"" height = ""500"" style=""border:5px solid black"">","","",""
"","875.6350000003586","stimulus-presentation","35","157340","0.0-14.0-1.10","SS1604588488439","<img src='images/simple/4.png' width ='500' height = '500' style='border:5px solid black'>","40","all_simple","images/simple/17.png","images/simple/4.png","images/simple/11.png,images/simple/12.png,images/simple/6.png,images/simple/10.png,images/simple/3.png,images/simple/1.png,images/simple/7.png","0","null","","200","1075.6350000003586","","","","background","",""
"","null","html-keyboard-response","36","158565","0.0-14.0-0.11","SS1604588488439","","null","","","","","","","","","","","","<img src=images/blank.png width =""500"" height = ""500"" style=""border:5px solid black"">","","",""
"","1746.2450000002864","stimulus-presentation","37","160524","0.0-14.0-1.11","SS1604588488439","<img src='images/simple/17.png' width ='500' height = '500' style='border:5px solid black'>","40","all_simple","images/simple/17.png","images/simple/4.png","images/simple/11.png,images/simple/12.png,images/simple/6.png,images/simple/10.png,images/simple/3.png,images/simple/1.png,images/simple/7.png","0","null","","200","1946.2450000002864","yes","385.9749999992491","","target","",""
"","null","html-keyboard-response","38","161580","0.0-14.0-0.12","SS1604588488439","","null","","","","","","","","","","","","<img src=images/blank.png width =""500"" height = ""500"" style=""border:5px solid black"">","","",""
"","1432.1850000014529","stimulus-presentation","39","163228","0.0-14.0-1.12","SS1604588488439","<img src='images/simple/17.png' width ='500' height = '500' style='border:5px solid black'>","40","all_simple","images/simple/17.png","images/simple/4.png","images/simple/11.png,images/simple/12.png,images/simple/6.png,images/simple/10.png,images/simple/3.png,images/simple/1.png,images/simple/7.png","0","null","","200","1632.1850000014529","yes","424.0600000011618","","target","",""
"","null","html-keyboard-response","40","164116","0.0-14.0-0.13","SS1604588488439","","null","","","","","","","","","","","","<img src=images/blank.png width =""500"" height = ""500"" style=""border:5px solid black"">","","",""
"","563.5300000012794","stimulus-presentation","41","164892","0.0-14.0-1.13","SS1604588488439","<img src='images/simple/4.png' width ='500' height = '500' style='border:5px solid black'>","40","all_simple","images/simple/17.png","images/simple/4.png","images/simple/11.png,images/simple/12.png,images/simple/6.png,images/simple/10.png,images/simple/3.png,images/simple/1.png,images/simple/7.png","0","null","","200","763.5300000012794","","","","background","",""
"","null","html-keyboard-response","42","165849","0.0-14.0-0.14","SS1604588488439","","null","","","","","","","","","","","","<img src=images/blank.png width =""500"" height = ""500"" style=""border:5px solid black"">","","",""
"","1388.9650000000838","stimulus-presentation","43","167453","0.0-14.0-1.14","SS1604588488439","<img src='images/simple/1.png' width ='500' height = '500' style='border:5px solid black'>","40","all_simple","images/simple/17.png","images/simple/4.png","images/simple/11.png,images/simple/12.png,images/simple/6.png,images/simple/10.png,images/simple/3.png,images/simple/1.png,images/simple/7.png","0","null","","200","1588.9650000000838","","","","deviant","",""
"","null","html-keyboard-response","44","168714","0.0-14.0-0.15","SS1604588488439","","null","","","","","","","","","","","","<img src=images/blank.png width =""500"" height = ""500"" style=""border:5px solid black"">","","",""
"","587.815000000759","stimulus-presentation","45","169516","0.0-14.0-1.15","SS1604588488439","<img src='images/simple/4.png' width ='500' height = '500' style='border:5px solid black'>","40","all_simple","images/simple/17.png","images/simple/4.png","images/simple/11.png,images/simple/12.png,images/simple/6.png,images/simple/10.png,images/simple/3.png,images/simple/1.png,images/simple/7.png","0","null","","200","787.815000000759","","","","background","",""
"","null","html-keyboard-response","46","170599","0.0-14.0-0.16","SS1604588488439","","null","","","","","","","","","","","","<img src=images/blank.png width =""500"" height = ""500"" style=""border:5px solid black"">","","",""
"","853.1949999996868","stimulus-presentation","47","171660","0.0-14.0-1.16","SS1604588488439","<img src='images/simple/4.png' width ='500' height = '500' style='border:5px solid black'>","40","all_simple","images/simple/17.png","images/simple/4.png","images/simple/11.png,images/simple/12.png,images/simple/6.png,images/simple/10.png,images/simple/3.png,images/simple/1.png,images/simple/7.png","0","null","","200","1053.1949999996868","","","","background","",""
"","null","html-keyboard-response","48","172515","0.0-14.0-0.17","SS1604588488439","","null","","","","","","","","","","","","<img src=images/blank.png width =""500"" height = ""500"" style=""border:5px solid black"">","","",""
"","1615.934999999823","stimulus-presentation","49","174348","0.0-14.0-1.17","SS1604588488439","<img src='images/simple/17.png' width ='500' height = '500' style='border:5px solid black'>","40","all_simple","images/simple/17.png","images/simple/4.png","images/simple/11.png,images/simple/12.png,images/simple/6.png,images/simple/10.png,images/simple/3.png,images/simple/1.png,images/simple/7.png","0","null","","200","1815.934999999823","yes","495.7700000013574","","target","",""
"","null","html-keyboard-response","50","175483","0.0-14.0-0.18","SS1604588488439","","null","","","","","","","","","","","","<img src=images/blank.png width =""500"" height = ""500"" style=""border:5px solid black"">","","",""
"","798.6999999993714","stimulus-presentation","51","176492","0.0-14.0-1.18","SS1604588488439","<img src='images/simple/4.png' width ='500' height = '500' style='border:5px solid black'>","40","all_simple","images/simple/17.png","images/simple/4.png","images/simple/11.png,images/simple/12.png,images/simple/6.png,images/simple/10.png,images/simple/3.png,images/simple/1.png,images/simple/7.png","0","null","","200","998.6999999993714","","","","background","",""
"","null","html-keyboard-response","52","177802","0.0-14.0-0.19","SS1604588488439","","null","","","","","","","","","","","","<img src=images/blank.png width =""500"" height = ""500"" style=""border:5px solid black"">","","",""
"","1496.7150000011316","stimulus-presentation","53","179516","0.0-14.0-1.19","SS1604588488439","<img src='images/simple/17.png' width ='500' height = '500' style='border:5px solid black'>","40","all_simple","images/simple/17.png","images/simple/4.png","images/simple/11.png,images/simple/12.png,images/simple/6.png,images/simple/10.png,images/simple/3.png,images/simple/1.png,images/simple/7.png","0","null","","200","1696.7150000011316","yes","424.7900000009686","","target","",""
"","null","html-keyboard-response","54","180600","0.0-14.0-0.20","SS1604588488439","","null","","","","","","","","","","","","<img src=images/blank.png width =""500"" height = ""500"" style=""border:5px solid black"">","","",""
"","780.7499999998836","stimulus-presentation","55","181596","0.0-14.0-1.20","SS1604588488439","<img src='images/simple/4.png' width ='500' height = '500' style='border:5px solid black'>","40","all_simple","images/simple/17.png","images/simple/4.png","images/simple/11.png,images/simple/12.png,images/simple/6.png,images/simple/10.png,images/simple/3.png,images/simple/1.png,images/simple/7.png","0","null","","200","980.7499999998836","","","","background","",""
"","null","html-keyboard-response","56","182717","0.0-14.0-0.21","SS1604588488439","","null","","","","","","","","","","","","<img src=images/blank.png width =""500"" height = ""500"" style=""border:5px solid black"">","","",""
"","1045.8050000015646","stimulus-presentation","57","183980","0.0-14.0-1.21","SS1604588488439","<img src='images/simple/3.png' width ='500' height = '500' style='border:5px solid black'>","40","all_simple","images/simple/17.png","images/simple/4.png","images/simple/11.png,images/simple/12.png,images/simple/6.png,images/simple/10.png,images/simple/3.png,images/simple/1.png,images/simple/7.png","0","null","","200","1245.8050000015646","","","","deviant","",""
"","null","html-keyboard-response","58","185218","0.0-14.0-0.22","SS1604588488439","","null","","","","","","","","","","","","<img src=images/blank.png width =""500"" height = ""500"" style=""border:5px solid black"">","","",""
"","727.3100000002014","stimulus-presentation","59","186156","0.0-14.0-1.22","SS1604588488439","<img src='images/simple/4.png' width ='500' height = '500' style='border:5px solid black'>","40","all_simple","images/simple/17.png","images/simple/4.png","images/simple/11.png,images/simple/12.png,images/simple/6.png,images/simple/10.png,images/simple/3.png,images/simple/1.png,images/simple/7.png","0","null","","200","927.3100000002014","","","","background","",""
"","null","html-keyboard-response","60","187232","0.0-14.0-0.23","SS1604588488439","","null","","","","","","","","","","","","<img src=images/blank.png width =""500"" height = ""500"" style=""border:5px solid black"">","","",""
"","566.1449999988545","stimulus-presentation","61","188012","0.0-14.0-1.23","SS1604588488439","<img src='images/simple/4.png' width ='500' height = '500' style='border:5px solid black'>","40","all_simple","images/simple/17.png","images/simple/4.png","images/simple/11.png,images/simple/12.png,images/simple/6.png,images/simple/10.png,images/simple/3.png,images/simple/1.png,images/simple/7.png","0","null","","200","766.1449999988545","","","","background","",""
"","null","html-keyboard-response","62","188881","0.0-14.0-0.24","SS1604588488439","","null","","","","","","","","","","","","<img src=images/blank.png width =""500"" height = ""500"" style=""border:5px solid black"">","","",""
"","673.1549999985727","stimulus-presentation","63","189772","0.0-14.0-1.24","SS1604588488439","<img src='images/simple/4.png' width ='500' height = '500' style='border:5px solid black'>","40","all_simple","images/simple/17.png","images/simple/4.png","images/simple/11.png,images/simple/12.png,images/simple/6.png,images/simple/10.png,images/simple/3.png,images/simple/1.png,images/simple/7.png","0","null","","200","873.1549999985727","","","","background","",""
"","null","html-keyboard-response","64","190966","0.0-14.0-0.25","SS1604588488439","","null","","","","","","","","","","","","<img src=images/blank.png width =""500"" height = ""500"" style=""border:5px solid black"">","","",""
"","1425.8850000005914","stimulus-presentation","65","192604","0.0-14.0-1.25","SS1604588488439","<img src='images/simple/6.png' width ='500' height = '500' style='border:5px solid black'>","40","all_simple","images/simple/17.png","images/simple/4.png","images/simple/11.png,images/simple/12.png,images/simple/6.png,images/simple/10.png,images/simple/3.png,images/simple/1.png,images/simple/7.png","0","null","","200","1625.8850000005914","","","","deviant","",""
"","null","html-keyboard-response","66","193550","0.0-14.0-0.26","SS1604588488439","","null","","","","","","","","","","","","<img src=images/blank.png width =""500"" height = ""500"" style=""border:5px solid black"">","","",""
"","965.1649999996298","stimulus-presentation","67","194732","0.0-14.0-1.26","SS1604588488439","<img src='images/simple/4.png' width ='500' height = '500' style='border:5px solid black'>","40","all_simple","images/simple/17.png","images/simple/4.png","images/simple/11.png,images/simple/12.png,images/simple/6.png,images/simple/10.png,images/simple/3.png,images/simple/1.png,images/simple/7.png","0","null","","200","1165.1649999996298","","","","background","",""
"","null","html-keyboard-response","68","195983","0.0-14.0-0.27","SS1604588488439","","null","","","","","","","","","","","","<img src=images/blank.png width =""500"" height = ""500"" style=""border:5px solid black"">","","",""
"","1187.079999999667","stimulus-presentation","69","197388","0.0-14.0-1.27","SS1604588488439","<img src='images/simple/17.png' width ='500' height = '500' style='border:5px solid black'>","40","all_simple","images/simple/17.png","images/simple/4.png","images/simple/11.png,images/simple/12.png,images/simple/6.png,images/simple/10.png,images/simple/3.png,images/simple/1.png,images/simple/7.png","0","null","","200","1387.079999999667","yes","370.56999999913387","","target","",""
"","null","html-keyboard-response","70","198400","0.0-14.0-0.28","SS1604588488439","","null","","","","","","","","","","","","<img src=images/blank.png width =""500"" height = ""500"" style=""border:5px solid black"">","","",""
"","817.3550000010291","stimulus-presentation","71","199436","0.0-14.0-1.28","SS1604588488439","<img src='images/simple/4.png' width ='500' height = '500' style='border:5px solid black'>","40","all_simple","images/simple/17.png","images/simple/4.png","images/simple/11.png,images/simple/12.png,images/simple/6.png,images/simple/10.png,images/simple/3.png,images/simple/1.png,images/simple/7.png","0","null","","200","1017.3550000010291","","","","background","",""
"","null","html-keyboard-response","72","200666","0.0-14.0-0.29","SS1604588488439","","null","","","","","","","","","","","","<img src=images/blank.png width =""500"" height = ""500"" style=""border:5px solid black"">","","",""
"","440.5750000005355","stimulus-presentation","73","201324","0.0-14.0-1.29","SS1604588488439","<img src='images/simple/4.png' width ='500' height = '500' style='border:5px solid black'>","40","all_simple","images/simple/17.png","images/simple/4.png","images/simple/11.png,images/simple/12.png,images/simple/6.png,images/simple/10.png,images/simple/3.png,images/simple/1.png,images/simple/7.png","0","null","","200","640.5750000005355","","","","background","",""
"","null","html-keyboard-response","74","202284","0.0-14.0-0.30","SS1604588488439","","null","","","","","","","","","","","","<img src=images/blank.png width =""500"" height = ""500"" style=""border:5px solid black"">","","",""
"","602.7799999992712","stimulus-presentation","75","203100","0.0-14.0-1.30","SS1604588488439","<img src='images/simple/4.png' width ='500' height = '500' style='border:5px solid black'>","40","all_simple","images/simple/17.png","images/simple/4.png","images/simple/11.png,images/simple/12.png,images/simple/6.png,images/simple/10.png,images/simple/3.png,images/simple/1.png,images/simple/7.png","0","null","","200","802.7799999992712","","","","background","",""
"","null","html-keyboard-response","76","204234","0.0-14.0-0.31","SS1604588488439","","null","","","","","","","","","","","","<img src=images/blank.png width =""500"" height = ""500"" style=""border:5px solid black"">","","",""
"","252.5999999998021","stimulus-presentation","77","204700","0.0-14.0-1.31","SS1604588488439","<img src='images/simple/4.png' width ='500' height = '500' style='border:5px solid black'>","40","all_simple","images/simple/17.png","images/simple/4.png","images/simple/11.png,images/simple/12.png,images/simple/6.png,images/simple/10.png,images/simple/3.png,images/simple/1.png,images/simple/7.png","0","null","","200","452.5999999998021","","","","background","",""
"","null","html-keyboard-response","78","205515","0.0-14.0-0.32","SS1604588488439","","null","","","","","","","","","","","","<img src=images/blank.png width =""500"" height = ""500"" style=""border:5px solid black"">","","",""
"","662.4800000008545","stimulus-presentation","79","206396","0.0-14.0-1.32","SS1604588488439","<img src='images/simple/4.png' width ='500' height = '500' style='border:5px solid black'>","40","all_simple","images/simple/17.png","images/simple/4.png","images/simple/11.png,images/simple/12.png,images/simple/6.png,images/simple/10.png,images/simple/3.png,images/simple/1.png,images/simple/7.png","0","null","","200","862.4800000008545","","","","background","",""
"","null","html-keyboard-response","80","207652","0.0-14.0-0.33","SS1604588488439","","null","","","","","","","","","","","","<img src=images/blank.png width =""500"" height = ""500"" style=""border:5px solid black"">","","",""
"","290.8900000001886","stimulus-presentation","81","208156","0.0-14.0-1.33","SS1604588488439","<img src='images/simple/4.png' width ='500' height = '500' style='border:5px solid black'>","40","all_simple","images/simple/17.png","images/simple/4.png","images/simple/11.png,images/simple/12.png,images/simple/6.png,images/simple/10.png,images/simple/3.png,images/simple/1.png,images/simple/7.png","0","null","","200","490.8900000001886","","","","background","",""
"","null","html-keyboard-response","82","209096","0.0-14.0-0.34","SS1604588488439","","null","","","","","","","","","","","","<img src=images/blank.png width =""500"" height = ""500"" style=""border:5px solid black"">","","",""
"","1557.689999999653","stimulus-presentation","83","210858","0.0-14.0-1.34","SS1604588488439","<img src='images/simple/17.png' width ='500' height = '500' style='border:5px solid black'>","40","all_simple","images/simple/17.png","images/simple/4.png","images/simple/11.png,images/simple/12.png,images/simple/6.png,images/simple/10.png,images/simple/3.png,images/simple/1.png,images/simple/7.png","0","null","","200","1757.689999999653","yes","405.70999999908963","","target","",""
"","null","html-keyboard-response","84","211934","0.0-14.0-0.35","SS1604588488439","","null","","","","","","","","","","","","<img src=images/blank.png width =""500"" height = ""500"" style=""border:5px solid black"">","","",""
"","485.3249999996333","stimulus-presentation","85","212636","0.0-14.0-1.35","SS1604588488439","<img src='images/simple/4.png' width ='500' height = '500' style='border:5px solid black'>","40","all_simple","images/simple/17.png","images/simple/4.png","images/simple/11.png,images/simple/12.png,images/simple/6.png,images/simple/10.png,images/simple/3.png,images/simple/1.png,images/simple/7.png","0","null","","200","685.3249999996333","","","","background","",""
"","null","html-keyboard-response","86","213869","0.0-14.0-0.36","SS1604588488439","","null","","","","","","","","","","","","<img src=images/blank.png width =""500"" height = ""500"" style=""border:5px solid black"">","","",""
"","253.1249999992433","stimulus-presentation","87","214332","0.0-14.0-1.36","SS1604588488439","<img src='images/simple/4.png' width ='500' height = '500' style='border:5px solid black'>","40","all_simple","images/simple/17.png","images/simple/4.png","images/simple/11.png,images/simple/12.png,images/simple/6.png,images/simple/10.png,images/simple/3.png,images/simple/1.png,images/simple/7.png","0","null","","200","453.1249999992433","","","","background","",""
"","null","html-keyboard-response","88","215317","0.0-14.0-0.37","SS1604588488439","","null","","","","","","","","","","","","<img src=images/blank.png width =""500"" height = ""500"" style=""border:5px solid black"">","","",""
"","930.1450000002806","stimulus-presentation","89","216460","0.0-14.0-1.37","SS1604588488439","<img src='images/simple/7.png' width ='500' height = '500' style='border:5px solid black'>","40","all_simple","images/simple/17.png","images/simple/4.png","images/simple/11.png,images/simple/12.png,images/simple/6.png,images/simple/10.png,images/simple/3.png,images/simple/1.png,images/simple/7.png","0","null","","200","1130.1450000002806","","","","deviant","",""
"","null","html-keyboard-response","90","217450","0.0-14.0-0.38","SS1604588488439","","null","","","","","","","","","","","","<img src=images/blank.png width =""500"" height = ""500"" style=""border:5px solid black"">","","",""
"","330.60499999919557","stimulus-presentation","91","217995","0.0-14.0-1.38","SS1604588488439","<img src='images/simple/4.png' width ='500' height = '500' style='border:5px solid black'>","40","all_simple","images/simple/17.png","images/simple/4.png","images/simple/11.png,images/simple/12.png,images/simple/6.png,images/simple/10.png,images/simple/3.png,images/simple/1.png,images/simple/7.png","0","null","","200","530.6049999991956","","","","background","",""
"","null","html-keyboard-response","92","218947","0.0-14.0-0.39","SS1604588488439","","null","","","","","","","","","","","","<img src=images/blank.png width =""500"" height = ""500"" style=""border:5px solid black"">","","",""
"","303.724999999773","stimulus-presentation","93","219468","0.0-14.0-1.39","SS1604588488439","<img src='images/simple/4.png' width ='500' height = '500' style='border:5px solid black'>","40","all_simple","images/simple/17.png","images/simple/4.png","images/simple/11.png,images/simple/12.png,images/simple/6.png,images/simple/10.png,images/simple/3.png,images/simple/1.png,images/simple/7.png","0","null","","200","503.724999999773","","","","background","",""
"","null","html-keyboard-response","94","220454","0.0-14.0-0.40","SS1604588488439","","null","","","","","","","","","","","","<img src=images/blank.png width =""500"" height = ""500"" style=""border:5px solid black"">","","",""
"","499.0049999996845","stimulus-presentation","95","221164","0.0-14.0-1.40","SS1604588488439","<img src='images/simple/4.png' width ='500' height = '500' style='border:5px solid black'>","40","all_simple","images/simple/17.png","images/simple/4.png","images/simple/11.png,images/simple/12.png,images/simple/6.png,images/simple/10.png,images/simple/3.png,images/simple/1.png,images/simple/7.png","0","null","","200","699.0049999996845","","","","background","",""
"","null","html-keyboard-response","96","222285","0.0-14.0-0.41","SS1604588488439","","null","","","","","","","","","","","","<img src=images/blank.png width =""500"" height = ""500"" style=""border:5px solid black"">","","",""
"","281.2899999989895","stimulus-presentation","97","222780","0.0-14.0-1.41","SS1604588488439","<img src='images/simple/4.png' width ='500' height = '500' style='border:5px solid black'>","40","all_simple","images/simple/17.png","images/simple/4.png","images/simple/11.png,images/simple/12.png,images/simple/6.png,images/simple/10.png,images/simple/3.png,images/simple/1.png,images/simple/7.png","0","null","","200","481.2899999989895","","","","background","",""
"","null","html-keyboard-response","98","224007","0.0-14.0-0.42","SS1604588488439","","null","","","","","","","","","","","","<img src=images/blank.png width =""500"" height = ""500"" style=""border:5px solid black"">","","",""
"","284.229999999312","stimulus-presentation","99","224508","0.0-14.0-1.42","SS1604588488439","<img src='images/simple/4.png' width ='500' height = '500' style='border:5px solid black'>","40","all_simple","images/simple/17.png","images/simple/4.png","images/simple/11.png,images/simple/12.png,images/simple/6.png,images/simple/10.png,images/simple/3.png,images/simple/1.png,images/simple/7.png","0","null","","200","484.229999999312","","","","background","",""
"","null","html-keyboard-response","100","225704","0.0-14.0-0.43","SS1604588488439","","null","","","","","","","","","","","","<img src=images/blank.png width =""500"" height = ""500"" style=""border:5px solid black"">","","",""
"","1377.6699999998673","stimulus-presentation","101","227292","0.0-14.0-1.43","SS1604588488439","<img src='images/simple/17.png' width ='500' height = '500' style='border:5px solid black'>","40","all_simple","images/simple/17.png","images/simple/4.png","images/simple/11.png,images/simple/12.png,images/simple/6.png,images/simple/10.png,images/simple/3.png,images/simple/1.png,images/simple/7.png","0","null","","200","1577.6699999998673","yes","306.1699999998382","","target","",""
"","null","html-keyboard-response","102","228199","0.0-14.0-0.44","SS1604588488439","","null","","","","","","","","","","","","<img src=images/blank.png width =""500"" height = ""500"" style=""border:5px solid black"">","","",""
"","494.0150000001886","stimulus-presentation","103","228907","0.0-14.0-1.44","SS1604588488439","<img src='images/simple/4.png' width ='500' height = '500' style='border:5px solid black'>","40","all_simple","images/simple/17.png","images/simple/4.png","images/simple/11.png,images/simple/12.png,images/simple/6.png,images/simple/10.png,images/simple/3.png,images/simple/1.png,images/simple/7.png","0","null","","200","694.0150000001886","","","","background","",""
"","null","html-keyboard-response","104","229816","0.0-14.0-0.45","SS1604588488439","","null","","","","","","","","","","","","<img src=images/blank.png width =""500"" height = ""500"" style=""border:5px solid black"">","","",""
"","314.84499999898253","stimulus-presentation","105","230347","0.0-14.0-1.45","SS1604588488439","<img src='images/simple/4.png' width ='500' height = '500' style='border:5px solid black'>","40","all_simple","images/simple/17.png","images/simple/4.png","images/simple/11.png,images/simple/12.png,images/simple/6.png,images/simple/10.png,images/simple/3.png,images/simple/1.png,images/simple/7.png","0","null","","200","514.8449999989825","","","","background","",""
"","null","html-keyboard-response","106","231417","0.0-14.0-0.46","SS1604588488439","","null","","","","","","","","","","","","<img src=images/blank.png width =""500"" height = ""500"" style=""border:5px solid black"">","","",""
"","899.6349999997765","stimulus-presentation","107","232539","0.0-14.0-1.46","SS1604588488439","<img src='images/simple/12.png' width ='500' height = '500' style='border:5px solid black'>","40","all_simple","images/simple/17.png","images/simple/4.png","images/simple/11.png,images/simple/12.png,images/simple/6.png,images/simple/10.png,images/simple/3.png,images/simple/1.png,images/simple/7.png","0","null","","200","1099.6349999997765","","","","deviant","",""
"","null","html-keyboard-response","108","233834","0.0-14.0-0.47","SS1604588488439","","null","","","","","","","","","","","","<img src=images/blank.png width =""500"" height = ""500"" style=""border:5px solid black"">","","",""
"","254.49499999923864","stimulus-presentation","109","234299","0.0-14.0-1.47","SS1604588488439","<img src='images/simple/4.png' width ='500' height = '500' style='border:5px solid black'>","40","all_simple","images/simple/17.png","images/simple/4.png","images/simple/11.png,images/simple/12.png,images/simple/6.png,images/simple/10.png,images/simple/3.png,images/simple/1.png,images/simple/7.png","0","null","","200","454.49499999923864","","","","background","",""
"","null","html-keyboard-response","110","235251","0.0-14.0-0.48","SS1604588488439","","null","","","","","","","","","","","","<img src=images/blank.png width =""500"" height = ""500"" style=""border:5px solid black"">","","",""
"","320.08499999938067","stimulus-presentation","111","235787","0.0-14.0-1.48","SS1604588488439","<img src='images/simple/4.png' width ='500' height = '500' style='border:5px solid black'>","40","all_simple","images/simple/17.png","images/simple/4.png","images/simple/11.png,images/simple/12.png,images/simple/6.png,images/simple/10.png,images/simple/3.png,images/simple/1.png,images/simple/7.png","0","null","","200","520.0849999993807","","","","background","",""
"[{""page_index"":0,""viewing_time"":3551}]","3551","task-instructions","112","239346","0.0-15.0","SS1604588488439","","","","","","","","","","","","","","","","",""
"[{""page_index"":0,""viewing_time"":3106.0450000004494},{""page_index"":1,""viewing_time"":3233.8500000005297},{""page_index"":2,""viewing_time"":2197.9499999997497}]","8538.07500000039","instructions","113","247886","0.0-16.0","SS1604588488439","","","","","","","","","","","","","","","","",""
"","null","html-keyboard-response","114","248967","0.0-17.0-0.0","SS1604588488439","","null","","","","","","","","","","","","<img src=images/blank.png width =""500"" height = ""500"" style=""border:5px solid black"">","","",""
"","1022.1050000000105","stimulus-presentation","115","250203","0.0-17.0-1.0","SS1604588488439","<img src='images/simple/9.png' width ='500' height = '500' style='border:5px solid black'>","40","mixed_complex_deviant","images/simple/18.png","images/simple/9.png","images/complex/9.png,images/complex/17.png,images/complex/12.png,images/complex/5.png,images/complex/15.png,images/complex/14.png,images/complex/8.png","1","null","","200","1222.1050000000105","","","","background","",""
"","null","html-keyboard-response","116","251456","0.0-17.0-0.1","SS1604588488439","","null","","","","","","","","","","","","<img src=images/blank.png width =""500"" height = ""500"" style=""border:5px solid black"">","","",""
"","771.5299999999697","stimulus-presentation","117","252443","0.0-17.0-1.1","SS1604588488439","<img src='images/complex/14.png' width ='500' height = '500' style='border:5px solid black'>","40","mixed_complex_deviant","images/simple/18.png","images/simple/9.png","images/complex/9.png,images/complex/17.png,images/complex/12.png,images/complex/5.png,images/complex/15.png,images/complex/14.png,images/complex/8.png","1","null","","200","971.5299999999697","","","","deviant","",""
"","null","html-keyboard-response","118","253334","0.0-17.0-0.2","SS1604588488439","","null","","","","","","","","","","","","<img src=images/blank.png width =""500"" height = ""500"" style=""border:5px solid black"">","","",""
"","619.8699999986275","stimulus-presentation","119","254171","0.0-17.0-1.2","SS1604588488439","<img src='images/simple/9.png' width ='500' height = '500' style='border:5px solid black'>","40","mixed_complex_deviant","images/simple/18.png","images/simple/9.png","images/complex/9.png,images/complex/17.png,images/complex/12.png,images/complex/5.png,images/complex/15.png,images/complex/14.png,images/complex/8.png","1","null","","200","819.8699999986275","","","","background","",""
"","null","html-keyboard-response","120","255251","0.0-17.0-0.3","SS1604588488439","","null","","","","","","","","","","","","<img src=images/blank.png width =""500"" height = ""500"" style=""border:5px solid black"">","","",""
"","423.11499999961234","stimulus-presentation","121","255883","0.0-17.0-1.3","SS1604588488439","<img src='images/simple/9.png' width ='500' height = '500' style='border:5px solid black'>","40","mixed_complex_deviant","images/simple/18.png","images/simple/9.png","images/complex/9.png,images/complex/17.png,images/complex/12.png,images/complex/5.png,images/complex/15.png,images/complex/14.png,images/complex/8.png","1","null","","200","623.1149999996123","","","","background","",""
"","null","html-keyboard-response","122","256788","0.0-17.0-0.4","SS1604588488439","","null","","","","","","","","","","","","<img src=images/blank.png width =""500"" height = ""500"" style=""border:5px solid black"">","","",""
"","2121.9600000004284","stimulus-presentation","123","259131","0.0-17.0-1.4","SS1604588488439","<img src='images/complex/9.png' width ='500' height = '500' style='border:5px solid black'>","40","mixed_complex_deviant","images/simple/18.png","images/simple/9.png","images/complex/9.png,images/complex/17.png,images/complex/12.png,images/complex/5.png,images/complex/15.png,images/complex/14.png,images/complex/8.png","1","null","","200","2321.9600000004284","","","","deviant","",""
"","null","html-keyboard-response","124","260342","0.0-17.0-0.5","SS1604588488439","","null","","","","","","","","","","","","<img src=images/blank.png width =""500"" height = ""500"" style=""border:5px solid black"">","","",""
"","397.27500000118744","stimulus-presentation","125","260955","0.0-17.0-1.5","SS1604588488439","<img src='images/simple/9.png' width ='500' height = '500' style='border:5px solid black'>","40","mixed_complex_deviant","images/simple/18.png","images/simple/9.png","images/complex/9.png,images/complex/17.png,images/complex/12.png,images/complex/5.png,images/complex/15.png,images/complex/14.png,images/complex/8.png","1","null","","200","597.2750000011874","","","","background","",""
"","null","html-keyboard-response","126","262132","0.0-17.0-0.6","SS1604588488439","","null","","","","","","","","","","","","<img src=images/blank.png width =""500"" height = ""500"" style=""border:5px solid black"">","","",""
"","540.3449999994482","stimulus-presentation","127","262891","0.0-17.0-1.6","SS1604588488439","<img src='images/simple/9.png' width ='500' height = '500' style='border:5px solid black'>","40","mixed_complex_deviant","images/simple/18.png","images/simple/9.png","images/complex/9.png,images/complex/17.png,images/complex/12.png,images/complex/5.png,images/complex/15.png,images/complex/14.png,images/complex/8.png","1","null","","200","740.3449999994482","","","","background","",""
"","null","html-keyboard-response","128","263896","0.0-17.0-0.7","SS1604588488439","","null","","","","","","","","","","","","<img src=images/blank.png width =""500"" height = ""500"" style=""border:5px solid black"">","","",""
"","662.7449999996461","stimulus-presentation","129","264779","0.0-17.0-1.7","SS1604588488439","<img src='images/simple/9.png' width ='500' height = '500' style='border:5px solid black'>","40","mixed_complex_deviant","images/simple/18.png","images/simple/9.png","images/complex/9.png,images/complex/17.png,images/complex/12.png,images/complex/5.png,images/complex/15.png,images/complex/14.png,images/complex/8.png","1","null","","200","862.7449999996461","","","","background","",""
"","null","html-keyboard-response","130","266051","0.0-17.0-0.8","SS1604588488439","","null","","","","","","","","","","","","<img src=images/blank.png width =""500"" height = ""500"" style=""border:5px solid black"">","","",""
"","402.7000000005355","stimulus-presentation","131","266667","0.0-17.0-1.8","SS1604588488439","<img src='images/simple/9.png' width ='500' height = '500' style='border:5px solid black'>","40","mixed_complex_deviant","images/simple/18.png","images/simple/9.png","images/complex/9.png,images/complex/17.png,images/complex/12.png,images/complex/5.png,images/complex/15.png,images/complex/14.png,images/complex/8.png","1","null","","200","602.7000000005355","","","","background","",""
"","null","html-keyboard-response","132","267885","0.0-17.0-0.9","SS1604588488439","","null","","","","","","","","","","","","<img src=images/blank.png width =""500"" height = ""500"" style=""border:5px solid black"">","","",""
"","526.7400000011548","stimulus-presentation","133","268635","0.0-17.0-1.9","SS1604588488439","<img src='images/simple/9.png' width ='500' height = '500' style='border:5px solid black'>","40","mixed_complex_deviant","images/simple/18.png","images/simple/9.png","images/complex/9.png,images/complex/17.png,images/complex/12.png,images/complex/5.png,images/complex/15.png,images/complex/14.png,images/complex/8.png","1","null","","200","726.7400000011548","","","","background","",""
"","null","html-keyboard-response","134","269685","0.0-17.0-0.10","SS1604588488439","","null","","","","","","","","","","","","<img src=images/blank.png width =""500"" height = ""500"" style=""border:5px solid black"">","","",""
"","1364.3549999997485","stimulus-presentation","135","271259","0.0-17.0-1.10","SS1604588488439","<img src='images/complex/17.png' width ='500' height = '500' style='border:5px solid black'>","40","mixed_complex_deviant","images/simple/18.png","images/simple/9.png","images/complex/9.png,images/complex/17.png,images/complex/12.png,images/complex/5.png,images/complex/15.png,images/complex/14.png,images/complex/8.png","1","null","","200","1564.3549999997485","","","","deviant","",""
"","null","html-keyboard-response","136","272517","0.0-17.0-0.11","SS1604588488439","","null","","","","","","","","","","","","<img src=images/blank.png width =""500"" height = ""500"" style=""border:5px solid black"">","","",""
"","1035.450000001234","stimulus-presentation","137","273771","0.0-17.0-1.11","SS1604588488439","<img src='images/simple/18.png' width ='500' height = '500' style='border:5px solid black'>","40","mixed_complex_deviant","images/simple/18.png","images/simple/9.png","images/complex/9.png,images/complex/17.png,images/complex/12.png,images/complex/5.png,images/complex/15.png,images/complex/14.png,images/complex/8.png","1","null","","200","1235.450000001234","yes","331.210000000312","","target","",""
"","null","html-keyboard-response","138","274884","0.0-17.0-0.12","SS1604588488439","","null","","","","","","","","","","","","<img src=images/blank.png width =""500"" height = ""500"" style=""border:5px solid black"">","","",""
"","718.0300000000279","stimulus-presentation","139","275819","0.0-17.0-1.12","SS1604588488439","<img src='images/simple/9.png' width ='500' height = '500' style='border:5px solid black'>","40","mixed_complex_deviant","images/simple/18.png","images/simple/9.png","images/complex/9.png,images/complex/17.png,images/complex/12.png,images/complex/5.png,images/complex/15.png,images/complex/14.png,images/complex/8.png","1","null","","200","918.0300000000279","","","","background","",""
"","null","html-keyboard-response","140","276868","0.0-17.0-0.13","SS1604588488439","","null","","","","","","","","","","","","<img src=images/blank.png width =""500"" height = ""500"" style=""border:5px solid black"">","","",""
"","606.6199999986566","stimulus-presentation","141","277691","0.0-17.0-1.13","SS1604588488439","<img src='images/simple/9.png' width ='500' height = '500' style='border:5px solid black'>","40","mixed_complex_deviant","images/simple/18.png","images/simple/9.png","images/complex/9.png,images/complex/17.png,images/complex/12.png,images/complex/5.png,images/complex/15.png,images/complex/14.png,images/complex/8.png","1","null","","200","806.6199999986566","","","","background","",""
"","null","html-keyboard-response","142","278786","0.0-17.0-0.14","SS1604588488439","","null","","","","","","","","","","","","<img src=images/blank.png width =""500"" height = ""500"" style=""border:5px solid black"">","","",""
"","640.7799999996787","stimulus-presentation","143","279643","0.0-17.0-1.14","SS1604588488439","<img src='images/simple/9.png' width ='500' height = '500' style='border:5px solid black'>","40","mixed_complex_deviant","images/simple/18.png","images/simple/9.png","images/complex/9.png,images/complex/17.png,images/complex/12.png,images/complex/5.png,images/complex/15.png,images/complex/14.png,images/complex/8.png","1","null","","200","840.7799999996787","","","","background","",""
"","null","html-keyboard-response","144","280485","0.0-17.0-0.15","SS1604588488439","","null","","","","","","","","","","","","<img src=images/blank.png width =""500"" height = ""500"" style=""border:5px solid black"">","","",""
"","1791.0100000008242","stimulus-presentation","145","282491","0.0-17.0-1.15","SS1604588488439","<img src='images/complex/15.png' width ='500' height = '500' style='border:5px solid black'>","40","mixed_complex_deviant","images/simple/18.png","images/simple/9.png","images/complex/9.png,images/complex/17.png,images/complex/12.png,images/complex/5.png,images/complex/15.png,images/complex/14.png,images/complex/8.png","1","null","","200","1991.0100000008242","","","","deviant","",""
"","null","html-keyboard-response","146","283802","0.0-17.0-0.16","SS1604588488439","","null","","","","","","","","","","","","<img src=images/blank.png width =""500"" height = ""500"" style=""border:5px solid black"">","","",""
"","1657.2549999982584","stimulus-presentation","147","285675","0.0-17.0-1.16","SS1604588488439","<img src='images/simple/18.png' width ='500' height = '500' style='border:5px solid black'>","40","mixed_complex_deviant","images/simple/18.png","images/simple/9.png","images/complex/9.png,images/complex/17.png,images/complex/12.png,images/complex/5.png,images/complex/15.png,images/complex/14.png,images/complex/8.png","1","null","","200","1857.2549999982584","yes","489.6749999988824","","target","",""
"","null","html-keyboard-response","148","286535","0.0-17.0-0.17","SS1604588488439","","null","","","","","","","","","","","","<img src=images/blank.png width =""500"" height = ""500"" style=""border:5px solid black"">","","",""
"","1232.5550000005169","stimulus-presentation","149","287979","0.0-17.0-1.17","SS1604588488439","<img src='images/simple/18.png' width ='500' height = '500' style='border:5px solid black'>","40","mixed_complex_deviant","images/simple/18.png","images/simple/9.png","images/complex/9.png,images/complex/17.png,images/complex/12.png,images/complex/5.png,images/complex/15.png,images/complex/14.png,images/complex/8.png","1","null","","200","1432.5550000005169","yes","496.62499999976717","","target","",""
"","null","html-keyboard-response","150","289234","0.0-17.0-0.18","SS1604588488439","","null","","","","","","","","","","","","<img src=images/blank.png width =""500"" height = ""500"" style=""border:5px solid black"">","","",""
"","1685.5649999997695","stimulus-presentation","151","291131","0.0-17.0-1.18","SS1604588488439","<img src='images/complex/8.png' width ='500' height = '500' style='border:5px solid black'>","40","mixed_complex_deviant","images/simple/18.png","images/simple/9.png","images/complex/9.png,images/complex/17.png,images/complex/12.png,images/complex/5.png,images/complex/15.png,images/complex/14.png,images/complex/8.png","1","null","","200","1885.5649999997695","","","","deviant","",""
"","null","html-keyboard-response","152","292238","0.0-17.0-0.19","SS1604588488439","","null","","","","","","","","","","","","<img src=images/blank.png width =""500"" height = ""500"" style=""border:5px solid black"">","","",""
"","1638.8499999993946","stimulus-presentation","153","294091","0.0-17.0-1.19","SS1604588488439","<img src='images/simple/9.png' width ='500' height = '500' style='border:5px solid black'>","40","mixed_complex_deviant","images/simple/18.png","images/simple/9.png","images/complex/9.png,images/complex/17.png,images/complex/12.png,images/complex/5.png,images/complex/15.png,images/complex/14.png,images/complex/8.png","1","null","","200","1838.8499999993946","","","","background","",""
"","null","html-keyboard-response","154","295386","0.0-17.0-0.20","SS1604588488439","","null","","","","","","","","","","","","<img src=images/blank.png width =""500"" height = ""500"" style=""border:5px solid black"">","","",""
"","536.235000001383","stimulus-presentation","155","296139","0.0-17.0-1.20","SS1604588488439","<img src='images/simple/9.png' width ='500' height = '500' style='border:5px solid black'>","40","mixed_complex_deviant","images/simple/18.png","images/simple/9.png","images/complex/9.png,images/complex/17.png,images/complex/12.png,images/complex/5.png,images/complex/15.png,images/complex/14.png,images/complex/8.png","1","null","","200","736.235000001383","","","","background","",""
"","null","html-keyboard-response","156","297086","0.0-17.0-0.21","SS1604588488439","","null","","","","","","","","","","","","<img src=images/blank.png width =""500"" height = ""500"" style=""border:5px solid black"">","","",""
"","1607.4799999988172","stimulus-presentation","157","298907","0.0-17.0-1.21","SS1604588488439","<img src='images/simple/18.png' width ='500' height = '500' style='border:5px solid black'>","40","mixed_complex_deviant","images/simple/18.png","images/simple/9.png","images/complex/9.png,images/complex/17.png,images/complex/12.png,images/complex/5.png,images/complex/15.png,images/complex/14.png,images/complex/8.png","1","null","","200","1807.4799999988172","yes","551.4899999998743","","target","",""
"","null","html-keyboard-response","158","300002","0.0-17.0-0.22","SS1604588488439","","null","","","","","","","","","","","","<img src=images/blank.png width =""500"" height = ""500"" style=""border:5px solid black"">","","",""
"","809.8150000005262","stimulus-presentation","159","301035","0.0-17.0-1.22","SS1604588488439","<img src='images/simple/9.png' width ='500' height = '500' style='border:5px solid black'>","40","mixed_complex_deviant","images/simple/18.png","images/simple/9.png","images/complex/9.png,images/complex/17.png,images/complex/12.png,images/complex/5.png,images/complex/15.png,images/complex/14.png,images/complex/8.png","1","null","","200","1009.8150000005262","","","","background","",""
"","null","html-keyboard-response","160","302051","0.0-17.0-0.23","SS1604588488439","","null","","","","","","","","","","","","<img src=images/blank.png width =""500"" height = ""500"" style=""border:5px solid black"">","","",""
"","912.1699999995762","stimulus-presentation","161","303179","0.0-17.0-1.23","SS1604588488439","<img src='images/simple/9.png' width ='500' height = '500' style='border:5px solid black'>","40","mixed_complex_deviant","images/simple/18.png","images/simple/9.png","images/complex/9.png,images/complex/17.png,images/complex/12.png,images/complex/5.png,images/complex/15.png,images/complex/14.png,images/complex/8.png","1","null","","200","1112.1699999995762","","","","background","",""
"","null","html-keyboard-response","162","304086","0.0-17.0-0.24","SS1604588488439","","null","","","","","","","","","","","","<img src=images/blank.png width =""500"" height = ""500"" style=""border:5px solid black"">","","",""
"","1293.0750000013504","stimulus-presentation","163","305595","0.0-17.0-1.24","SS1604588488439","<img src='images/complex/5.png' width ='500' height = '500' style='border:5px solid black'>","40","mixed_complex_deviant","images/simple/18.png","images/simple/9.png","images/complex/9.png,images/complex/17.png,images/complex/12.png,images/complex/5.png,images/complex/15.png,images/complex/14.png,images/complex/8.png","1","null","","200","1493.0750000013504","","","","deviant","",""
"","null","html-keyboard-response","164","306819","0.0-17.0-0.25","SS1604588488439","","null","","","","","","","","","","","","<img src=images/blank.png width =""500"" height = ""500"" style=""border:5px solid black"">","","",""
"","386.5299999997951","stimulus-presentation","165","307419","0.0-17.0-1.25","SS1604588488439","<img src='images/simple/9.png' width ='500' height = '500' style='border:5px solid black'>","40","mixed_complex_deviant","images/simple/18.png","images/simple/9.png","images/complex/9.png,images/complex/17.png,images/complex/12.png,images/complex/5.png,images/complex/15.png,images/complex/14.png,images/complex/8.png","1","null","","200","586.5299999997951","","","","background","",""
"","null","html-keyboard-response","166","308386","0.0-17.0-0.26","SS1604588488439","","null","","","","","","","","","","","","<img src=images/blank.png width =""500"" height = ""500"" style=""border:5px solid black"">","","",""
"","563.0700000001234","stimulus-presentation","167","309163","0.0-17.0-1.26","SS1604588488439","<img src='images/simple/9.png' width ='500' height = '500' style='border:5px solid black'>","40","mixed_complex_deviant","images/simple/18.png","images/simple/9.png","images/complex/9.png,images/complex/17.png,images/complex/12.png,images/complex/5.png,images/complex/15.png,images/complex/14.png,images/complex/8.png","1","null","","200","763.0700000001234","","","","background","",""
"","null","html-keyboard-response","168","310369","0.0-17.0-0.27","SS1604588488439","","null","","","","","","","","","","","","<img src=images/blank.png width =""500"" height = ""500"" style=""border:5px solid black"">","","",""
"","386.4949999988312","stimulus-presentation","169","310971","0.0-17.0-1.27","SS1604588488439","<img src='images/simple/9.png' width ='500' height = '500' style='border:5px solid black'>","40","mixed_complex_deviant","images/simple/18.png","images/simple/9.png","images/complex/9.png,images/complex/17.png,images/complex/12.png,images/complex/5.png,images/complex/15.png,images/complex/14.png,images/complex/8.png","1","null","","200","586.4949999988312","","","","background","",""
"","null","html-keyboard-response","170","311886","0.0-17.0-0.28","SS1604588488439","","null","","","","","","","","","","","","<img src=images/blank.png width =""500"" height = ""500"" style=""border:5px solid black"">","","",""
"","1923.0700000007637","stimulus-presentation","171","314027","0.0-17.0-1.28","SS1604588488439","<img src='images/simple/18.png' width ='500' height = '500' style='border:5px solid black'>","40","mixed_complex_deviant","images/simple/18.png","images/simple/9.png","images/complex/9.png,images/complex/17.png,images/complex/12.png,images/complex/5.png,images/complex/15.png,images/complex/14.png,images/complex/8.png","1","null","","200","2123.0700000007637","yes","323.0899999999092","","target","",""
"","null","html-keyboard-response","172","314903","0.0-17.0-0.29","SS1604588488439","","null","","","","","","","","","","","","<img src=images/blank.png width =""500"" height = ""500"" style=""border:5px solid black"">","","",""
"","729.0999999986379","stimulus-presentation","173","315851","0.0-17.0-1.29","SS1604588488439","<img src='images/simple/9.png' width ='500' height = '500' style='border:5px solid black'>","40","mixed_complex_deviant","images/simple/18.png","images/simple/9.png","images/complex/9.png,images/complex/17.png,images/complex/12.png,images/complex/5.png,images/complex/15.png,images/complex/14.png,images/complex/8.png","1","null","","200","929.0999999986379","","","","background","",""
"","null","html-keyboard-response","174","316919","0.0-17.0-0.30","SS1604588488439","","null","","","","","","","","","","","","<img src=images/blank.png width =""500"" height = ""500"" style=""border:5px solid black"">","","",""
"","365.49499999999534","stimulus-presentation","175","317499","0.0-17.0-1.30","SS1604588488439","<img src='images/simple/9.png' width ='500' height = '500' style='border:5px solid black'>","40","mixed_complex_deviant","images/simple/18.png","images/simple/9.png","images/complex/9.png,images/complex/17.png,images/complex/12.png,images/complex/5.png,images/complex/15.png,images/complex/14.png,images/complex/8.png","1","null","","200","565.4949999999953","","","","background","",""
"","null","html-keyboard-response","176","318751","0.0-17.0-0.31","SS1604588488439","","null","","","","","","","","","","","","<img src=images/blank.png width =""500"" height = ""500"" style=""border:5px solid black"">","","",""
"","249.165000001085","stimulus-presentation","177","319211","0.0-17.0-1.31","SS1604588488439","<img src='images/simple/9.png' width ='500' height = '500' style='border:5px solid black'>","40","mixed_complex_deviant","images/simple/18.png","images/simple/9.png","images/complex/9.png,images/complex/17.png,images/complex/12.png,images/complex/5.png,images/complex/15.png,images/complex/14.png,images/complex/8.png","1","null","","200","449.165000001085","","","","background","",""
"","null","html-keyboard-response","178","320137","0.0-17.0-0.32","SS1604588488439","","null","","","","","","","","","","","","<img src=images/blank.png width =""500"" height = ""500"" style=""border:5px solid black"">","","",""
"","641.6649999992223","stimulus-presentation","179","321003","0.0-17.0-1.32","SS1604588488439","<img src='images/simple/9.png' width ='500' height = '500' style='border:5px solid black'>","40","mixed_complex_deviant","images/simple/18.png","images/simple/9.png","images/complex/9.png,images/complex/17.png,images/complex/12.png,images/complex/5.png,images/complex/15.png,images/complex/14.png,images/complex/8.png","1","null","","200","841.6649999992223","","","","background","",""
"","null","html-keyboard-response","180","322159","0.0-17.0-0.33","SS1604588488439","","null","","","","","","","","","","","","<img src=images/blank.png width =""500"" height = ""500"" style=""border:5px solid black"">","","",""
"","394.5899999999092","stimulus-presentation","181","322778","0.0-17.0-1.33","SS1604588488439","<img src='images/simple/9.png' width ='500' height = '500' style='border:5px solid black'>","40","mixed_complex_deviant","images/simple/18.png","images/simple/9.png","images/complex/9.png,images/complex/17.png,images/complex/12.png,images/complex/5.png,images/complex/15.png,images/complex/14.png,images/complex/8.png","1","null","","200","594.5899999999092","","","","background","",""
"","null","html-keyboard-response","182","323640","0.0-17.0-0.34","SS1604588488439","","null","","","","","","","","","","","","<img src=images/blank.png width =""500"" height = ""500"" style=""border:5px solid black"">","","",""
"","325.5600000011036","stimulus-presentation","183","324187","0.0-17.0-1.34","SS1604588488439","<img src='images/simple/9.png' width ='500' height = '500' style='border:5px solid black'>","40","mixed_complex_deviant","images/simple/18.png","images/simple/9.png","images/complex/9.png,images/complex/17.png,images/complex/12.png,images/complex/5.png,images/complex/15.png,images/complex/14.png,images/complex/8.png","1","null","","200","525.5600000011036","","","","background","",""
"","null","html-keyboard-response","184","325153","0.0-17.0-0.35","SS1604588488439","","null","","","","","","","","","","","","<img src=images/blank.png width =""500"" height = ""500"" style=""border:5px solid black"">","","",""
"","302.5500000003376","stimulus-presentation","185","325674","0.0-17.0-1.35","SS1604588488439","<img src='images/simple/9.png' width ='500' height = '500' style='border:5px solid black'>","40","mixed_complex_deviant","images/simple/18.png","images/simple/9.png","images/complex/9.png,images/complex/17.png,images/complex/12.png,images/complex/5.png,images/complex/15.png,images/complex/14.png,images/complex/8.png","1","null","","200","502.5500000003376","","","","background","",""
"","null","html-keyboard-response","186","326868","0.0-17.0-0.36","SS1604588488439","","null","","","","","","","","","","","","<img src=images/blank.png width =""500"" height = ""500"" style=""border:5px solid black"">","","",""
"","563.1100000009174","stimulus-presentation","187","327643","0.0-17.0-1.36","SS1604588488439","<img src='images/simple/9.png' width ='500' height = '500' style='border:5px solid black'>","40","mixed_complex_deviant","images/simple/18.png","images/simple/9.png","images/complex/9.png,images/complex/17.png,images/complex/12.png,images/complex/5.png,images/complex/15.png,images/complex/14.png,images/complex/8.png","1","null","","200","763.1100000009174","","","","background","",""
"","null","html-keyboard-response","188","328937","0.0-17.0-0.37","SS1604588488439","","null","","","","","","","","","","","","<img src=images/blank.png width =""500"" height = ""500"" style=""border:5px solid black"">","","",""
"","1519.4400000000605","stimulus-presentation","189","330683","0.0-17.0-1.37","SS1604588488439","<img src='images/complex/12.png' width ='500' height = '500' style='border:5px solid black'>","40","mixed_complex_deviant","images/simple/18.png","images/simple/9.png","images/complex/9.png,images/complex/17.png,images/complex/12.png,images/complex/5.png,images/complex/15.png,images/complex/14.png,images/complex/8.png","1","null","","200","1719.4400000000605","","","","deviant","",""
"","null","html-keyboard-response","190","331754","0.0-17.0-0.38","SS1604588488439","","null","","","","","","","","","","","","<img src=images/blank.png width =""500"" height = ""500"" style=""border:5px solid black"">","","",""
"","321.9549999994342","stimulus-presentation","191","332299","0.0-17.0-1.38","SS1604588488439","<img src='images/simple/9.png' width ='500' height = '500' style='border:5px solid black'>","40","mixed_complex_deviant","images/simple/18.png","images/simple/9.png","images/complex/9.png,images/complex/17.png,images/complex/12.png,images/complex/5.png,images/complex/15.png,images/complex/14.png,images/complex/8.png","1","null","","200","521.9549999994342","","","","background","",""
"","null","html-keyboard-response","192","333271","0.0-17.0-0.39","SS1604588488439","","null","","","","","","","","","","","","<img src=images/blank.png width =""500"" height = ""500"" style=""border:5px solid black"">","","",""
"","317.73000000067987","stimulus-presentation","193","333802","0.0-17.0-1.39","SS1604588488439","<img src='images/simple/9.png' width ='500' height = '500' style='border:5px solid black'>","40","mixed_complex_deviant","images/simple/18.png","images/simple/9.png","images/complex/9.png,images/complex/17.png,images/complex/12.png,images/complex/5.png,images/complex/15.png,images/complex/14.png,images/complex/8.png","1","null","","200","517.7300000006799","","","","background","",""
"","null","html-keyboard-response","194","334869","0.0-17.0-0.40","SS1604588488439","","null","","","","","","","","","","","","<img src=images/blank.png width =""500"" height = ""500"" style=""border:5px solid black"">","","",""
"","267.78000000008615","stimulus-presentation","195","335354","0.0-17.0-1.40","SS1604588488439","<img src='images/simple/9.png' width ='500' height = '500' style='border:5px solid black'>","40","mixed_complex_deviant","images/simple/18.png","images/simple/9.png","images/complex/9.png,images/complex/17.png,images/complex/12.png,images/complex/5.png,images/complex/15.png,images/complex/14.png,images/complex/8.png","1","null","","200","467.78000000008615","","","","background","",""
"","null","html-keyboard-response","196","336337","0.0-17.0-0.41","SS1604588488439","","null","","","","","","","","","","","","<img src=images/blank.png width =""500"" height = ""500"" style=""border:5px solid black"">","","",""
"","514.5950000005541","stimulus-presentation","197","337066","0.0-17.0-1.41","SS1604588488439","<img src='images/simple/9.png' width ='500' height = '500' style='border:5px solid black'>","40","mixed_complex_deviant","images/simple/18.png","images/simple/9.png","images/complex/9.png,images/complex/17.png,images/complex/12.png,images/complex/5.png,images/complex/15.png,images/complex/14.png,images/complex/8.png","1","null","","200","714.5950000005541","","","","background","",""
"","null","html-keyboard-response","198","338337","0.0-17.0-0.42","SS1604588488439","","null","","","","","","","","","","","","<img src=images/blank.png width =""500"" height = ""500"" style=""border:5px solid black"">","","",""
"","274.9499999990803","stimulus-presentation","199","338827","0.0-17.0-1.42","SS1604588488439","<img src='images/simple/9.png' width ='500' height = '500' style='border:5px solid black'>","40","mixed_complex_deviant","images/simple/18.png","images/simple/9.png","images/complex/9.png,images/complex/17.png,images/complex/12.png,images/complex/5.png,images/complex/15.png,images/complex/14.png,images/complex/8.png","1","null","","200","474.9499999990803","","","","background","",""
"","null","html-keyboard-response","200","339754","0.0-17.0-0.43","SS1604588488439","","null","","","","","","","","","","","","<img src=images/blank.png width =""500"" height = ""500"" style=""border:5px solid black"">","","",""
"","1128.7250000005006","stimulus-presentation","201","341098","0.0-17.0-1.43","SS1604588488439","<img src='images/simple/18.png' width ='500' height = '500' style='border:5px solid black'>","40","mixed_complex_deviant","images/simple/18.png","images/simple/9.png","images/complex/9.png,images/complex/17.png,images/complex/12.png,images/complex/5.png,images/complex/15.png,images/complex/14.png,images/complex/8.png","1","null","","200","1328.7250000005006","yes","424.74000000039814","","target","",""
"","null","html-keyboard-response","202","342103","0.0-17.0-0.44","SS1604588488439","","null","","","","","","","","","","","","<img src=images/blank.png width =""500"" height = ""500"" style=""border:5px solid black"">","","",""
"","347.9649999990361","stimulus-presentation","203","342666","0.0-17.0-1.44","SS1604588488439","<img src='images/simple/9.png' width ='500' height = '500' style='border:5px solid black'>","40","mixed_complex_deviant","images/simple/18.png","images/simple/9.png","images/complex/9.png,images/complex/17.png,images/complex/12.png,images/complex/5.png,images/complex/15.png,images/complex/14.png,images/complex/8.png","1","null","","200","547.9649999990361","","","","background","",""
"","null","html-keyboard-response","204","343859","0.0-17.0-0.45","SS1604588488439","","null","","","","","","","","","","","","<img src=images/blank.png width =""500"" height = ""500"" style=""border:5px solid black"">","","",""
"","258.4649999989779","stimulus-presentation","205","344346","0.0-17.0-1.45","SS1604588488439","<img src='images/simple/9.png' width ='500' height = '500' style='border:5px solid black'>","40","mixed_complex_deviant","images/simple/18.png","images/simple/9.png","images/complex/9.png,images/complex/17.png,images/complex/12.png,images/complex/5.png,images/complex/15.png,images/complex/14.png,images/complex/8.png","1","null","","200","458.4649999989779","","","","background","",""
"","null","html-keyboard-response","206","345485","0.0-17.0-0.46","SS1604588488439","","null","","","","","","","","","","","","<img src=images/blank.png width =""500"" height = ""500"" style=""border:5px solid black"">","","",""
"","317.8400000014808","stimulus-presentation","207","346026","0.0-17.0-1.46","SS1604588488439","<img src='images/simple/9.png' width ='500' height = '500' style='border:5px solid black'>","40","mixed_complex_deviant","images/simple/18.png","images/simple/9.png","images/complex/9.png,images/complex/17.png,images/complex/12.png,images/complex/5.png,images/complex/15.png,images/complex/14.png,images/complex/8.png","1","null","","200","517.8400000014808","","","","background","",""
"","null","html-keyboard-response","208","346986","0.0-17.0-0.47","SS1604588488439","","null","","","","","","","","","","","","<img src=images/blank.png width =""500"" height = ""500"" style=""border:5px solid black"">","","",""
"","348.02999999921303","stimulus-presentation","209","347546","0.0-17.0-1.47","SS1604588488439","<img src='images/simple/9.png' width ='500' height = '500' style='border:5px solid black'>","40","mixed_complex_deviant","images/simple/18.png","images/simple/9.png","images/complex/9.png,images/complex/17.png,images/complex/12.png,images/complex/5.png,images/complex/15.png,images/complex/14.png,images/complex/8.png","1","null","","200","548.029999999213","","","","background","",""
"","null","html-keyboard-response","210","348853","0.0-17.0-0.48","SS1604588488439","","null","","","","","","","","","","","","<img src=images/blank.png width =""500"" height = ""500"" style=""border:5px solid black"">","","",""
"","1245.425000000978","stimulus-presentation","211","350314","0.0-17.0-1.48","SS1604588488439","<img src='images/simple/18.png' width ='500' height = '500' style='border:5px solid black'>","40","mixed_complex_deviant","images/simple/18.png","images/simple/9.png","images/complex/9.png,images/complex/17.png,images/complex/12.png,images/complex/5.png,images/complex/15.png,images/complex/14.png,images/complex/8.png","1","null","","200","1445.425000000978","yes","413.8099999999977","","target","",""
"[{""page_index"":0,""viewing_time"":3273}]","3273","task-instructions","212","353597","0.0-18.0","SS1604588488439","","","","","","","","","","","","","","","","",""
"[{""page_index"":0,""viewing_time"":3348.7750000003725},{""page_index"":1,""viewing_time"":4394.004999998317},{""page_index"":2,""viewing_time"":1387.9650000017136}]","9130.970000000205","instructions","213","362731","0.0-19.0","SS1604588488439","","","","","","","","","","","","","","","","",""
"","null","html-keyboard-response","214","363558","0.0-20.0-0.0","SS1604588488439","","null","","","","","","","","","","","","<img src=images/blank.png width =""500"" height = ""500"" style=""border:5px solid black"">","","",""
"","1196.7599999989034","stimulus-presentation","215","364970","0.0-20.0-1.0","SS1604588488439","<img src='images/complex/3.png' width ='500' height = '500' style='border:5px solid black'>","40","mixed_simple_deviant","images/complex/13.png","images/complex/3.png","images/simple/2.png,images/simple/14.png,images/simple/16.png,images/simple/5.png,images/simple/15.png,images/simple/13.png,images/simple/8.png","2","null","","200","1396.7599999989034","","","","background","",""
"","null","html-keyboard-response","216","366057","0.0-20.0-0.1","SS1604588488439","","null","","","","","","","","","","","","<img src=images/blank.png width =""500"" height = ""500"" style=""border:5px solid black"">","","",""
"","619.1399999988498","stimulus-presentation","217","366890","0.0-20.0-1.1","SS1604588488439","<img src='images/complex/3.png' width ='500' height = '500' style='border:5px solid black'>","40","mixed_simple_deviant","images/complex/13.png","images/complex/3.png","images/simple/2.png,images/simple/14.png,images/simple/16.png,images/simple/5.png,images/simple/15.png,images/simple/13.png,images/simple/8.png","2","null","","200","819.1399999988498","","","","background","",""
"","null","html-keyboard-response","218","367721","0.0-20.0-0.2","SS1604588488439","","null","","","","","","","","","","","","<img src=images/blank.png width =""500"" height = ""500"" style=""border:5px solid black"">","","",""
"","870.7450000001118","stimulus-presentation","219","368810","0.0-20.0-1.2","SS1604588488439","<img src='images/simple/8.png' width ='500' height = '500' style='border:5px solid black'>","40","mixed_simple_deviant","images/complex/13.png","images/complex/3.png","images/simple/2.png,images/simple/14.png,images/simple/16.png,images/simple/5.png,images/simple/15.png,images/simple/13.png,images/simple/8.png","2","null","","200","1070.7450000001118","","","","deviant","",""
"","null","html-keyboard-response","220","369938","0.0-20.0-0.3","SS1604588488439","","null","","","","","","","","","","","","<img src=images/blank.png width =""500"" height = ""500"" style=""border:5px solid black"">","","",""
"","576.8149999985471","stimulus-presentation","221","370729","0.0-20.0-1.3","SS1604588488439","<img src='images/complex/3.png' width ='500' height = '500' style='border:5px solid black'>","40","mixed_simple_deviant","images/complex/13.png","images/complex/3.png","images/simple/2.png,images/simple/14.png,images/simple/16.png,images/simple/5.png,images/simple/15.png,images/simple/13.png,images/simple/8.png","2","null","","200","776.8149999985471","","","","background","",""
"","null","html-keyboard-response","222","371570","0.0-20.0-0.4","SS1604588488439","","null","","","","","","","","","","","","<img src=images/blank.png width =""500"" height = ""500"" style=""border:5px solid black"">","","",""
"","575.2549999997136","stimulus-presentation","223","372362","0.0-20.0-1.4","SS1604588488439","<img src='images/complex/3.png' width ='500' height = '500' style='border:5px solid black'>","40","mixed_simple_deviant","images/complex/13.png","images/complex/3.png","images/simple/2.png,images/simple/14.png,images/simple/16.png,images/simple/5.png,images/simple/15.png,images/simple/13.png,images/simple/8.png","2","null","","200","775.2549999997136","","","","background","",""
"","null","html-keyboard-response","224","373338","0.0-20.0-0.5","SS1604588488439","","null","","","","","","","","","","","","<img src=images/blank.png width =""500"" height = ""500"" style=""border:5px solid black"">","","",""
"","1222.300000001269","stimulus-presentation","225","374778","0.0-20.0-1.5","SS1604588488439","<img src='images/complex/13.png' width ='500' height = '500' style='border:5px solid black'>","40","mixed_simple_deviant","images/complex/13.png","images/complex/3.png","images/simple/2.png,images/simple/14.png,images/simple/16.png,images/simple/5.png,images/simple/15.png,images/simple/13.png,images/simple/8.png","2","null","","200","1422.300000001269","yes","454.4650000007241","","target","",""
"","null","html-keyboard-response","226","375971","0.0-20.0-0.6","SS1604588488439","","null","","","","","","","","","","","","<img src=images/blank.png width =""500"" height = ""500"" style=""border:5px solid black"">","","",""
"","525.3349999984493","stimulus-presentation","227","376714","0.0-20.0-1.6","SS1604588488439","<img src='images/simple/2.png' width ='500' height = '500' style='border:5px solid black'>","40","mixed_simple_deviant","images/complex/13.png","images/complex/3.png","images/simple/2.png,images/simple/14.png,images/simple/16.png,images/simple/5.png,images/simple/15.png,images/simple/13.png,images/simple/8.png","2","null","","200","725.3349999984493","","","","deviant","",""
"","null","html-keyboard-response","228","377869","0.0-20.0-0.7","SS1604588488439","","null","","","","","","","","","","","","<img src=images/blank.png width =""500"" height = ""500"" style=""border:5px solid black"">","","",""
"","562.9299999982468","stimulus-presentation","229","378650","0.0-20.0-1.7","SS1604588488439","<img src='images/complex/3.png' width ='500' height = '500' style='border:5px solid black'>","40","mixed_simple_deviant","images/complex/13.png","images/complex/3.png","images/simple/2.png,images/simple/14.png,images/simple/16.png,images/simple/5.png,images/simple/15.png,images/simple/13.png,images/simple/8.png","2","null","","200","762.9299999982468","","","","background","",""
"","null","html-keyboard-response","230","379598","0.0-20.0-0.8","SS1604588488439","","null","","","","","","","","","","","","<img src=images/blank.png width =""500"" height = ""500"" style=""border:5px solid black"">","","",""
"","561.3200000007637","stimulus-presentation","231","380378","0.0-20.0-1.8","SS1604588488439","<img src='images/complex/3.png' width ='500' height = '500' style='border:5px solid black'>","40","mixed_simple_deviant","images/complex/13.png","images/complex/3.png","images/simple/2.png,images/simple/14.png,images/simple/16.png,images/simple/5.png,images/simple/15.png,images/simple/13.png,images/simple/8.png","2","null","","200","761.3200000007637","","","","background","",""
"","null","html-keyboard-response","232","381541","0.0-20.0-0.9","SS1604588488439","","null","","","","","","","","","","","","<img src=images/blank.png width =""500"" height = ""500"" style=""border:5px solid black"">","","",""
"","1405.4550000000745","stimulus-presentation","233","383162","0.0-20.0-1.9","SS1604588488439","<img src='images/complex/13.png' width ='500' height = '500' style='border:5px solid black'>","40","mixed_simple_deviant","images/complex/13.png","images/complex/3.png","images/simple/2.png,images/simple/14.png,images/simple/16.png,images/simple/5.png,images/simple/15.png,images/simple/13.png,images/simple/8.png","2","null","","200","1605.4550000000745","yes","429.3550000002142","","target","",""
"","null","html-keyboard-response","234","384082","0.0-20.0-0.10","SS1604588488439","","null","","","","","","","","","","","","<img src=images/blank.png width =""500"" height = ""500"" style=""border:5px solid black"">","","",""
"","577.4250000012689","stimulus-presentation","235","384874","0.0-20.0-1.10","SS1604588488439","<img src='images/simple/5.png' width ='500' height = '500' style='border:5px solid black'>","40","mixed_simple_deviant","images/complex/13.png","images/complex/3.png","images/simple/2.png,images/simple/14.png,images/simple/16.png,images/simple/5.png,images/simple/15.png,images/simple/13.png,images/simple/8.png","2","null","","200","777.4250000012689","","","","deviant","",""
"","null","html-keyboard-response","236","386109","0.0-20.0-0.11","SS1604588488439","","null","","","","","","","","","","","","<img src=images/blank.png width =""500"" height = ""500"" style=""border:5px solid black"">","","",""
"","1175.1949999998324","stimulus-presentation","237","387498","0.0-20.0-1.11","SS1604588488439","<img src='images/complex/13.png' width ='500' height = '500' style='border:5px solid black'>","40","mixed_simple_deviant","images/complex/13.png","images/complex/3.png","images/simple/2.png,images/simple/14.png,images/simple/16.png,images/simple/5.png,images/simple/15.png,images/simple/13.png,images/simple/8.png","2","null","","200","1375.1949999998324","yes","407.2949999991106","","target","",""
"","null","html-keyboard-response","238","388371","0.0-20.0-0.12","SS1604588488439","","null","","","","","","","","","","","","<img src=images/blank.png width =""500"" height = ""500"" style=""border:5px solid black"">","","",""
"","533.9899999999325","stimulus-presentation","239","389114","0.0-20.0-1.12","SS1604588488439","<img src='images/complex/3.png' width ='500' height = '500' style='border:5px solid black'>","40","mixed_simple_deviant","images/complex/13.png","images/complex/3.png","images/simple/2.png,images/simple/14.png,images/simple/16.png,images/simple/5.png,images/simple/15.png,images/simple/13.png,images/simple/8.png","2","null","","200","733.9899999999325","","","","background","",""
"","null","html-keyboard-response","240","390037","0.0-20.0-0.13","SS1604588488439","","null","","","","","","","","","","","","<img src=images/blank.png width =""500"" height = ""500"" style=""border:5px solid black"">","","",""
"","363.9349999994156","stimulus-presentation","241","390618","0.0-20.0-1.13","SS1604588488439","<img src='images/complex/3.png' width ='500' height = '500' style='border:5px solid black'>","40","mixed_simple_deviant","images/complex/13.png","images/complex/3.png","images/simple/2.png,images/simple/14.png,images/simple/16.png,images/simple/5.png,images/simple/15.png,images/simple/13.png,images/simple/8.png","2","null","","200","563.9349999994156","","","","background","",""
"","null","html-keyboard-response","242","391558","0.0-20.0-0.14","SS1604588488439","","null","","","","","","","","","","","","<img src=images/blank.png width =""500"" height = ""500"" style=""border:5px solid black"">","","",""
"","396.1799999997602","stimulus-presentation","243","392170","0.0-20.0-1.14","SS1604588488439","<img src='images/complex/3.png' width ='500' height = '500' style='border:5px solid black'>","40","mixed_simple_deviant","images/complex/13.png","images/complex/3.png","images/simple/2.png,images/simple/14.png,images/simple/16.png,images/simple/5.png,images/simple/15.png,images/simple/13.png,images/simple/8.png","2","null","","200","596.1799999997602","","","","background","",""
"","null","html-keyboard-response","244","393171","0.0-20.0-0.15","SS1604588488439","","null","","","","","","","","","","","","<img src=images/blank.png width =""500"" height = ""500"" style=""border:5px solid black"">","","",""
"","341.6299999989569","stimulus-presentation","245","393738","0.0-20.0-1.15","SS1604588488439","<img src='images/complex/3.png' width ='500' height = '500' style='border:5px solid black'>","40","mixed_simple_deviant","images/complex/13.png","images/complex/3.png","images/simple/2.png,images/simple/14.png,images/simple/16.png,images/simple/5.png,images/simple/15.png,images/simple/13.png,images/simple/8.png","2","null","","200","541.6299999989569","","","","background","",""
"","null","html-keyboard-response","246","394971","0.0-20.0-0.16","SS1604588488439","","null","","","","","","","","","","","","<img src=images/blank.png width =""500"" height = ""500"" style=""border:5px solid black"">","","",""
"","523.6199999999371","stimulus-presentation","247","395722","0.0-20.0-1.16","SS1604588488439","<img src='images/simple/15.png' width ='500' height = '500' style='border:5px solid black'>","40","mixed_simple_deviant","images/complex/13.png","images/complex/3.png","images/simple/2.png,images/simple/14.png,images/simple/16.png,images/simple/5.png,images/simple/15.png,images/simple/13.png,images/simple/8.png","2","null","","200","723.6199999999371","","","","deviant","",""
"","null","html-keyboard-response","248","396805","0.0-20.0-0.17","SS1604588488439","","null","","","","","","","","","","","","<img src=images/blank.png width =""500"" height = ""500"" style=""border:5px solid black"">","","",""
"","475.13499999878695","stimulus-presentation","249","397498","0.0-20.0-1.17","SS1604588488439","<img src='images/complex/3.png' width ='500' height = '500' style='border:5px solid black'>","40","mixed_simple_deviant","images/complex/13.png","images/complex/3.png","images/simple/2.png,images/simple/14.png,images/simple/16.png,images/simple/5.png,images/simple/15.png,images/simple/13.png,images/simple/8.png","2","null","","200","675.134999998787","","","","background","",""
"","null","html-keyboard-response","250","398657","0.0-20.0-0.18","SS1604588488439","","null","","","","","","","","","","","","<img src=images/blank.png width =""500"" height = ""500"" style=""border:5px solid black"">","","",""
"","319.2400000007474","stimulus-presentation","251","399194","0.0-20.0-1.18","SS1604588488439","<img src='images/complex/3.png' width ='500' height = '500' style='border:5px solid black'>","40","mixed_simple_deviant","images/complex/13.png","images/complex/3.png","images/simple/2.png,images/simple/14.png,images/simple/16.png,images/simple/5.png,images/simple/15.png,images/simple/13.png,images/simple/8.png","2","null","","200","519.2400000007474","","","","background","",""
"","null","html-keyboard-response","252","400338","0.0-20.0-0.19","SS1604588488439","","null","","","","","","","","","","","","<img src=images/blank.png width =""500"" height = ""500"" style=""border:5px solid black"">","","",""
"","340.38499999948544","stimulus-presentation","253","400890","0.0-20.0-1.19","SS1604588488439","<img src='images/complex/3.png' width ='500' height = '500' style='border:5px solid black'>","40","mixed_simple_deviant","images/complex/13.png","images/complex/3.png","images/simple/2.png,images/simple/14.png,images/simple/16.png,images/simple/5.png,images/simple/15.png,images/simple/13.png,images/simple/8.png","2","null","","200","540.3849999994854","","","","background","",""
"","null","html-keyboard-response","254","401956","0.0-20.0-0.20","SS1604588488439","","null","","","","","","","","","","","","<img src=images/blank.png width =""500"" height = ""500"" style=""border:5px solid black"">","","",""
"","318.5450000001001","stimulus-presentation","255","402490","0.0-20.0-1.20","SS1604588488439","<img src='images/complex/3.png' width ='500' height = '500' style='border:5px solid black'>","40","mixed_simple_deviant","images/complex/13.png","images/complex/3.png","images/simple/2.png,images/simple/14.png,images/simple/16.png,images/simple/5.png,images/simple/15.png,images/simple/13.png,images/simple/8.png","2","null","","200","518.5450000001001","","","","background","",""
"","null","html-keyboard-response","256","403558","0.0-20.0-0.21","SS1604588488439","","null","","","","","","","","","","","","<img src=images/blank.png width =""500"" height = ""500"" style=""border:5px solid black"">","","",""
"","412.070000000298","stimulus-presentation","257","404186","0.0-20.0-1.21","SS1604588488439","<img src='images/complex/3.png' width ='500' height = '500' style='border:5px solid black'>","40","mixed_simple_deviant","images/complex/13.png","images/complex/3.png","images/simple/2.png,images/simple/14.png,images/simple/16.png,images/simple/5.png,images/simple/15.png,images/simple/13.png,images/simple/8.png","2","null","","200","612.070000000298","","","","background","",""
"","null","html-keyboard-response","258","405221","0.0-20.0-0.22","SS1604588488439","","null","","","","","","","","","","","","<img src=images/blank.png width =""500"" height = ""500"" style=""border:5px solid black"">","","",""
"","443.52500000060536","stimulus-presentation","259","405882","0.0-20.0-1.22","SS1604588488439","<img src='images/complex/3.png' width ='500' height = '500' style='border:5px solid black'>","40","mixed_simple_deviant","images/complex/13.png","images/complex/3.png","images/simple/2.png,images/simple/14.png,images/simple/16.png,images/simple/5.png,images/simple/15.png,images/simple/13.png,images/simple/8.png","2","null","","200","643.5250000006054","","","","background","",""
"","null","html-keyboard-response","260","406996","0.0-20.0-0.23","SS1604588488439","","null","","","","","","","","","","","","<img src=images/blank.png width =""500"" height = ""500"" style=""border:5px solid black"">","","",""
"","308.15500000061","stimulus-presentation","261","407530","0.0-20.0-1.23","SS1604588488439","<img src='images/complex/3.png' width ='500' height = '500' style='border:5px solid black'>","40","mixed_simple_deviant","images/complex/13.png","images/complex/3.png","images/simple/2.png,images/simple/14.png,images/simple/16.png,images/simple/5.png,images/simple/15.png,images/simple/13.png,images/simple/8.png","2","null","","200","508.15500000061","","","","background","",""
"","null","html-keyboard-response","262","408589","0.0-20.0-0.24","SS1604588488439","","null","","","","","","","","","","","","<img src=images/blank.png width =""500"" height = ""500"" style=""border:5px solid black"">","","",""
"","332.499999998603","stimulus-presentation","263","409146","0.0-20.0-1.24","SS1604588488439","<img src='images/complex/3.png' width ='500' height = '500' style='border:5px solid black'>","40","mixed_simple_deviant","images/complex/13.png","images/complex/3.png","images/simple/2.png,images/simple/14.png,images/simple/16.png,images/simple/5.png,images/simple/15.png,images/simple/13.png,images/simple/8.png","2","null","","200","532.499999998603","","","","background","",""
"","null","html-keyboard-response","264","409989","0.0-20.0-0.25","SS1604588488439","","null","","","","","","","","","","","","<img src=images/blank.png width =""500"" height = ""500"" style=""border:5px solid black"">","","",""
"","531.5050000008196","stimulus-presentation","265","410746","0.0-20.0-1.25","SS1604588488439","<img src='images/complex/3.png' width ='500' height = '500' style='border:5px solid black'>","40","mixed_simple_deviant","images/complex/13.png","images/complex/3.png","images/simple/2.png,images/simple/14.png,images/simple/16.png,images/simple/5.png,images/simple/15.png,images/simple/13.png,images/simple/8.png","2","null","","200","731.5050000008196","","","","background","",""
"","null","html-keyboard-response","266","411660","0.0-20.0-0.26","SS1604588488439","","null","","","","","","","","","","","","<img src=images/blank.png width =""500"" height = ""500"" style=""border:5px solid black"">","","",""
"","681.8999999995576","stimulus-presentation","267","412554","0.0-20.0-1.26","SS1604588488439","<img src='images/simple/14.png' width ='500' height = '500' style='border:5px solid black'>","40","mixed_simple_deviant","images/complex/13.png","images/complex/3.png","images/simple/2.png,images/simple/14.png,images/simple/16.png,images/simple/5.png,images/simple/15.png,images/simple/13.png,images/simple/8.png","2","null","","200","881.8999999995576","","","","deviant","",""
"","null","html-keyboard-response","268","413672","0.0-20.0-0.27","SS1604588488439","","null","","","","","","","","","","","","<img src=images/blank.png width =""500"" height = ""500"" style=""border:5px solid black"">","","",""
"","327.2600000000093","stimulus-presentation","269","414218","0.0-20.0-1.27","SS1604588488439","<img src='images/complex/3.png' width ='500' height = '500' style='border:5px solid black'>","40","mixed_simple_deviant","images/complex/13.png","images/complex/3.png","images/simple/2.png,images/simple/14.png,images/simple/16.png,images/simple/5.png,images/simple/15.png,images/simple/13.png,images/simple/8.png","2","null","","200","527.2600000000093","","","","background","",""
"","null","html-keyboard-response","270","415389","0.0-20.0-0.28","SS1604588488439","","null","","","","","","","","","","","","<img src=images/blank.png width =""500"" height = ""500"" style=""border:5px solid black"">","","",""
"","1293.6599999993923","stimulus-presentation","271","416906","0.0-20.0-1.28","SS1604588488439","<img src='images/complex/13.png' width ='500' height = '500' style='border:5px solid black'>","40","mixed_simple_deviant","images/complex/13.png","images/complex/3.png","images/simple/2.png,images/simple/14.png,images/simple/16.png,images/simple/5.png,images/simple/15.png,images/simple/13.png,images/simple/8.png","2","null","","200","1493.6599999993923","yes","445.7649999985588","","target","",""
"","null","html-keyboard-response","272","417972","0.0-20.0-0.29","SS1604588488439","","null","","","","","","","","","","","","<img src=images/blank.png width =""500"" height = ""500"" style=""border:5px solid black"">","","",""
"","558.3200000001234","stimulus-presentation","273","418746","0.0-20.0-1.29","SS1604588488439","<img src='images/complex/3.png' width ='500' height = '500' style='border:5px solid black'>","40","mixed_simple_deviant","images/complex/13.png","images/complex/3.png","images/simple/2.png,images/simple/14.png,images/simple/16.png,images/simple/5.png,images/simple/15.png,images/simple/13.png,images/simple/8.png","2","null","","200","758.3200000001234","","","","background","",""
"","null","html-keyboard-response","274","419612","0.0-20.0-0.30","SS1604588488439","","null","","","","","","","","","","","","<img src=images/blank.png width =""500"" height = ""500"" style=""border:5px solid black"">","","",""
"","265.04999999998836","stimulus-presentation","275","420090","0.0-20.0-1.30","SS1604588488439","<img src='images/complex/3.png' width ='500' height = '500' style='border:5px solid black'>","40","mixed_simple_deviant","images/complex/13.png","images/complex/3.png","images/simple/2.png,images/simple/14.png,images/simple/16.png,images/simple/5.png,images/simple/15.png,images/simple/13.png,images/simple/8.png","2","null","","200","465.04999999998836","","","","background","",""
"","null","html-keyboard-response","276","420956","0.0-20.0-0.31","SS1604588488439","","null","","","","","","","","","","","","<img src=images/blank.png width =""500"" height = ""500"" style=""border:5px solid black"">","","",""
"","926.7349999990547","stimulus-presentation","277","422106","0.0-20.0-1.31","SS1604588488439","<img src='images/simple/16.png' width ='500' height = '500' style='border:5px solid black'>","40","mixed_simple_deviant","images/complex/13.png","images/complex/3.png","images/simple/2.png,images/simple/14.png,images/simple/16.png,images/simple/5.png,images/simple/15.png,images/simple/13.png,images/simple/8.png","2","null","","200","1126.7349999990547","","","","deviant","",""
"","null","html-keyboard-response","278","423288","0.0-20.0-0.32","SS1604588488439","","null","","","","","","","","","","","","<img src=images/blank.png width =""500"" height = ""500"" style=""border:5px solid black"">","","",""
"","435.13499999966007","stimulus-presentation","279","423946","0.0-20.0-1.32","SS1604588488439","<img src='images/complex/3.png' width ='500' height = '500' style='border:5px solid black'>","40","mixed_simple_deviant","images/complex/13.png","images/complex/3.png","images/simple/2.png,images/simple/14.png,images/simple/16.png,images/simple/5.png,images/simple/15.png,images/simple/13.png,images/simple/8.png","2","null","","200","635.1349999996601","","","","background","",""
"","null","html-keyboard-response","280","424806","0.0-20.0-0.33","SS1604588488439","","null","","","","","","","","","","","","<img src=images/blank.png width =""500"" height = ""500"" style=""border:5px solid black"">","","",""
"","1200.8900000000722","stimulus-presentation","281","426234","0.0-20.0-1.33","SS1604588488439","<img src='images/complex/13.png' width ='500' height = '500' style='border:5px solid black'>","40","mixed_simple_deviant","images/complex/13.png","images/complex/3.png","images/simple/2.png,images/simple/14.png,images/simple/16.png,images/simple/5.png,images/simple/15.png,images/simple/13.png,images/simple/8.png","2","null","","200","1400.8900000000722","yes","433.3050000004587","","target","",""
"","null","html-keyboard-response","282","427287","0.0-20.0-0.34","SS1604588488439","","null","","","","","","","","","","","","<img src=images/blank.png width =""500"" height = ""500"" style=""border:5px solid black"">","","",""
"","300.1899999999441","stimulus-presentation","283","427802","0.0-20.0-1.34","SS1604588488439","<img src='images/complex/3.png' width ='500' height = '500' style='border:5px solid black'>","40","mixed_simple_deviant","images/complex/13.png","images/complex/3.png","images/simple/2.png,images/simple/14.png,images/simple/16.png,images/simple/5.png,images/simple/15.png,images/simple/13.png,images/simple/8.png","2","null","","200","500.1899999999441","","","","background","",""
"","null","html-keyboard-response","284","428707","0.0-20.0-0.35","SS1604588488439","","null","","","","","","","","","","","","<img src=images/blank.png width =""500"" height = ""500"" style=""border:5px solid black"">","","",""
