"view_history","rt","trial_type","trial_index","time_elapsed","internal_node_id","subject","trial_stimulus","key_press","task_type","task_target_stimulus","task_background_stimulus","task_deviant_stimuli","task_order_number","block_order_number","trial_order_number","minimum_viewing_duration","trial_looking_time","trial_pressed_space_bar","trial_space_bar_rt","stimulus","trial_stimulus_type","responses","question_order"
"[{""page_index"":0,""viewing_time"":2417.119999998249}]","2417.959999991581","instructions","0","2443","0.0-0.0","SS1604513883460","","","","","","","","","","","","","","","","",""
"[{""page_index"":0,""viewing_time"":8573.51000001654},{""page_index"":1,""viewing_time"":4237.250000005588},{""page_index"":2,""viewing_time"":7026.629999978468},{""page_index"":3,""viewing_time"":7915.075000026263},{""page_index"":4,""viewing_time"":7672.785000060685},{""page_index"":5,""viewing_time"":7876.129999989644},{""page_index"":6,""viewing_time"":4086.4199999487028},{""page_index"":7,""viewing_time"":6450.1600000076},{""page_index"":8,""viewing_time"":3224.0800000727177}]","57062.35500006005","instructions","1","59508","0.0-1.0","SS1604513883460","","","","","","","","","","","","","","","","",""
"[{""page_index"":0,""viewing_time"":4058.919999981299},{""page_index"":1,""viewing_time"":7667.505000019446},{""page_index"":2,""viewing_time"":2162.265000049956}]","13889.079999993555","instructions","2","73399","0.0-2.0","SS1604513883460","","","","","","","","","","","","","","","","",""
"","1067.3449999885634","practice-block","3","74682","0.0-3.0","SS1604513883460","<img src='images/practice/practice_background.jpeg' width ='500' height = '500' style='border:5px solid black'>","40","null","images/practice/practice_target.jpg","null","null","null","null","","200","1267.3449999885634","","","","","",""
"","null","html-keyboard-response","4","75943","0.0-4.0","SS1604513883460","","null","","","","","","","","","","","","<img src=images/blank.png width =""500"" height = ""500"" style=""border:5px solid black"">","","",""
"","650.6799999624491","practice-block","5","76799","0.0-5.0","SS1604513883460","<img src='images/practice/practice_background.jpeg' width ='500' height = '500' style='border:5px solid black'>","40","null","images/practice/practice_target.jpg","null","null","null","null","","200","850.6799999624491","","","","","",""
"","null","html-keyboard-response","6","78014","0.0-6.0","SS1604513883460","","null","","","","","","","","","","","","<img src=images/blank.png width =""500"" height = ""500"" style=""border:5px solid black"">","","",""
"","497.72500002291054","practice-block","7","78728","0.0-7.0","SS1604513883460","<img src='images/practice/practice_deviant.jpeg' width ='500' height = '500' style='border:5px solid black'>","40","null","images/practice/practice_target.jpg","null","null","null","null","","200","697.7250000229105","","","","","",""
"","null","html-keyboard-response","8","79758","0.0-8.0","SS1604513883460","","null","","","","","","","","","","","","<img src=images/blank.png width =""500"" height = ""500"" style=""border:5px solid black"">","","",""
"","8268.024999997579","practice-block","9","88232","0.0-9.0-0.0","SS1604513883460","<img src='images/practice/practice_target.jpg' width ='500' height = '500' style='border:5px solid black'>","40","null","images/practice/practice_target.jpg","null","null","null","null","","200","8468.024999997579","yes","461.8100000079721","","","",""
"","null","html-keyboard-response","10","89321","0.0-10.0","SS1604513883460","","null","","","","","","","","","","","","<img src=images/blank.png width =""500"" height = ""500"" style=""border:5px solid black"">","","",""
"","569.5449999766424","practice-block","11","90096","0.0-11.0","SS1604513883460","<img src='images/practice/practice_background.jpeg' width ='500' height = '500' style='border:5px solid black'>","40","null","images/practice/practice_target.jpg","null","null","null","null","","200","769.5449999766424","","","","","",""
"[{""page_index"":0,""viewing_time"":2229}]","2229","task-instructions","12","92329","0.0-12.0","SS1604513883460","","","","","","","","","","","","","","","","",""
"[{""page_index"":0,""viewing_time"":3942.384999943897},{""page_index"":1,""viewing_time"":7274.775000056252},{""page_index"":2,""viewing_time"":2799.0949999075383}]","14016.560000018217","instructions","13","106347","0.0-13.0","SS1604513883460","","","","","","","","","","","","","","","","",""
"","null","html-keyboard-response","14","107165","0.0-14.0-0.0","SS1604513883460","","null","","","","","","","","","","","","<img src=images/blank.png width =""500"" height = ""500"" style=""border:5px solid black"">","","",""
"","316.34000001940876","stimulus-presentation","15","107691","0.0-14.0-1.0","SS1604513883460","<img src='images/simple/2.png' width ='500' height = '500' style='border:5px solid black'>","40","all_simple","images/simple/9.png","images/simple/15.png","images/simple/8.png,images/simple/1.png,images/simple/16.png,images/simple/10.png,images/simple/2.png,images/simple/6.png,images/simple/14.png","0","null","","200","516.3400000194088","","","","deviant","",""
"","null","html-keyboard-response","16","108687","0.0-14.0-0.1","SS1604513883460","","null","","","","","","","","","","","","<img src=images/blank.png width =""500"" height = ""500"" style=""border:5px solid black"">","","",""
"","656.1700000893325","stimulus-presentation","17","109561","0.0-14.0-1.1","SS1604513883460","<img src='images/simple/15.png' width ='500' height = '500' style='border:5px solid black'>","40","all_simple","images/simple/9.png","images/simple/15.png","images/simple/8.png,images/simple/1.png,images/simple/16.png,images/simple/10.png,images/simple/2.png,images/simple/6.png,images/simple/14.png","0","null","","200","856.1700000893325","","","","background","",""
"","null","html-keyboard-response","18","110757","0.0-14.0-0.2","SS1604513883460","","null","","","","","","","","","","","","<img src=images/blank.png width =""500"" height = ""500"" style=""border:5px solid black"">","","",""
"","2443.1199999526143","stimulus-presentation","19","113416","0.0-14.0-1.2","SS1604513883460","<img src='images/simple/9.png' width ='500' height = '500' style='border:5px solid black'>","40","all_simple","images/simple/9.png","images/simple/15.png","images/simple/8.png,images/simple/1.png,images/simple/16.png,images/simple/10.png,images/simple/2.png,images/simple/6.png,images/simple/14.png","0","null","","200","2643.1199999526143","yes","365.4050000477582","","target","",""
"","null","html-keyboard-response","20","114356","0.0-14.0-0.3","SS1604513883460","","null","","","","","","","","","","","","<img src=images/blank.png width =""500"" height = ""500"" style=""border:5px solid black"">","","",""
"","684.004999930039","stimulus-presentation","21","115255","0.0-14.0-1.3","SS1604513883460","<img src='images/simple/15.png' width ='500' height = '500' style='border:5px solid black'>","40","all_simple","images/simple/9.png","images/simple/15.png","images/simple/8.png,images/simple/1.png,images/simple/16.png,images/simple/10.png,images/simple/2.png,images/simple/6.png,images/simple/14.png","0","null","","200","884.004999930039","","","","background","",""
"","null","html-keyboard-response","22","116455","0.0-14.0-0.4","SS1604513883460","","null","","","","","","","","","","","","<img src=images/blank.png width =""500"" height = ""500"" style=""border:5px solid black"">","","",""
"","432.6700000092387","stimulus-presentation","23","117103","0.0-14.0-1.4","SS1604513883460","<img src='images/simple/15.png' width ='500' height = '500' style='border:5px solid black'>","40","all_simple","images/simple/9.png","images/simple/15.png","images/simple/8.png,images/simple/1.png,images/simple/16.png,images/simple/10.png,images/simple/2.png,images/simple/6.png,images/simple/14.png","0","null","","200","632.6700000092387","","","","background","",""
"","null","html-keyboard-response","24","118179","0.0-14.0-0.5","SS1604513883460","","null","","","","","","","","","","","","<img src=images/blank.png width =""500"" height = ""500"" style=""border:5px solid black"">","","",""
"","488.3100000442937","stimulus-presentation","25","118875","0.0-14.0-1.5","SS1604513883460","<img src='images/simple/15.png' width ='500' height = '500' style='border:5px solid black'>","40","all_simple","images/simple/9.png","images/simple/15.png","images/simple/8.png,images/simple/1.png,images/simple/16.png,images/simple/10.png,images/simple/2.png,images/simple/6.png,images/simple/14.png","0","null","","200","688.3100000442937","","","","background","",""
"","null","html-keyboard-response","26","119889","0.0-14.0-0.6","SS1604513883460","","null","","","","","","","","","","","","<img src=images/blank.png width =""500"" height = ""500"" style=""border:5px solid black"">","","",""
"","517.4399999668822","stimulus-presentation","27","120621","0.0-14.0-1.6","SS1604513883460","<img src='images/simple/10.png' width ='500' height = '500' style='border:5px solid black'>","40","all_simple","images/simple/9.png","images/simple/15.png","images/simple/8.png,images/simple/1.png,images/simple/16.png,images/simple/10.png,images/simple/2.png,images/simple/6.png,images/simple/14.png","0","null","","200","717.4399999668822","","","","deviant","",""
"","null","html-keyboard-response","28","121851","0.0-14.0-0.7","SS1604513883460","","null","","","","","","","","","","","","<img src=images/blank.png width =""500"" height = ""500"" style=""border:5px solid black"">","","",""
"","410.3750000940636","stimulus-presentation","29","122480","0.0-14.0-1.7","SS1604513883460","<img src='images/simple/15.png' width ='500' height = '500' style='border:5px solid black'>","40","all_simple","images/simple/9.png","images/simple/15.png","images/simple/8.png,images/simple/1.png,images/simple/16.png,images/simple/10.png,images/simple/2.png,images/simple/6.png,images/simple/14.png","0","null","","200","610.3750000940636","","","","background","",""
"","null","html-keyboard-response","30","123639","0.0-14.0-0.8","SS1604513883460","","null","","","","","","","","","","","","<img src=images/blank.png width =""500"" height = ""500"" style=""border:5px solid black"">","","",""
"","399.3599999230355","stimulus-presentation","31","124252","0.0-14.0-1.8","SS1604513883460","<img src='images/simple/15.png' width ='500' height = '500' style='border:5px solid black'>","40","all_simple","images/simple/9.png","images/simple/15.png","images/simple/8.png,images/simple/1.png,images/simple/16.png,images/simple/10.png,images/simple/2.png,images/simple/6.png,images/simple/14.png","0","null","","200","599.3599999230355","","","","background","",""
"","null","html-keyboard-response","32","125270","0.0-14.0-0.9","SS1604513883460","","null","","","","","","","","","","","","<img src=images/blank.png width =""500"" height = ""500"" style=""border:5px solid black"">","","",""
"","458.4150000009686","stimulus-presentation","33","125935","0.0-14.0-1.9","SS1604513883460","<img src='images/simple/15.png' width ='500' height = '500' style='border:5px solid black'>","40","all_simple","images/simple/9.png","images/simple/15.png","images/simple/8.png,images/simple/1.png,images/simple/16.png,images/simple/10.png,images/simple/2.png,images/simple/6.png,images/simple/14.png","0","null","","200","658.4150000009686","","","","background","",""
"","null","html-keyboard-response","34","127011","0.0-14.0-0.10","SS1604513883460","","null","","","","","","","","","","","","<img src=images/blank.png width =""500"" height = ""500"" style=""border:5px solid black"">","","",""
"","417.9299999959767","stimulus-presentation","35","127636","0.0-14.0-1.10","SS1604513883460","<img src='images/simple/15.png' width ='500' height = '500' style='border:5px solid black'>","40","all_simple","images/simple/9.png","images/simple/15.png","images/simple/8.png,images/simple/1.png,images/simple/16.png,images/simple/10.png,images/simple/2.png,images/simple/6.png,images/simple/14.png","0","null","","200","617.9299999959767","","","","background","",""
"","null","html-keyboard-response","36","128616","0.0-14.0-0.11","SS1604513883460","","null","","","","","","","","","","","","<img src=images/blank.png width =""500"" height = ""500"" style=""border:5px solid black"">","","",""
"","565.7249999931082","stimulus-presentation","37","129400","0.0-14.0-1.11","SS1604513883460","<img src='images/simple/15.png' width ='500' height = '500' style='border:5px solid black'>","40","all_simple","images/simple/9.png","images/simple/15.png","images/simple/8.png,images/simple/1.png,images/simple/16.png,images/simple/10.png,images/simple/2.png,images/simple/6.png,images/simple/14.png","0","null","","200","765.7249999931082","","","","background","",""
"","null","html-keyboard-response","38","130398","0.0-14.0-0.12","SS1604513883460","","null","","","","","","","","","","","","<img src=images/blank.png width =""500"" height = ""500"" style=""border:5px solid black"">","","",""
"","418.6349998926744","stimulus-presentation","39","131034","0.0-14.0-1.12","SS1604513883460","<img src='images/simple/15.png' width ='500' height = '500' style='border:5px solid black'>","40","all_simple","images/simple/9.png","images/simple/15.png","images/simple/8.png,images/simple/1.png,images/simple/16.png,images/simple/10.png,images/simple/2.png,images/simple/6.png,images/simple/14.png","0","null","","200","618.6349998926744","","","","background","",""
"","null","html-keyboard-response","40","132126","0.0-14.0-0.13","SS1604513883460","","null","","","","","","","","","","","","<img src=images/blank.png width =""500"" height = ""500"" style=""border:5px solid black"">","","",""
"","455.710000009276","stimulus-presentation","41","132790","0.0-14.0-1.13","SS1604513883460","<img src='images/simple/15.png' width ='500' height = '500' style='border:5px solid black'>","40","all_simple","images/simple/9.png","images/simple/15.png","images/simple/8.png,images/simple/1.png,images/simple/16.png,images/simple/10.png,images/simple/2.png,images/simple/6.png,images/simple/14.png","0","null","","200","655.710000009276","","","","background","",""
"","null","html-keyboard-response","42","133969","0.0-14.0-0.14","SS1604513883460","","null","","","","","","","","","","","","<img src=images/blank.png width =""500"" height = ""500"" style=""border:5px solid black"">","","",""
"","502.0850000437349","stimulus-presentation","43","134686","0.0-14.0-1.14","SS1604513883460","<img src='images/simple/15.png' width ='500' height = '500' style='border:5px solid black'>","40","all_simple","images/simple/9.png","images/simple/15.png","images/simple/8.png,images/simple/1.png,images/simple/16.png,images/simple/10.png,images/simple/2.png,images/simple/6.png,images/simple/14.png","0","null","","200","702.0850000437349","","","","background","",""
"","null","html-keyboard-response","44","135884","0.0-14.0-0.15","SS1604513883460","","null","","","","","","","","","","","","<img src=images/blank.png width =""500"" height = ""500"" style=""border:5px solid black"">","","",""
"","416.91000002902","stimulus-presentation","45","136516","0.0-14.0-1.15","SS1604513883460","<img src='images/simple/15.png' width ='500' height = '500' style='border:5px solid black'>","40","all_simple","images/simple/9.png","images/simple/15.png","images/simple/8.png,images/simple/1.png,images/simple/16.png,images/simple/10.png,images/simple/2.png,images/simple/6.png,images/simple/14.png","0","null","","200","616.91000002902","","","","background","",""
"","null","html-keyboard-response","46","137779","0.0-14.0-0.16","SS1604513883460","","null","","","","","","","","","","","","<img src=images/blank.png width =""500"" height = ""500"" style=""border:5px solid black"">","","",""
"","1825.7750000339001","stimulus-presentation","47","139826","0.0-14.0-1.16","SS1604513883460","<img src='images/simple/9.png' width ='500' height = '500' style='border:5px solid black'>","40","all_simple","images/simple/9.png","images/simple/15.png","images/simple/8.png,images/simple/1.png,images/simple/16.png,images/simple/10.png,images/simple/2.png,images/simple/6.png,images/simple/14.png","0","null","","200","2025.7750000339001","yes","486.6100000217557","","target","",""
"","null","html-keyboard-response","48","140735","0.0-14.0-0.17","SS1604513883460","","null","","","","","","","","","","","","<img src=images/blank.png width =""500"" height = ""500"" style=""border:5px solid black"">","","",""
"","469.94499990250915","stimulus-presentation","49","141419","0.0-14.0-1.17","SS1604513883460","<img src='images/simple/15.png' width ='500' height = '500' style='border:5px solid black'>","40","all_simple","images/simple/9.png","images/simple/15.png","images/simple/8.png,images/simple/1.png,images/simple/16.png,images/simple/10.png,images/simple/2.png,images/simple/6.png,images/simple/14.png","0","null","","200","669.9449999025092","","","","background","",""
"","null","html-keyboard-response","50","142257","0.0-14.0-0.18","SS1604513883460","","null","","","","","","","","","","","","<img src=images/blank.png width =""500"" height = ""500"" style=""border:5px solid black"">","","",""
"","538.4499999927357","stimulus-presentation","51","143011","0.0-14.0-1.18","SS1604513883460","<img src='images/simple/1.png' width ='500' height = '500' style='border:5px solid black'>","40","all_simple","images/simple/9.png","images/simple/15.png","images/simple/8.png,images/simple/1.png,images/simple/16.png,images/simple/10.png,images/simple/2.png,images/simple/6.png,images/simple/14.png","0","null","","200","738.4499999927357","","","","deviant","",""
"","null","html-keyboard-response","52","144141","0.0-14.0-0.19","SS1604513883460","","null","","","","","","","","","","","","<img src=images/blank.png width =""500"" height = ""500"" style=""border:5px solid black"">","","",""
"","1126.2550000101328","stimulus-presentation","53","145470","0.0-14.0-1.19","SS1604513883460","<img src='images/simple/9.png' width ='500' height = '500' style='border:5px solid black'>","40","all_simple","images/simple/9.png","images/simple/15.png","images/simple/8.png,images/simple/1.png,images/simple/16.png,images/simple/10.png,images/simple/2.png,images/simple/6.png,images/simple/14.png","0","null","","200","1326.2550000101328","yes","432.5500000268221","","target","",""
"","null","html-keyboard-response","54","146697","0.0-14.0-0.20","SS1604513883460","","null","","","","","","","","","","","","<img src=images/blank.png width =""500"" height = ""500"" style=""border:5px solid black"">","","",""
"","339.78499996010214","stimulus-presentation","55","147244","0.0-14.0-1.20","SS1604513883460","<img src='images/simple/15.png' width ='500' height = '500' style='border:5px solid black'>","40","all_simple","images/simple/9.png","images/simple/15.png","images/simple/8.png,images/simple/1.png,images/simple/16.png,images/simple/10.png,images/simple/2.png,images/simple/6.png,images/simple/14.png","0","null","","200","539.7849999601021","","","","background","",""
"","null","html-keyboard-response","56","148512","0.0-14.0-0.21","SS1604513883460","","null","","","","","","","","","","","","<img src=images/blank.png width =""500"" height = ""500"" style=""border:5px solid black"">","","",""
"","247.71500006318092","stimulus-presentation","57","148967","0.0-14.0-1.21","SS1604513883460","<img src='images/simple/15.png' width ='500' height = '500' style='border:5px solid black'>","40","all_simple","images/simple/9.png","images/simple/15.png","images/simple/8.png,images/simple/1.png,images/simple/16.png,images/simple/10.png,images/simple/2.png,images/simple/6.png,images/simple/14.png","0","null","","200","447.7150000631809","","","","background","",""
"","null","html-keyboard-response","58","150179","0.0-14.0-0.22","SS1604513883460","","null","","","","","","","","","","","","<img src=images/blank.png width =""500"" height = ""500"" style=""border:5px solid black"">","","",""
"","173.45999996177852","stimulus-presentation","59","150572","0.0-14.0-1.22","SS1604513883460","<img src='images/simple/15.png' width ='500' height = '500' style='border:5px solid black'>","40","all_simple","images/simple/9.png","images/simple/15.png","images/simple/8.png,images/simple/1.png,images/simple/16.png,images/simple/10.png,images/simple/2.png,images/simple/6.png,images/simple/14.png","0","null","","200","373.4599999617785","","","","background","",""
"","null","html-keyboard-response","60","151514","0.0-14.0-0.23","SS1604513883460","","null","","","","","","","","","","","","<img src=images/blank.png width =""500"" height = ""500"" style=""border:5px solid black"">","","",""
"","378.6250000121072","stimulus-presentation","61","152112","0.0-14.0-1.23","SS1604513883460","<img src='images/simple/6.png' width ='500' height = '500' style='border:5px solid black'>","40","all_simple","images/simple/9.png","images/simple/15.png","images/simple/8.png,images/simple/1.png,images/simple/16.png,images/simple/10.png,images/simple/2.png,images/simple/6.png,images/simple/14.png","0","null","","200","578.6250000121072","","","","deviant","",""
"","null","html-keyboard-response","62","153252","0.0-14.0-0.24","SS1604513883460","","null","","","","","","","","","","","","<img src=images/blank.png width =""500"" height = ""500"" style=""border:5px solid black"">","","",""
"","171.83000000659376","stimulus-presentation","63","153633","0.0-14.0-1.24","SS1604513883460","<img src='images/simple/15.png' width ='500' height = '500' style='border:5px solid black'>","40","all_simple","images/simple/9.png","images/simple/15.png","images/simple/8.png,images/simple/1.png,images/simple/16.png,images/simple/10.png,images/simple/2.png,images/simple/6.png,images/simple/14.png","0","null","","200","371.83000000659376","","","","background","",""
"","null","html-keyboard-response","64","154611","0.0-14.0-0.25","SS1604513883460","","null","","","","","","","","","","","","<img src=images/blank.png width =""500"" height = ""500"" style=""border:5px solid black"">","","",""
"","990.6999999657273","stimulus-presentation","65","155818","0.0-14.0-1.25","SS1604513883460","<img src='images/simple/9.png' width ='500' height = '500' style='border:5px solid black'>","40","all_simple","images/simple/9.png","images/simple/15.png","images/simple/8.png,images/simple/1.png,images/simple/16.png,images/simple/10.png,images/simple/2.png,images/simple/6.png,images/simple/14.png","0","null","","200","1190.6999999657273","yes","299.84999995213","","target","",""
"","null","html-keyboard-response","66","156997","0.0-14.0-0.26","SS1604513883460","","null","","","","","","","","","","","","<img src=images/blank.png width =""500"" height = ""500"" style=""border:5px solid black"">","","",""
"","233.8049999671057","stimulus-presentation","67","157445","0.0-14.0-1.26","SS1604513883460","<img src='images/simple/15.png' width ='500' height = '500' style='border:5px solid black'>","40","all_simple","images/simple/9.png","images/simple/15.png","images/simple/8.png,images/simple/1.png,images/simple/16.png,images/simple/10.png,images/simple/2.png,images/simple/6.png,images/simple/14.png","0","null","","200","433.8049999671057","","","","background","",""
"","null","html-keyboard-response","68","158426","0.0-14.0-0.27","SS1604513883460","","null","","","","","","","","","","","","<img src=images/blank.png width =""500"" height = ""500"" style=""border:5px solid black"">","","",""
"","370.15500001143664","stimulus-presentation","69","159017","0.0-14.0-1.27","SS1604513883460","<img src='images/simple/16.png' width ='500' height = '500' style='border:5px solid black'>","40","all_simple","images/simple/9.png","images/simple/15.png","images/simple/8.png,images/simple/1.png,images/simple/16.png,images/simple/10.png,images/simple/2.png,images/simple/6.png,images/simple/14.png","0","null","","200","570.1550000114366","","","","deviant","",""
"","null","html-keyboard-response","70","160306","0.0-14.0-0.28","SS1604513883460","","null","","","","","","","","","","","","<img src=images/blank.png width =""500"" height = ""500"" style=""border:5px solid black"">","","",""
"","313.19000001531094","stimulus-presentation","71","160824","0.0-14.0-1.28","SS1604513883460","<img src='images/simple/15.png' width ='500' height = '500' style='border:5px solid black'>","40","all_simple","images/simple/9.png","images/simple/15.png","images/simple/8.png,images/simple/1.png,images/simple/16.png,images/simple/10.png,images/simple/2.png,images/simple/6.png,images/simple/14.png","0","null","","200","513.1900000153109","","","","background","",""
"","null","html-keyboard-response","72","161667","0.0-14.0-0.29","SS1604513883460","","null","","","","","","","","","","","","<img src=images/blank.png width =""500"" height = ""500"" style=""border:5px solid black"">","","",""
"","251.73500005621463","stimulus-presentation","73","162128","0.0-14.0-1.29","SS1604513883460","<img src='images/simple/15.png' width ='500' height = '500' style='border:5px solid black'>","40","all_simple","images/simple/9.png","images/simple/15.png","images/simple/8.png,images/simple/1.png,images/simple/16.png,images/simple/10.png,images/simple/2.png,images/simple/6.png,images/simple/14.png","0","null","","200","451.73500005621463","","","","background","",""
"","null","html-keyboard-response","74","163234","0.0-14.0-0.30","SS1604513883460","","null","","","","","","","","","","","","<img src=images/blank.png width =""500"" height = ""500"" style=""border:5px solid black"">","","",""
"","175.10499991476536","stimulus-presentation","75","163619","0.0-14.0-1.30","SS1604513883460","<img src='images/simple/15.png' width ='500' height = '500' style='border:5px solid black'>","40","all_simple","images/simple/9.png","images/simple/15.png","images/simple/8.png,images/simple/1.png,images/simple/16.png,images/simple/10.png,images/simple/2.png,images/simple/6.png,images/simple/14.png","0","null","","200","375.10499991476536","","","","background","",""
"","null","html-keyboard-response","76","164920","0.0-14.0-0.31","SS1604513883460","","null","","","","","","","","","","","","<img src=images/blank.png width =""500"" height = ""500"" style=""border:5px solid black"">","","",""
"","139.27499996498227","stimulus-presentation","77","165281","0.0-14.0-1.31","SS1604513883460","<img src='images/simple/15.png' width ='500' height = '500' style='border:5px solid black'>","40","all_simple","images/simple/9.png","images/simple/15.png","images/simple/8.png,images/simple/1.png,images/simple/16.png,images/simple/10.png,images/simple/2.png,images/simple/6.png,images/simple/14.png","0","null","","200","339.27499996498227","","","","background","",""
"","null","html-keyboard-response","78","166586","0.0-14.0-0.32","SS1604513883460","","null","","","","","","","","","","","","<img src=images/blank.png width =""500"" height = ""500"" style=""border:5px solid black"">","","",""
"","339.4700000062585","stimulus-presentation","79","167138","0.0-14.0-1.32","SS1604513883460","<img src='images/simple/8.png' width ='500' height = '500' style='border:5px solid black'>","40","all_simple","images/simple/9.png","images/simple/15.png","images/simple/8.png,images/simple/1.png,images/simple/16.png,images/simple/10.png,images/simple/2.png,images/simple/6.png,images/simple/14.png","0","null","","200","539.4700000062585","","","","deviant","",""
"","null","html-keyboard-response","80","168123","0.0-14.0-0.33","SS1604513883460","","null","","","","","","","","","","","","<img src=images/blank.png width =""500"" height = ""500"" style=""border:5px solid black"">","","",""
"","352.42000001017004","stimulus-presentation","81","168694","0.0-14.0-1.33","SS1604513883460","<img src='images/simple/15.png' width ='500' height = '500' style='border:5px solid black'>","40","all_simple","images/simple/9.png","images/simple/15.png","images/simple/8.png,images/simple/1.png,images/simple/16.png,images/simple/10.png,images/simple/2.png,images/simple/6.png,images/simple/14.png","0","null","","200","552.42000001017","","","","background","",""
"","null","html-keyboard-response","82","169767","0.0-14.0-0.34","SS1604513883460","","null","","","","","","","","","","","","<img src=images/blank.png width =""500"" height = ""500"" style=""border:5px solid black"">","","",""
"","318.3199999621138","stimulus-presentation","83","170293","0.0-14.0-1.34","SS1604513883460","<img src='images/simple/15.png' width ='500' height = '500' style='border:5px solid black'>","40","all_simple","images/simple/9.png","images/simple/15.png","images/simple/8.png,images/simple/1.png,images/simple/16.png,images/simple/10.png,images/simple/2.png,images/simple/6.png,images/simple/14.png","0","null","","200","518.3199999621138","","","","background","",""
"","null","html-keyboard-response","84","171424","0.0-14.0-0.35","SS1604513883460","","null","","","","","","","","","","","","<img src=images/blank.png width =""500"" height = ""500"" style=""border:5px solid black"">","","",""
"","404.01000005658716","stimulus-presentation","85","172046","0.0-14.0-1.35","SS1604513883460","<img src='images/simple/15.png' width ='500' height = '500' style='border:5px solid black'>","40","all_simple","images/simple/9.png","images/simple/15.png","images/simple/8.png,images/simple/1.png,images/simple/16.png,images/simple/10.png,images/simple/2.png,images/simple/6.png,images/simple/14.png","0","null","","200","604.0100000565872","","","","background","",""
"","null","html-keyboard-response","86","172913","0.0-14.0-0.36","SS1604513883460","","null","","","","","","","","","","","","<img src=images/blank.png width =""500"" height = ""500"" style=""border:5px solid black"">","","",""
"","433.07500006631017","stimulus-presentation","87","173557","0.0-14.0-1.36","SS1604513883460","<img src='images/simple/15.png' width ='500' height = '500' style='border:5px solid black'>","40","all_simple","images/simple/9.png","images/simple/15.png","images/simple/8.png,images/simple/1.png,images/simple/16.png,images/simple/10.png,images/simple/2.png,images/simple/6.png,images/simple/14.png","0","null","","200","633.0750000663102","","","","background","",""
"","null","html-keyboard-response","88","174384","0.0-14.0-0.37","SS1604513883460","","null","","","","","","","","","","","","<img src=images/blank.png width =""500"" height = ""500"" style=""border:5px solid black"">","","",""
"","510.22000005468726","stimulus-presentation","89","175116","0.0-14.0-1.37","SS1604513883460","<img src='images/simple/15.png' width ='500' height = '500' style='border:5px solid black'>","40","all_simple","images/simple/9.png","images/simple/15.png","images/simple/8.png,images/simple/1.png,images/simple/16.png,images/simple/10.png,images/simple/2.png,images/simple/6.png,images/simple/14.png","0","null","","200","710.2200000546873","","","","background","",""
"","null","html-keyboard-response","90","176026","0.0-14.0-0.38","SS1604513883460","","null","","","","","","","","","","","","<img src=images/blank.png width =""500"" height = ""500"" style=""border:5px solid black"">","","",""
"","465.6099999556318","stimulus-presentation","91","176706","0.0-14.0-1.38","SS1604513883460","<img src='images/simple/15.png' width ='500' height = '500' style='border:5px solid black'>","40","all_simple","images/simple/9.png","images/simple/15.png","images/simple/8.png,images/simple/1.png,images/simple/16.png,images/simple/10.png,images/simple/2.png,images/simple/6.png,images/simple/14.png","0","null","","200","665.6099999556318","","","","background","",""
"","null","html-keyboard-response","92","178002","0.0-14.0-0.39","SS1604513883460","","null","","","","","","","","","","","","<img src=images/blank.png width =""500"" height = ""500"" style=""border:5px solid black"">","","",""
"","562.0299999136478","stimulus-presentation","93","178784","0.0-14.0-1.39","SS1604513883460","<img src='images/simple/14.png' width ='500' height = '500' style='border:5px solid black'>","40","all_simple","images/simple/9.png","images/simple/15.png","images/simple/8.png,images/simple/1.png,images/simple/16.png,images/simple/10.png,images/simple/2.png,images/simple/6.png,images/simple/14.png","0","null","","200","762.0299999136478","","","","deviant","",""
"","null","html-keyboard-response","94","179707","0.0-14.0-0.40","SS1604513883460","","null","","","","","","","","","","","","<img src=images/blank.png width =""500"" height = ""500"" style=""border:5px solid black"">","","",""
"","385.1400000276044","stimulus-presentation","95","180307","0.0-14.0-1.40","SS1604513883460","<img src='images/simple/15.png' width ='500' height = '500' style='border:5px solid black'>","40","all_simple","images/simple/9.png","images/simple/15.png","images/simple/8.png,images/simple/1.png,images/simple/16.png,images/simple/10.png,images/simple/2.png,images/simple/6.png,images/simple/14.png","0","null","","200","585.1400000276044","","","","background","",""
"","null","html-keyboard-response","96","181317","0.0-14.0-0.41","SS1604513883460","","null","","","","","","","","","","","","<img src=images/blank.png width =""500"" height = ""500"" style=""border:5px solid black"">","","",""
"","315.1800000341609","stimulus-presentation","97","181853","0.0-14.0-1.41","SS1604513883460","<img src='images/simple/15.png' width ='500' height = '500' style='border:5px solid black'>","40","all_simple","images/simple/9.png","images/simple/15.png","images/simple/8.png,images/simple/1.png,images/simple/16.png,images/simple/10.png,images/simple/2.png,images/simple/6.png,images/simple/14.png","0","null","","200","515.1800000341609","","","","background","",""
"","null","html-keyboard-response","98","182760","0.0-14.0-0.42","SS1604513883460","","null","","","","","","","","","","","","<img src=images/blank.png width =""500"" height = ""500"" style=""border:5px solid black"">","","",""
"","766.0450000548735","stimulus-presentation","99","183738","0.0-14.0-1.42","SS1604513883460","<img src='images/simple/9.png' width ='500' height = '500' style='border:5px solid black'>","40","all_simple","images/simple/9.png","images/simple/15.png","images/simple/8.png,images/simple/1.png,images/simple/16.png,images/simple/10.png,images/simple/2.png,images/simple/6.png,images/simple/14.png","0","null","","200","966.0450000548735","yes","356.51499999221414","","target","",""
"","null","html-keyboard-response","100","184891","0.0-14.0-0.43","SS1604513883460","","null","","","","","","","","","","","","<img src=images/blank.png width =""500"" height = ""500"" style=""border:5px solid black"">","","",""
"","671.1399999912828","stimulus-presentation","101","185775","0.0-14.0-1.43","SS1604513883460","<img src='images/simple/9.png' width ='500' height = '500' style='border:5px solid black'>","40","all_simple","images/simple/9.png","images/simple/15.png","images/simple/8.png,images/simple/1.png,images/simple/16.png,images/simple/10.png,images/simple/2.png,images/simple/6.png,images/simple/14.png","0","null","","200","871.1399999912828","yes","370.1349999755621","","target","",""
"","null","html-keyboard-response","102","186846","0.0-14.0-0.44","SS1604513883460","","null","","","","","","","","","","","","<img src=images/blank.png width =""500"" height = ""500"" style=""border:5px solid black"">","","",""
"","241.08499998692423","stimulus-presentation","103","187295","0.0-14.0-1.44","SS1604513883460","<img src='images/simple/15.png' width ='500' height = '500' style='border:5px solid black'>","40","all_simple","images/simple/9.png","images/simple/15.png","images/simple/8.png,images/simple/1.png,images/simple/16.png,images/simple/10.png,images/simple/2.png,images/simple/6.png,images/simple/14.png","0","null","","200","441.08499998692423","","","","background","",""
"","null","html-keyboard-response","104","188113","0.0-14.0-0.45","SS1604513883460","","null","","","","","","","","","","","","<img src=images/blank.png width =""500"" height = ""500"" style=""border:5px solid black"">","","",""
"","202.1449999883771","stimulus-presentation","105","188523","0.0-14.0-1.45","SS1604513883460","<img src='images/simple/15.png' width ='500' height = '500' style='border:5px solid black'>","40","all_simple","images/simple/9.png","images/simple/15.png","images/simple/8.png,images/simple/1.png,images/simple/16.png,images/simple/10.png,images/simple/2.png,images/simple/6.png,images/simple/14.png","0","null","","200","402.1449999883771","","","","background","",""
"","null","html-keyboard-response","106","189424","0.0-14.0-0.46","SS1604513883460","","null","","","","","","","","","","","","<img src=images/blank.png width =""500"" height = ""500"" style=""border:5px solid black"">","","",""
"","144.3849999923259","stimulus-presentation","107","189781","0.0-14.0-1.46","SS1604513883460","<img src='images/simple/15.png' width ='500' height = '500' style='border:5px solid black'>","40","all_simple","images/simple/9.png","images/simple/15.png","images/simple/8.png,images/simple/1.png,images/simple/16.png,images/simple/10.png,images/simple/2.png,images/simple/6.png,images/simple/14.png","0","null","","200","344.3849999923259","","","","background","",""
"","null","html-keyboard-response","108","191034","0.0-14.0-0.47","SS1604513883460","","null","","","","","","","","","","","","<img src=images/blank.png width =""500"" height = ""500"" style=""border:5px solid black"">","","",""
"","104.41499995067716","stimulus-presentation","109","191357","0.0-14.0-1.47","SS1604513883460","<img src='images/simple/15.png' width ='500' height = '500' style='border:5px solid black'>","40","all_simple","images/simple/9.png","images/simple/15.png","images/simple/8.png,images/simple/1.png,images/simple/16.png,images/simple/10.png,images/simple/2.png,images/simple/6.png,images/simple/14.png","0","null","","200","304.41499995067716","","","","background","",""
"","null","html-keyboard-response","110","192593","0.0-14.0-0.48","SS1604513883460","","null","","","","","","","","","","","","<img src=images/blank.png width =""500"" height = ""500"" style=""border:5px solid black"">","","",""
"","858.2700000843033","stimulus-presentation","111","193660","0.0-14.0-1.48","SS1604513883460","<img src='images/simple/9.png' width ='500' height = '500' style='border:5px solid black'>","40","all_simple","images/simple/9.png","images/simple/15.png","images/simple/8.png,images/simple/1.png,images/simple/16.png,images/simple/10.png,images/simple/2.png,images/simple/6.png,images/simple/14.png","0","null","","200","1058.2700000843033","yes","397.4050000542775","","target","",""
"[{""page_index"":0,""viewing_time"":1964}]","1964","task-instructions","112","195632","0.0-15.0","SS1604513883460","","","","","","","","","","","","","","","","",""
"[{""page_index"":0,""viewing_time"":2759.620000026189},{""page_index"":1,""viewing_time"":4585.4749999707565},{""page_index"":2,""viewing_time"":2061.184999998659}]","9406.650000018999","instructions","113","205042","0.0-16.0","SS1604513883460","","","","","","","","","","","","","","","","",""
"","null","html-keyboard-response","114","206170","0.0-17.0-0.0","SS1604513883460","","null","","","","","","","","","","","","<img src=images/blank.png width =""500"" height = ""500"" style=""border:5px solid black"">","","",""
"","397.5749999517575","stimulus-presentation","115","206780","0.0-17.0-1.0","SS1604513883460","<img src='images/complex/17.png' width ='500' height = '500' style='border:5px solid black'>","40","mixed_simple_deviant","images/complex/14.png","images/complex/17.png","images/simple/5.png,images/simple/13.png,images/simple/4.png,images/simple/11.png,images/simple/3.png,images/simple/17.png,images/simple/12.png","1","null","","200","597.5749999517575","","","","background","",""
"","null","html-keyboard-response","116","208092","0.0-17.0-0.1","SS1604513883460","","null","","","","","","","","","","","","<img src=images/blank.png width =""500"" height = ""500"" style=""border:5px solid black"">","","",""
"","1030.7449999963865","stimulus-presentation","117","209345","0.0-17.0-1.1","SS1604513883460","<img src='images/complex/14.png' width ='500' height = '500' style='border:5px solid black'>","40","mixed_simple_deviant","images/complex/14.png","images/complex/17.png","images/simple/5.png,images/simple/13.png,images/simple/4.png,images/simple/11.png,images/simple/3.png,images/simple/17.png,images/simple/12.png","1","null","","200","1230.7449999963865","yes","373.92499996349216","","target","",""
"","null","html-keyboard-response","118","210330","0.0-17.0-0.2","SS1604513883460","","null","","","","","","","","","","","","<img src=images/blank.png width =""500"" height = ""500"" style=""border:5px solid black"">","","",""
"","363.41499991249293","stimulus-presentation","119","210911","0.0-17.0-1.2","SS1604513883460","<img src='images/complex/17.png' width ='500' height = '500' style='border:5px solid black'>","40","mixed_simple_deviant","images/complex/14.png","images/complex/17.png","images/simple/5.png,images/simple/13.png,images/simple/4.png,images/simple/11.png,images/simple/3.png,images/simple/17.png,images/simple/12.png","1","null","","200","563.4149999124929","","","","background","",""
"","null","html-keyboard-response","120","212194","0.0-17.0-0.3","SS1604513883460","","null","","","","","","","","","","","","<img src=images/blank.png width =""500"" height = ""500"" style=""border:5px solid black"">","","",""
"","475.3250000067055","stimulus-presentation","121","212890","0.0-17.0-1.3","SS1604513883460","<img src='images/complex/17.png' width ='500' height = '500' style='border:5px solid black'>","40","mixed_simple_deviant","images/complex/14.png","images/complex/17.png","images/simple/5.png,images/simple/13.png,images/simple/4.png,images/simple/11.png,images/simple/3.png,images/simple/17.png,images/simple/12.png","1","null","","200","675.3250000067055","","","","background","",""
"","null","html-keyboard-response","122","213722","0.0-17.0-0.4","SS1604513883460","","null","","","","","","","","","","","","<img src=images/blank.png width =""500"" height = ""500"" style=""border:5px solid black"">","","",""
"","513.7600000016391","stimulus-presentation","123","214444","0.0-17.0-1.4","SS1604513883460","<img src='images/complex/17.png' width ='500' height = '500' style='border:5px solid black'>","40","mixed_simple_deviant","images/complex/14.png","images/complex/17.png","images/simple/5.png,images/simple/13.png,images/simple/4.png,images/simple/11.png,images/simple/3.png,images/simple/17.png,images/simple/12.png","1","null","","200","713.7600000016391","","","","background","",""
"","null","html-keyboard-response","124","215728","0.0-17.0-0.5","SS1604513883460","","null","","","","","","","","","","","","<img src=images/blank.png width =""500"" height = ""500"" style=""border:5px solid black"">","","",""
"","827.6250000344589","stimulus-presentation","125","216774","0.0-17.0-1.5","SS1604513883460","<img src='images/simple/4.png' width ='500' height = '500' style='border:5px solid black'>","40","mixed_simple_deviant","images/complex/14.png","images/complex/17.png","images/simple/5.png,images/simple/13.png,images/simple/4.png,images/simple/11.png,images/simple/3.png,images/simple/17.png,images/simple/12.png","1","null","","200","1027.625000034459","","","","deviant","",""
"","null","html-keyboard-response","126","218058","0.0-17.0-0.6","SS1604513883460","","null","","","","","","","","","","","","<img src=images/blank.png width =""500"" height = ""500"" style=""border:5px solid black"">","","",""
"","342.9400000022724","stimulus-presentation","127","218621","0.0-17.0-1.6","SS1604513883460","<img src='images/complex/17.png' width ='500' height = '500' style='border:5px solid black'>","40","mixed_simple_deviant","images/complex/14.png","images/complex/17.png","images/simple/5.png,images/simple/13.png,images/simple/4.png,images/simple/11.png,images/simple/3.png,images/simple/17.png,images/simple/12.png","1","null","","200","542.9400000022724","","","","background","",""
"","null","html-keyboard-response","128","219486","0.0-17.0-0.7","SS1604513883460","","null","","","","","","","","","","","","<img src=images/blank.png width =""500"" height = ""500"" style=""border:5px solid black"">","","",""
"","526.1700000846758","stimulus-presentation","129","220222","0.0-17.0-1.7","SS1604513883460","<img src='images/complex/17.png' width ='500' height = '500' style='border:5px solid black'>","40","mixed_simple_deviant","images/complex/14.png","images/complex/17.png","images/simple/5.png,images/simple/13.png,images/simple/4.png,images/simple/11.png,images/simple/3.png,images/simple/17.png,images/simple/12.png","1","null","","200","726.1700000846758","","","","background","",""
"","null","html-keyboard-response","130","221413","0.0-17.0-0.8","SS1604513883460","","null","","","","","","","","","","","","<img src=images/blank.png width =""500"" height = ""500"" style=""border:5px solid black"">","","",""
"","426.77000002004206","stimulus-presentation","131","222056","0.0-17.0-1.8","SS1604513883460","<img src='images/complex/17.png' width ='500' height = '500' style='border:5px solid black'>","40","mixed_simple_deviant","images/complex/14.png","images/complex/17.png","images/simple/5.png,images/simple/13.png,images/simple/4.png,images/simple/11.png,images/simple/3.png,images/simple/17.png,images/simple/12.png","1","null","","200","626.7700000200421","","","","background","",""
"","null","html-keyboard-response","132","223230","0.0-17.0-0.9","SS1604513883460","","null","","","","","","","","","","","","<img src=images/blank.png width =""500"" height = ""500"" style=""border:5px solid black"">","","",""
"","431.7799999844283","stimulus-presentation","133","223876","0.0-17.0-1.9","SS1604513883460","<img src='images/complex/17.png' width ='500' height = '500' style='border:5px solid black'>","40","mixed_simple_deviant","images/complex/14.png","images/complex/17.png","images/simple/5.png,images/simple/13.png,images/simple/4.png,images/simple/11.png,images/simple/3.png,images/simple/17.png,images/simple/12.png","1","null","","200","631.7799999844283","","","","background","",""
"","null","html-keyboard-response","134","225172","0.0-17.0-0.10","SS1604513883460","","null","","","","","","","","","","","","<img src=images/blank.png width =""500"" height = ""500"" style=""border:5px solid black"">","","",""
"","448.5199999762699","stimulus-presentation","135","225829","0.0-17.0-1.10","SS1604513883460","<img src='images/simple/5.png' width ='500' height = '500' style='border:5px solid black'>","40","mixed_simple_deviant","images/complex/14.png","images/complex/17.png","images/simple/5.png,images/simple/13.png,images/simple/4.png,images/simple/11.png,images/simple/3.png,images/simple/17.png,images/simple/12.png","1","null","","200","648.5199999762699","","","","deviant","",""
"","null","html-keyboard-response","136","227075","0.0-17.0-0.11","SS1604513883460","","null","","","","","","","","","","","","<img src=images/blank.png width =""500"" height = ""500"" style=""border:5px solid black"">","","",""
"","510.1749999448657","stimulus-presentation","137","227804","0.0-17.0-1.11","SS1604513883460","<img src='images/complex/17.png' width ='500' height = '500' style='border:5px solid black'>","40","mixed_simple_deviant","images/complex/14.png","images/complex/17.png","images/simple/5.png,images/simple/13.png,images/simple/4.png,images/simple/11.png,images/simple/3.png,images/simple/17.png,images/simple/12.png","1","null","","200","710.1749999448657","","","","background","",""
"","null","html-keyboard-response","138","229086","0.0-17.0-0.12","SS1604513883460","","null","","","","","","","","","","","","<img src=images/blank.png width =""500"" height = ""500"" style=""border:5px solid black"">","","",""
"","173.3249999815598","stimulus-presentation","139","229466","0.0-17.0-1.12","SS1604513883460","<img src='images/complex/17.png' width ='500' height = '500' style='border:5px solid black'>","40","mixed_simple_deviant","images/complex/14.png","images/complex/17.png","images/simple/5.png,images/simple/13.png,images/simple/4.png,images/simple/11.png,images/simple/3.png,images/simple/17.png,images/simple/12.png","1","null","","200","373.3249999815598","","","","background","",""
"","null","html-keyboard-response","140","230442","0.0-17.0-0.13","SS1604513883460","","null","","","","","","","","","","","","<img src=images/blank.png width =""500"" height = ""500"" style=""border:5px solid black"">","","",""
"","297.5700000533834","stimulus-presentation","141","230958","0.0-17.0-1.13","SS1604513883460","<img src='images/complex/17.png' width ='500' height = '500' style='border:5px solid black'>","40","mixed_simple_deviant","images/complex/14.png","images/complex/17.png","images/simple/5.png,images/simple/13.png,images/simple/4.png,images/simple/11.png,images/simple/3.png,images/simple/17.png,images/simple/12.png","1","null","","200","497.5700000533834","","","","background","",""
"","null","html-keyboard-response","142","231786","0.0-17.0-0.14","SS1604513883460","","null","","","","","","","","","","","","<img src=images/blank.png width =""500"" height = ""500"" style=""border:5px solid black"">","","",""
"","374.6900000842288","stimulus-presentation","143","232384","0.0-17.0-1.14","SS1604513883460","<img src='images/simple/11.png' width ='500' height = '500' style='border:5px solid black'>","40","mixed_simple_deviant","images/complex/14.png","images/complex/17.png","images/simple/5.png,images/simple/13.png,images/simple/4.png,images/simple/11.png,images/simple/3.png,images/simple/17.png,images/simple/12.png","1","null","","200","574.6900000842288","","","","deviant","",""
"","null","html-keyboard-response","144","233358","0.0-17.0-0.15","SS1604513883460","","null","","","","","","","","","","","","<img src=images/blank.png width =""500"" height = ""500"" style=""border:5px solid black"">","","",""
"","184.87499991897494","stimulus-presentation","145","233761","0.0-17.0-1.15","SS1604513883460","<img src='images/complex/17.png' width ='500' height = '500' style='border:5px solid black'>","40","mixed_simple_deviant","images/complex/14.png","images/complex/17.png","images/simple/5.png,images/simple/13.png,images/simple/4.png,images/simple/11.png,images/simple/3.png,images/simple/17.png,images/simple/12.png","1","null","","200","384.87499991897494","","","","background","",""
"","null","html-keyboard-response","146","234944","0.0-17.0-0.16","SS1604513883460","","null","","","","","","","","","","","","<img src=images/blank.png width =""500"" height = ""500"" style=""border:5px solid black"">","","",""
"","156.9799999706447","stimulus-presentation","147","235315","0.0-17.0-1.16","SS1604513883460","<img src='images/complex/17.png' width ='500' height = '500' style='border:5px solid black'>","40","mixed_simple_deviant","images/complex/14.png","images/complex/17.png","images/simple/5.png,images/simple/13.png,images/simple/4.png,images/simple/11.png,images/simple/3.png,images/simple/17.png,images/simple/12.png","1","null","","200","356.9799999706447","","","","background","",""
"","null","html-keyboard-response","148","236479","0.0-17.0-0.17","SS1604513883460","","null","","","","","","","","","","","","<img src=images/blank.png width =""500"" height = ""500"" style=""border:5px solid black"">","","",""
"","193.3799999533221","stimulus-presentation","149","236885","0.0-17.0-1.17","SS1604513883460","<img src='images/complex/14.png' width ='500' height = '500' style='border:5px solid black'>","40","mixed_simple_deviant","images/complex/14.png","images/complex/17.png","images/simple/5.png,images/simple/13.png,images/simple/4.png,images/simple/11.png,images/simple/3.png,images/simple/17.png,images/simple/12.png","1","null","","200","393.3799999533221","","","","target","",""
"","null","html-keyboard-response","150","238169","0.0-17.0-0.18","SS1604513883460","","null","","","","","","","","","","","","<img src=images/blank.png width =""500"" height = ""500"" style=""border:5px solid black"">","","",""
"","1119.6250000502914","stimulus-presentation","151","239510","0.0-17.0-1.18","SS1604513883460","<img src='images/complex/14.png' width ='500' height = '500' style='border:5px solid black'>","40","mixed_simple_deviant","images/complex/14.png","images/complex/17.png","images/simple/5.png,images/simple/13.png,images/simple/4.png,images/simple/11.png,images/simple/3.png,images/simple/17.png,images/simple/12.png","1","null","","200","1319.6250000502914","yes","363.6350000742823","","target","",""
"","null","html-keyboard-response","152","240474","0.0-17.0-0.19","SS1604513883460","","null","","","","","","","","","","","","<img src=images/blank.png width =""500"" height = ""500"" style=""border:5px solid black"">","","",""
"","352.4749999633059","stimulus-presentation","153","241043","0.0-17.0-1.19","SS1604513883460","<img src='images/complex/17.png' width ='500' height = '500' style='border:5px solid black'>","40","mixed_simple_deviant","images/complex/14.png","images/complex/17.png","images/simple/5.png,images/simple/13.png,images/simple/4.png,images/simple/11.png,images/simple/3.png,images/simple/17.png,images/simple/12.png","1","null","","200","552.4749999633059","","","","background","",""
"","null","html-keyboard-response","154","242101","0.0-17.0-0.20","SS1604513883460","","null","","","","","","","","","","","","<img src=images/blank.png width =""500"" height = ""500"" style=""border:5px solid black"">","","",""
"","287.2549999738112","stimulus-presentation","155","242611","0.0-17.0-1.20","SS1604513883460","<img src='images/simple/17.png' width ='500' height = '500' style='border:5px solid black'>","40","mixed_simple_deviant","images/complex/14.png","images/complex/17.png","images/simple/5.png,images/simple/13.png,images/simple/4.png,images/simple/11.png,images/simple/3.png,images/simple/17.png,images/simple/12.png","1","null","","200","487.2549999738112","","","","deviant","",""
"","null","html-keyboard-response","156","243699","0.0-17.0-0.21","SS1604513883460","","null","","","","","","","","","","","","<img src=images/blank.png width =""500"" height = ""500"" style=""border:5px solid black"">","","",""
"","244.1899999976158","stimulus-presentation","157","244166","0.0-17.0-1.21","SS1604513883460","<img src='images/complex/17.png' width ='500' height = '500' style='border:5px solid black'>","40","mixed_simple_deviant","images/complex/14.png","images/complex/17.png","images/simple/5.png,images/simple/13.png,images/simple/4.png,images/simple/11.png,images/simple/3.png,images/simple/17.png,images/simple/12.png","1","null","","200","444.1899999976158","","","","background","",""
"","null","html-keyboard-response","158","245061","0.0-17.0-0.22","SS1604513883460","","null","","","","","","","","","","","","<img src=images/blank.png width =""500"" height = ""500"" style=""border:5px solid black"">","","",""
"","210.6850000564009","stimulus-presentation","159","245483","0.0-17.0-1.22","SS1604513883460","<img src='images/complex/17.png' width ='500' height = '500' style='border:5px solid black'>","40","mixed_simple_deviant","images/complex/14.png","images/complex/17.png","images/simple/5.png,images/simple/13.png,images/simple/4.png,images/simple/11.png,images/simple/3.png,images/simple/17.png,images/simple/12.png","1","null","","200","410.6850000564009","","","","background","",""
"","null","html-keyboard-response","160","246455","0.0-17.0-0.23","SS1604513883460","","null","","","","","","","","","","","","<img src=images/blank.png width =""500"" height = ""500"" style=""border:5px solid black"">","","",""
"","216.9500000309199","stimulus-presentation","161","246890","0.0-17.0-1.23","SS1604513883460","<img src='images/complex/17.png' width ='500' height = '500' style='border:5px solid black'>","40","mixed_simple_deviant","images/complex/14.png","images/complex/17.png","images/simple/5.png,images/simple/13.png,images/simple/4.png,images/simple/11.png,images/simple/3.png,images/simple/17.png,images/simple/12.png","1","null","","200","416.9500000309199","","","","background","",""
"","null","html-keyboard-response","162","248011","0.0-17.0-0.24","SS1604513883460","","null","","","","","","","","","","","","<img src=images/blank.png width =""500"" height = ""500"" style=""border:5px solid black"">","","",""
"","299.83500007074326","stimulus-presentation","163","248522","0.0-17.0-1.24","SS1604513883460","<img src='images/complex/17.png' width ='500' height = '500' style='border:5px solid black'>","40","mixed_simple_deviant","images/complex/14.png","images/complex/17.png","images/simple/5.png,images/simple/13.png,images/simple/4.png,images/simple/11.png,images/simple/3.png,images/simple/17.png,images/simple/12.png","1","null","","200","499.83500007074326","","","","background","",""
"","null","html-keyboard-response","164","249833","0.0-17.0-0.25","SS1604513883460","","null","","","","","","","","","","","","<img src=images/blank.png width =""500"" height = ""500"" style=""border:5px solid black"">","","",""
"","172.59999993257225","stimulus-presentation","165","250228","0.0-17.0-1.25","SS1604513883460","<img src='images/complex/17.png' width ='500' height = '500' style='border:5px solid black'>","40","mixed_simple_deviant","images/complex/14.png","images/complex/17.png","images/simple/5.png,images/simple/13.png,images/simple/4.png,images/simple/11.png,images/simple/3.png,images/simple/17.png,images/simple/12.png","1","null","","200","372.59999993257225","","","","background","",""
"","null","html-keyboard-response","166","251172","0.0-17.0-0.26","SS1604513883460","","null","","","","","","","","","","","","<img src=images/blank.png width =""500"" height = ""500"" style=""border:5px solid black"">","","",""
"","364.82000001706183","stimulus-presentation","167","251753","0.0-17.0-1.26","SS1604513883460","<img src='images/simple/12.png' width ='500' height = '500' style='border:5px solid black'>","40","mixed_simple_deviant","images/complex/14.png","images/complex/17.png","images/simple/5.png,images/simple/13.png,images/simple/4.png,images/simple/11.png,images/simple/3.png,images/simple/17.png,images/simple/12.png","1","null","","200","564.8200000170618","","","","deviant","",""
"","null","html-keyboard-response","168","252908","0.0-17.0-0.27","SS1604513883460","","null","","","","","","","","","","","","<img src=images/blank.png width =""500"" height = ""500"" style=""border:5px solid black"">","","",""
"","370.6050000619143","stimulus-presentation","169","253490","0.0-17.0-1.27","SS1604513883460","<img src='images/complex/17.png' width ='500' height = '500' style='border:5px solid black'>","40","mixed_simple_deviant","images/complex/14.png","images/complex/17.png","images/simple/5.png,images/simple/13.png,images/simple/4.png,images/simple/11.png,images/simple/3.png,images/simple/17.png,images/simple/12.png","1","null","","200","570.6050000619143","","","","background","",""
"","null","html-keyboard-response","170","254741","0.0-17.0-0.28","SS1604513883460","","null","","","","","","","","","","","","<img src=images/blank.png width =""500"" height = ""500"" style=""border:5px solid black"">","","",""
"","1211.6450000321493","stimulus-presentation","171","256161","0.0-17.0-1.28","SS1604513883460","<img src='images/complex/14.png' width ='500' height = '500' style='border:5px solid black'>","40","mixed_simple_deviant","images/complex/14.png","images/complex/17.png","images/simple/5.png,images/simple/13.png,images/simple/4.png,images/simple/11.png,images/simple/3.png,images/simple/17.png,images/simple/12.png","1","null","","200","1411.6450000321493","yes","486.32999998517334","","target","",""
"","null","html-keyboard-response","172","257433","0.0-17.0-0.29","SS1604513883460","","null","","","","","","","","","","","","<img src=images/blank.png width =""500"" height = ""500"" style=""border:5px solid black"">","","",""
"","250.50500000361353","stimulus-presentation","173","257904","0.0-17.0-1.29","SS1604513883460","<img src='images/complex/17.png' width ='500' height = '500' style='border:5px solid black'>","40","mixed_simple_deviant","images/complex/14.png","images/complex/17.png","images/simple/5.png,images/simple/13.png,images/simple/4.png,images/simple/11.png,images/simple/3.png,images/simple/17.png,images/simple/12.png","1","null","","200","450.50500000361353","","","","background","",""
"","null","html-keyboard-response","174","259088","0.0-17.0-0.30","SS1604513883460","","null","","","","","","","","","","","","<img src=images/blank.png width =""500"" height = ""500"" style=""border:5px solid black"">","","",""
"","2138.674999936484","stimulus-presentation","175","261441","0.0-17.0-1.30","SS1604513883460","<img src='images/complex/14.png' width ='500' height = '500' style='border:5px solid black'>","40","mixed_simple_deviant","images/complex/14.png","images/complex/17.png","images/simple/5.png,images/simple/13.png,images/simple/4.png,images/simple/11.png,images/simple/3.png,images/simple/17.png,images/simple/12.png","1","null","","200","2338.674999936484","yes","402.21999993082136","","target","",""
"","null","html-keyboard-response","176","262371","0.0-17.0-0.31","SS1604513883460","","null","","","","","","","","","","","","<img src=images/blank.png width =""500"" height = ""500"" style=""border:5px solid black"">","","",""
"","380.4650000529364","stimulus-presentation","177","262966","0.0-17.0-1.31","SS1604513883460","<img src='images/complex/17.png' width ='500' height = '500' style='border:5px solid black'>","40","mixed_simple_deviant","images/complex/14.png","images/complex/17.png","images/simple/5.png,images/simple/13.png,images/simple/4.png,images/simple/11.png,images/simple/3.png,images/simple/17.png,images/simple/12.png","1","null","","200","580.4650000529364","","","","background","",""
"","null","html-keyboard-response","178","264139","0.0-17.0-0.32","SS1604513883460","","null","","","","","","","","","","","","<img src=images/blank.png width =""500"" height = ""500"" style=""border:5px solid black"">","","",""
"","381.4649999840185","stimulus-presentation","179","264733","0.0-17.0-1.32","SS1604513883460","<img src='images/simple/3.png' width ='500' height = '500' style='border:5px solid black'>","40","mixed_simple_deviant","images/complex/14.png","images/complex/17.png","images/simple/5.png,images/simple/13.png,images/simple/4.png,images/simple/11.png,images/simple/3.png,images/simple/17.png,images/simple/12.png","1","null","","200","581.4649999840185","","","","deviant","",""
"","null","html-keyboard-response","180","265653","0.0-17.0-0.33","SS1604513883460","","null","","","","","","","","","","","","<img src=images/blank.png width =""500"" height = ""500"" style=""border:5px solid black"">","","",""
"","430.54500001017004","stimulus-presentation","181","266295","0.0-17.0-1.33","SS1604513883460","<img src='images/complex/17.png' width ='500' height = '500' style='border:5px solid black'>","40","mixed_simple_deviant","images/complex/14.png","images/complex/17.png","images/simple/5.png,images/simple/13.png,images/simple/4.png,images/simple/11.png,images/simple/3.png,images/simple/17.png,images/simple/12.png","1","null","","200","630.54500001017","","","","background","",""
"","null","html-keyboard-response","182","267376","0.0-17.0-0.34","SS1604513883460","","null","","","","","","","","","","","","<img src=images/blank.png width =""500"" height = ""500"" style=""border:5px solid black"">","","",""
"","315.38499996531755","stimulus-presentation","183","267899","0.0-17.0-1.34","SS1604513883460","<img src='images/complex/17.png' width ='500' height = '500' style='border:5px solid black'>","40","mixed_simple_deviant","images/complex/14.png","images/complex/17.png","images/simple/5.png,images/simple/13.png,images/simple/4.png,images/simple/11.png,images/simple/3.png,images/simple/17.png,images/simple/12.png","1","null","","200","515.3849999653175","","","","background","",""
"","null","html-keyboard-response","184","268883","0.0-17.0-0.35","SS1604513883460","","null","","","","","","","","","","","","<img src=images/blank.png width =""500"" height = ""500"" style=""border:5px solid black"">","","",""
"","389.519999967888","stimulus-presentation","185","269490","0.0-17.0-1.35","SS1604513883460","<img src='images/complex/17.png' width ='500' height = '500' style='border:5px solid black'>","40","mixed_simple_deviant","images/complex/14.png","images/complex/17.png","images/simple/5.png,images/simple/13.png,images/simple/4.png,images/simple/11.png,images/simple/3.png,images/simple/17.png,images/simple/12.png","1","null","","200","589.519999967888","","","","background","",""
"","null","html-keyboard-response","186","270810","0.0-17.0-0.36","SS1604513883460","","null","","","","","","","","","","","","<img src=images/blank.png width =""500"" height = ""500"" style=""border:5px solid black"">","","",""
"","490.3700000140816","stimulus-presentation","187","271524","0.0-17.0-1.36","SS1604513883460","<img src='images/complex/17.png' width ='500' height = '500' style='border:5px solid black'>","40","mixed_simple_deviant","images/complex/14.png","images/complex/17.png","images/simple/5.png,images/simple/13.png,images/simple/4.png,images/simple/11.png,images/simple/3.png,images/simple/17.png,images/simple/12.png","1","null","","200","690.3700000140816","","","","background","",""
"","null","html-keyboard-response","188","272655","0.0-17.0-0.37","SS1604513883460","","null","","","","","","","","","","","","<img src=images/blank.png width =""500"" height = ""500"" style=""border:5px solid black"">","","",""
"","470.42999998666346","stimulus-presentation","189","273337","0.0-17.0-1.37","SS1604513883460","<img src='images/complex/17.png' width ='500' height = '500' style='border:5px solid black'>","40","mixed_simple_deviant","images/complex/14.png","images/complex/17.png","images/simple/5.png,images/simple/13.png,images/simple/4.png,images/simple/11.png,images/simple/3.png,images/simple/17.png,images/simple/12.png","1","null","","200","670.4299999866635","","","","background","",""
"","null","html-keyboard-response","190","274284","0.0-17.0-0.38","SS1604513883460","","null","","","","","","","","","","","","<img src=images/blank.png width =""500"" height = ""500"" style=""border:5px solid black"">","","",""
"","487.77000000700355","stimulus-presentation","191","274987","0.0-17.0-1.38","SS1604513883460","<img src='images/simple/13.png' width ='500' height = '500' style='border:5px solid black'>","40","mixed_simple_deviant","images/complex/14.png","images/complex/17.png","images/simple/5.png,images/simple/13.png,images/simple/4.png,images/simple/11.png,images/simple/3.png,images/simple/17.png,images/simple/12.png","1","null","","200","687.7700000070035","","","","deviant","",""
"","null","html-keyboard-response","192","276042","0.0-17.0-0.39","SS1604513883460","","null","","","","","","","","","","","","<img src=images/blank.png width =""500"" height = ""500"" style=""border:5px solid black"">","","",""
"","1296.570000005886","stimulus-presentation","193","277561","0.0-17.0-1.39","SS1604513883460","<img src='images/complex/14.png' width ='500' height = '500' style='border:5px solid black'>","40","mixed_simple_deviant","images/complex/14.png","images/complex/17.png","images/simple/5.png,images/simple/13.png,images/simple/4.png,images/simple/11.png,images/simple/3.png,images/simple/17.png,images/simple/12.png","1","null","","200","1496.570000005886","yes","626.0350000811741","","target","",""
"","null","html-keyboard-response","194","278516","0.0-17.0-0.40","SS1604513883460","","null","","","","","","","","","","","","<img src=images/blank.png width =""500"" height = ""500"" style=""border:5px solid black"">","","",""
"","348.59499998856336","stimulus-presentation","195","279080","0.0-17.0-1.40","SS1604513883460","<img src='images/complex/17.png' width ='500' height = '500' style='border:5px solid black'>","40","mixed_simple_deviant","images/complex/14.png","images/complex/17.png","images/simple/5.png,images/simple/13.png,images/simple/4.png,images/simple/11.png,images/simple/3.png,images/simple/17.png,images/simple/12.png","1","null","","200","548.5949999885634","","","","background","",""
"","null","html-keyboard-response","196","280000","0.0-17.0-0.41","SS1604513883460","","null","","","","","","","","","","","","<img src=images/blank.png width =""500"" height = ""500"" style=""border:5px solid black"">","","",""
"","433.21500008460134","stimulus-presentation","197","280648","0.0-17.0-1.41","SS1604513883460","<img src='images/complex/17.png' width ='500' height = '500' style='border:5px solid black'>","40","mixed_simple_deviant","images/complex/14.png","images/complex/17.png","images/simple/5.png,images/simple/13.png,images/simple/4.png,images/simple/11.png,images/simple/3.png,images/simple/17.png,images/simple/12.png","1","null","","200","633.2150000846013","","","","background","",""
"","null","html-keyboard-response","198","281864","0.0-17.0-0.42","SS1604513883460","","null","","","","","","","","","","","","<img src=images/blank.png width =""500"" height = ""500"" style=""border:5px solid black"">","","",""
"","388.440000009723","stimulus-presentation","199","282469","0.0-17.0-1.42","SS1604513883460","<img src='images/complex/17.png' width ='500' height = '500' style='border:5px solid black'>","40","mixed_simple_deviant","images/complex/14.png","images/complex/17.png","images/simple/5.png,images/simple/13.png,images/simple/4.png,images/simple/11.png,images/simple/3.png,images/simple/17.png,images/simple/12.png","1","null","","200","588.440000009723","","","","background","",""
"","null","html-keyboard-response","200","283352","0.0-17.0-0.43","SS1604513883460","","null","","","","","","","","","","","","<img src=images/blank.png width =""500"" height = ""500"" style=""border:5px solid black"">","","",""
"","414.48499995749444","stimulus-presentation","201","283994","0.0-17.0-1.43","SS1604513883460","<img src='images/complex/17.png' width ='500' height = '500' style='border:5px solid black'>","40","mixed_simple_deviant","images/complex/14.png","images/complex/17.png","images/simple/5.png,images/simple/13.png,images/simple/4.png,images/simple/11.png,images/simple/3.png,images/simple/17.png,images/simple/12.png","1","null","","200","614.4849999574944","","","","background","",""
"","null","html-keyboard-response","202","284901","0.0-17.0-0.44","SS1604513883460","","null","","","","","","","","","","","","<img src=images/blank.png width =""500"" height = ""500"" style=""border:5px solid black"">","","",""
"","407.60000003501773","stimulus-presentation","203","285520","0.0-17.0-1.44","SS1604513883460","<img src='images/complex/17.png' width ='500' height = '500' style='border:5px solid black'>","40","mixed_simple_deviant","images/complex/14.png","images/complex/17.png","images/simple/5.png,images/simple/13.png,images/simple/4.png,images/simple/11.png,images/simple/3.png,images/simple/17.png,images/simple/12.png","1","null","","200","607.6000000350177","","","","background","",""
"","null","html-keyboard-response","204","286495","0.0-17.0-0.45","SS1604513883460","","null","","","","","","","","","","","","<img src=images/blank.png width =""500"" height = ""500"" style=""border:5px solid black"">","","",""
"","296.4650000212714","stimulus-presentation","205","287010","0.0-17.0-1.45","SS1604513883460","<img src='images/complex/17.png' width ='500' height = '500' style='border:5px solid black'>","40","mixed_simple_deviant","images/complex/14.png","images/complex/17.png","images/simple/5.png,images/simple/13.png,images/simple/4.png,images/simple/11.png,images/simple/3.png,images/simple/17.png,images/simple/12.png","1","null","","200","496.4650000212714","","","","background","",""
"","null","html-keyboard-response","206","288011","0.0-17.0-0.46","SS1604513883460","","null","","","","","","","","","","","","<img src=images/blank.png width =""500"" height = ""500"" style=""border:5px solid black"">","","",""
"","420.5450000008568","stimulus-presentation","207","288650","0.0-17.0-1.46","SS1604513883460","<img src='images/complex/17.png' width ='500' height = '500' style='border:5px solid black'>","40","mixed_simple_deviant","images/complex/14.png","images/complex/17.png","images/simple/5.png,images/simple/13.png,images/simple/4.png,images/simple/11.png,images/simple/3.png,images/simple/17.png,images/simple/12.png","1","null","","200","620.5450000008568","","","","background","",""
"","null","html-keyboard-response","208","289785","0.0-17.0-0.47","SS1604513883460","","null","","","","","","","","","","","","<img src=images/blank.png width =""500"" height = ""500"" style=""border:5px solid black"">","","",""
"","282.83500007819384","stimulus-presentation","209","290294","0.0-17.0-1.47","SS1604513883460","<img src='images/complex/17.png' width ='500' height = '500' style='border:5px solid black'>","40","mixed_simple_deviant","images/complex/14.png","images/complex/17.png","images/simple/5.png,images/simple/13.png,images/simple/4.png,images/simple/11.png,images/simple/3.png,images/simple/17.png,images/simple/12.png","1","null","","200","482.83500007819384","","","","background","",""
"","null","html-keyboard-response","210","291417","0.0-17.0-0.48","SS1604513883460","","null","","","","","","","","","","","","<img src=images/blank.png width =""500"" height = ""500"" style=""border:5px solid black"">","","",""
"","2101.7899999860674","stimulus-presentation","211","293726","0.0-17.0-1.48","SS1604513883460","<img src='images/complex/14.png' width ='500' height = '500' style='border:5px solid black'>","40","mixed_simple_deviant","images/complex/14.png","images/complex/17.png","images/simple/5.png,images/simple/13.png,images/simple/4.png,images/simple/11.png,images/simple/3.png,images/simple/17.png,images/simple/12.png","1","null","","200","2301.7899999860674","yes","519.1900000208989","","target","",""
"[{""page_index"":0,""viewing_time"":5586}]","5587","task-instructions","212","299322","0.0-18.0","SS1604513883460","","","","","","","","","","","","","","","","",""
"[{""page_index"":0,""viewing_time"":1295.105000026524},{""page_index"":1,""viewing_time"":3687.6049999846146},{""page_index"":2,""viewing_time"":1399.8150000115857}]","6382.820000057109","instructions","213","305710","0.0-19.0","SS1604513883460","","","","","","","","","","","","","","","","",""
"","null","html-keyboard-response","214","306791","0.0-20.0-0.0","SS1604513883460","","null","","","","","","","","","","","","<img src=images/blank.png width =""500"" height = ""500"" style=""border:5px solid black"">","","",""
"","420.7450000103563","stimulus-presentation","215","307428","0.0-20.0-1.0","SS1604513883460","<img src='images/complex/11.png' width ='500' height = '500' style='border:5px solid black'>","40","all_complex","images/complex/10.png","images/complex/11.png","images/complex/12.png,images/complex/6.png,images/complex/13.png,images/complex/16.png,images/complex/1.png,images/complex/4.png,images/complex/15.png","2","null","","200","620.7450000103563","","","","background","",""
"","null","html-keyboard-response","216","308487","0.0-20.0-0.1","SS1604513883460","","null","","","","","","","","","","","","<img src=images/blank.png width =""500"" height = ""500"" style=""border:5px solid black"">","","",""
"","222.87499997764826","stimulus-presentation","217","308930","0.0-20.0-1.1","SS1604513883460","<img src='images/complex/11.png' width ='500' height = '500' style='border:5px solid black'>","40","all_complex","images/complex/10.png","images/complex/11.png","images/complex/12.png,images/complex/6.png,images/complex/13.png,images/complex/16.png,images/complex/1.png,images/complex/4.png,images/complex/15.png","2","null","","200","422.87499997764826","","","","background","",""
"","null","html-keyboard-response","218","310125","0.0-20.0-0.2","SS1604513883460","","null","","","","","","","","","","","","<img src=images/blank.png width =""500"" height = ""500"" style=""border:5px solid black"">","","",""
"","513.4150000521913","stimulus-presentation","219","310854","0.0-20.0-1.2","SS1604513883460","<img src='images/complex/12.png' width ='500' height = '500' style='border:5px solid black'>","40","all_complex","images/complex/10.png","images/complex/11.png","images/complex/12.png,images/complex/6.png,images/complex/13.png,images/complex/16.png,images/complex/1.png,images/complex/4.png,images/complex/15.png","2","null","","200","713.4150000521913","","","","deviant","",""
"","null","html-keyboard-response","220","311988","0.0-20.0-0.3","SS1604513883460","","null","","","","","","","","","","","","<img src=images/blank.png width =""500"" height = ""500"" style=""border:5px solid black"">","","",""
"","367.71000002045184","stimulus-presentation","221","312575","0.0-20.0-1.3","SS1604513883460","<img src='images/complex/11.png' width ='500' height = '500' style='border:5px solid black'>","40","all_complex","images/complex/10.png","images/complex/11.png","images/complex/12.png,images/complex/6.png,images/complex/13.png,images/complex/16.png,images/complex/1.png,images/complex/4.png,images/complex/15.png","2","null","","200","567.7100000204518","","","","background","",""
"","null","html-keyboard-response","222","313759","0.0-20.0-0.4","SS1604513883460","","null","","","","","","","","","","","","<img src=images/blank.png width =""500"" height = ""500"" style=""border:5px solid black"">","","",""
"","382.175000035204","stimulus-presentation","223","314355","0.0-20.0-1.4","SS1604513883460","<img src='images/complex/11.png' width ='500' height = '500' style='border:5px solid black'>","40","all_complex","images/complex/10.png","images/complex/11.png","images/complex/12.png,images/complex/6.png,images/complex/13.png,images/complex/16.png,images/complex/1.png,images/complex/4.png,images/complex/15.png","2","null","","200","582.175000035204","","","","background","",""
"","null","html-keyboard-response","224","315572","0.0-20.0-0.5","SS1604513883460","","null","","","","","","","","","","","","<img src=images/blank.png width =""500"" height = ""500"" style=""border:5px solid black"">","","",""
"","1048.7049999646842","stimulus-presentation","225","316837","0.0-20.0-1.5","SS1604513883460","<img src='images/complex/10.png' width ='500' height = '500' style='border:5px solid black'>","40","all_complex","images/complex/10.png","images/complex/11.png","images/complex/12.png,images/complex/6.png,images/complex/13.png,images/complex/16.png,images/complex/1.png,images/complex/4.png,images/complex/15.png","2","null","","200","1248.7049999646842","yes","330.420000012964","","target","",""
"","null","html-keyboard-response","226","318134","0.0-20.0-0.6","SS1604513883460","","null","","","","","","","","","","","","<img src=images/blank.png width =""500"" height = ""500"" style=""border:5px solid black"">","","",""
"","332.1549999527633","stimulus-presentation","227","318687","0.0-20.0-1.6","SS1604513883460","<img src='images/complex/11.png' width ='500' height = '500' style='border:5px solid black'>","40","all_complex","images/complex/10.png","images/complex/11.png","images/complex/12.png,images/complex/6.png,images/complex/13.png,images/complex/16.png,images/complex/1.png,images/complex/4.png,images/complex/15.png","2","null","","200","532.1549999527633","","","","background","",""
"","null","html-keyboard-response","228","319577","0.0-20.0-0.7","SS1604513883460","","null","","","","","","","","","","","","<img src=images/blank.png width =""500"" height = ""500"" style=""border:5px solid black"">","","",""
"","587.6699999207631","stimulus-presentation","229","320391","0.0-20.0-1.7","SS1604513883460","<img src='images/complex/6.png' width ='500' height = '500' style='border:5px solid black'>","40","all_complex","images/complex/10.png","images/complex/11.png","images/complex/12.png,images/complex/6.png,images/complex/13.png,images/complex/16.png,images/complex/1.png,images/complex/4.png,images/complex/15.png","2","null","","200","787.6699999207631","","","","deviant","",""
"","null","html-keyboard-response","230","321685","0.0-20.0-0.8","SS1604513883460","","null","","","","","","","","","","","","<img src=images/blank.png width =""500"" height = ""500"" style=""border:5px solid black"">","","",""
"","355.8000000193715","stimulus-presentation","231","322260","0.0-20.0-1.8","SS1604513883460","<img src='images/complex/11.png' width ='500' height = '500' style='border:5px solid black'>","40","all_complex","images/complex/10.png","images/complex/11.png","images/complex/12.png,images/complex/6.png,images/complex/13.png,images/complex/16.png,images/complex/1.png,images/complex/4.png,images/complex/15.png","2","null","","200","555.8000000193715","","","","background","",""
"","null","html-keyboard-response","232","323393","0.0-20.0-0.9","SS1604513883460","","null","","","","","","","","","","","","<img src=images/blank.png width =""500"" height = ""500"" style=""border:5px solid black"">","","",""
"","300.23500008974224","stimulus-presentation","233","323905","0.0-20.0-1.9","SS1604513883460","<img src='images/complex/11.png' width ='500' height = '500' style='border:5px solid black'>","40","all_complex","images/complex/10.png","images/complex/11.png","images/complex/12.png,images/complex/6.png,images/complex/13.png,images/complex/16.png,images/complex/1.png,images/complex/4.png,images/complex/15.png","2","null","","200","500.23500008974224","","","","background","",""
"","null","html-keyboard-response","234","324890","0.0-20.0-0.10","SS1604513883460","","null","","","","","","","","","","","","<img src=images/blank.png width =""500"" height = ""500"" style=""border:5px solid black"">","","",""
"","341.77999990060925","stimulus-presentation","235","325446","0.0-20.0-1.10","SS1604513883460","<img src='images/complex/11.png' width ='500' height = '500' style='border:5px solid black'>","40","all_complex","images/complex/10.png","images/complex/11.png","images/complex/12.png,images/complex/6.png,images/complex/13.png,images/complex/16.png,images/complex/1.png,images/complex/4.png,images/complex/15.png","2","null","","200","541.7799999006093","","","","background","",""
"","null","html-keyboard-response","236","326533","0.0-20.0-0.11","SS1604513883460","","null","","","","","","","","","","","","<img src=images/blank.png width =""500"" height = ""500"" style=""border:5px solid black"">","","",""
"","304.329999955371","stimulus-presentation","237","327058","0.0-20.0-1.11","SS1604513883460","<img src='images/complex/11.png' width ='500' height = '500' style='border:5px solid black'>","40","all_complex","images/complex/10.png","images/complex/11.png","images/complex/12.png,images/complex/6.png,images/complex/13.png,images/complex/16.png,images/complex/1.png,images/complex/4.png,images/complex/15.png","2","null","","200","504.329999955371","","","","background","",""
"","null","html-keyboard-response","238","328083","0.0-20.0-0.12","SS1604513883460","","null","","","","","","","","","","","","<img src=images/blank.png width =""500"" height = ""500"" style=""border:5px solid black"">","","",""
"","355.9900000691414","stimulus-presentation","239","328659","0.0-20.0-1.12","SS1604513883460","<img src='images/complex/11.png' width ='500' height = '500' style='border:5px solid black'>","40","all_complex","images/complex/10.png","images/complex/11.png","images/complex/12.png,images/complex/6.png,images/complex/13.png,images/complex/16.png,images/complex/1.png,images/complex/4.png,images/complex/15.png","2","null","","200","555.9900000691414","","","","background","",""
"","null","html-keyboard-response","240","329619","0.0-20.0-0.13","SS1604513883460","","null","","","","","","","","","","","","<img src=images/blank.png width =""500"" height = ""500"" style=""border:5px solid black"">","","",""
"","536.4599999738857","stimulus-presentation","241","330373","0.0-20.0-1.13","SS1604513883460","<img src='images/complex/15.png' width ='500' height = '500' style='border:5px solid black'>","40","all_complex","images/complex/10.png","images/complex/11.png","images/complex/12.png,images/complex/6.png,images/complex/13.png,images/complex/16.png,images/complex/1.png,images/complex/4.png,images/complex/15.png","2","null","","200","736.4599999738857","","","","deviant","",""
"","null","html-keyboard-response","242","331382","0.0-20.0-0.14","SS1604513883460","","null","","","","","","","","","","","","<img src=images/blank.png width =""500"" height = ""500"" style=""border:5px solid black"">","","",""
"","370.1850000070408","stimulus-presentation","243","331973","0.0-20.0-1.14","SS1604513883460","<img src='images/complex/11.png' width ='500' height = '500' style='border:5px solid black'>","40","all_complex","images/complex/10.png","images/complex/11.png","images/complex/12.png,images/complex/6.png,images/complex/13.png,images/complex/16.png,images/complex/1.png,images/complex/4.png,images/complex/15.png","2","null","","200","570.1850000070408","","","","background","",""
"","null","html-keyboard-response","244","332810","0.0-20.0-0.15","SS1604513883460","","null","","","","","","","","","","","","<img src=images/blank.png width =""500"" height = ""500"" style=""border:5px solid black"">","","",""
"","412.1550000272691","stimulus-presentation","245","333438","0.0-20.0-1.15","SS1604513883460","<img src='images/complex/11.png' width ='500' height = '500' style='border:5px solid black'>","40","all_complex","images/complex/10.png","images/complex/11.png","images/complex/12.png,images/complex/6.png,images/complex/13.png,images/complex/16.png,images/complex/1.png,images/complex/4.png,images/complex/15.png","2","null","","200","612.1550000272691","","","","background","",""
"","null","html-keyboard-response","246","334709","0.0-20.0-0.16","SS1604513883460","","null","","","","","","","","","","","","<img src=images/blank.png width =""500"" height = ""500"" style=""border:5px solid black"">","","",""
"","191.84000010136515","stimulus-presentation","247","335113","0.0-20.0-1.16","SS1604513883460","<img src='images/complex/11.png' width ='500' height = '500' style='border:5px solid black'>","40","all_complex","images/complex/10.png","images/complex/11.png","images/complex/12.png,images/complex/6.png,images/complex/13.png,images/complex/16.png,images/complex/1.png,images/complex/4.png,images/complex/15.png","2","null","","200","391.84000010136515","","","","background","",""
"","null","html-keyboard-response","248","336131","0.0-20.0-0.17","SS1604513883460","","null","","","","","","","","","","","","<img src=images/blank.png width =""500"" height = ""500"" style=""border:5px solid black"">","","",""
"","407.0300000021234","stimulus-presentation","249","336758","0.0-20.0-1.17","SS1604513883460","<img src='images/complex/11.png' width ='500' height = '500' style='border:5px solid black'>","40","all_complex","images/complex/10.png","images/complex/11.png","images/complex/12.png,images/complex/6.png,images/complex/13.png,images/complex/16.png,images/complex/1.png,images/complex/4.png,images/complex/15.png","2","null","","200","607.0300000021234","","","","background","",""
"","null","html-keyboard-response","250","337816","0.0-20.0-0.18","SS1604513883460","","null","","","","","","","","","","","","<img src=images/blank.png width =""500"" height = ""500"" style=""border:5px solid black"">","","",""
"","242.97999998088926","stimulus-presentation","251","338276","0.0-20.0-1.18","SS1604513883460","<img src='images/complex/11.png' width ='500' height = '500' style='border:5px solid black'>","40","all_complex","images/complex/10.png","images/complex/11.png","images/complex/12.png,images/complex/6.png,images/complex/13.png,images/complex/16.png,images/complex/1.png,images/complex/4.png,images/complex/15.png","2","null","","200","442.97999998088926","","","","background","",""
"","null","html-keyboard-response","252","339593","0.0-20.0-0.19","SS1604513883460","","null","","","","","","","","","","","","<img src=images/blank.png width =""500"" height = ""500"" style=""border:5px solid black"">","","",""
"","1276.4599999645725","stimulus-presentation","253","341080","0.0-20.0-1.19","SS1604513883460","<img src='images/complex/10.png' width ='500' height = '500' style='border:5px solid black'>","40","all_complex","images/complex/10.png","images/complex/11.png","images/complex/12.png,images/complex/6.png,images/complex/13.png,images/complex/16.png,images/complex/1.png,images/complex/4.png,images/complex/15.png","2","null","","200","1476.4599999645725","yes","451.5599999576807","","target","",""
"","null","html-keyboard-response","254","342272","0.0-20.0-0.20","SS1604513883460","","null","","","","","","","","","","","","<img src=images/blank.png width =""500"" height = ""500"" style=""border:5px solid black"">","","",""
"","285.4850000003353","stimulus-presentation","255","342784","0.0-20.0-1.20","SS1604513883460","<img src='images/complex/11.png' width ='500' height = '500' style='border:5px solid black'>","40","all_complex","images/complex/10.png","images/complex/11.png","images/complex/12.png,images/complex/6.png,images/complex/13.png,images/complex/16.png,images/complex/1.png,images/complex/4.png,images/complex/15.png","2","null","","200","485.4850000003353","","","","background","",""
"","null","html-keyboard-response","256","343718","0.0-20.0-0.21","SS1604513883460","","null","","","","","","","","","","","","<img src=images/blank.png width =""500"" height = ""500"" style=""border:5px solid black"">","","",""
"","1301.5850000083447","stimulus-presentation","257","345232","0.0-20.0-1.21","SS1604513883460","<img src='images/complex/10.png' width ='500' height = '500' style='border:5px solid black'>","40","all_complex","images/complex/10.png","images/complex/11.png","images/complex/12.png,images/complex/6.png,images/complex/13.png,images/complex/16.png,images/complex/1.png,images/complex/4.png,images/complex/15.png","2","null","","200","1501.5850000083447","yes","440.68500003777444","","target","",""
"","null","html-keyboard-response","258","346261","0.0-20.0-0.22","SS1604513883460","","null","","","","","","","","","","","","<img src=images/blank.png width =""500"" height = ""500"" style=""border:5px solid black"">","","",""
"","327.4800000945106","stimulus-presentation","259","346809","0.0-20.0-1.22","SS1604513883460","<img src='images/complex/11.png' width ='500' height = '500' style='border:5px solid black'>","40","all_complex","images/complex/10.png","images/complex/11.png","images/complex/12.png,images/complex/6.png,images/complex/13.png,images/complex/16.png,images/complex/1.png,images/complex/4.png,images/complex/15.png","2","null","","200","527.4800000945106","","","","background","",""
"","null","html-keyboard-response","260","347672","0.0-20.0-0.23","SS1604513883460","","null","","","","","","","","","","","","<img src=images/blank.png width =""500"" height = ""500"" style=""border:5px solid black"">","","",""
"","402.2399999666959","stimulus-presentation","261","348300","0.0-20.0-1.23","SS1604513883460","<img src='images/complex/11.png' width ='500' height = '500' style='border:5px solid black'>","40","all_complex","images/complex/10.png","images/complex/11.png","images/complex/12.png,images/complex/6.png,images/complex/13.png,images/complex/16.png,images/complex/1.png,images/complex/4.png,images/complex/15.png","2","null","","200","602.2399999666959","","","","background","",""
"","null","html-keyboard-response","262","349561","0.0-20.0-0.24","SS1604513883460","","null","","","","","","","","","","","","<img src=images/blank.png width =""500"" height = ""500"" style=""border:5px solid black"">","","",""
"","327.6299999561161","stimulus-presentation","263","350108","0.0-20.0-1.24","SS1604513883460","<img src='images/complex/11.png' width ='500' height = '500' style='border:5px solid black'>","40","all_complex","images/complex/10.png","images/complex/11.png","images/complex/12.png,images/complex/6.png,images/complex/13.png,images/complex/16.png,images/complex/1.png,images/complex/4.png,images/complex/15.png","2","null","","200","527.6299999561161","","","","background","",""
"","null","html-keyboard-response","264","351148","0.0-20.0-0.25","SS1604513883460","","null","","","","","","","","","","","","<img src=images/blank.png width =""500"" height = ""500"" style=""border:5px solid black"">","","",""
"","498.3599999686703","stimulus-presentation","265","351858","0.0-20.0-1.25","SS1604513883460","<img src='images/complex/13.png' width ='500' height = '500' style='border:5px solid black'>","40","all_complex","images/complex/10.png","images/complex/11.png","images/complex/12.png,images/complex/6.png,images/complex/13.png,images/complex/16.png,images/complex/1.png,images/complex/4.png,images/complex/15.png","2","null","","200","698.3599999686703","","","","deviant","",""
"","null","html-keyboard-response","266","352752","0.0-20.0-0.26","SS1604513883460","","null","","","","","","","","","","","","<img src=images/blank.png width =""500"" height = ""500"" style=""border:5px solid black"">","","",""
"","400.17500007525086","stimulus-presentation","267","353366","0.0-20.0-1.26","SS1604513883460","<img src='images/complex/11.png' width ='500' height = '500' style='border:5px solid black'>","40","all_complex","images/complex/10.png","images/complex/11.png","images/complex/12.png,images/complex/6.png,images/complex/13.png,images/complex/16.png,images/complex/1.png,images/complex/4.png,images/complex/15.png","2","null","","200","600.1750000752509","","","","background","",""
"","null","html-keyboard-response","268","354245","0.0-20.0-0.27","SS1604513883460","","null","","","","","","","","","","","","<img src=images/blank.png width =""500"" height = ""500"" style=""border:5px solid black"">","","",""
"","851.8299999414012","stimulus-presentation","269","355315","0.0-20.0-1.27","SS1604513883460","<img src='images/complex/10.png' width ='500' height = '500' style='border:5px solid black'>","40","all_complex","images/complex/10.png","images/complex/11.png","images/complex/12.png,images/complex/6.png,images/complex/13.png,images/complex/16.png,images/complex/1.png,images/complex/4.png,images/complex/15.png","2","null","","200","1051.8299999414012","yes","378.75499995425344","","target","",""
"","null","html-keyboard-response","270","356260","0.0-20.0-0.28","SS1604513883460","","null","","","","","","","","","","","","<img src=images/blank.png width =""500"" height = ""500"" style=""border:5px solid black"">","","",""
"","745.0900000985712","stimulus-presentation","271","357224","0.0-20.0-1.28","SS1604513883460","<img src='images/complex/10.png' width ='500' height = '500' style='border:5px solid black'>","40","all_complex","images/complex/10.png","images/complex/11.png","images/complex/12.png,images/complex/6.png,images/complex/13.png,images/complex/16.png,images/complex/1.png,images/complex/4.png,images/complex/15.png","2","null","","200","945.0900000985712","yes","406.4000000944361","","target","",""
"","null","html-keyboard-response","272","358258","0.0-20.0-0.29","SS1604513883460","","null","","","","","","","","","","","","<img src=images/blank.png width =""500"" height = ""500"" style=""border:5px solid black"">","","",""
"","220.07500007748604","stimulus-presentation","273","358699","0.0-20.0-1.29","SS1604513883460","<img src='images/complex/11.png' width ='500' height = '500' style='border:5px solid black'>","40","all_complex","images/complex/10.png","images/complex/11.png","images/complex/12.png,images/complex/6.png,images/complex/13.png,images/complex/16.png,images/complex/1.png,images/complex/4.png,images/complex/15.png","2","null","","200","420.07500007748604","","","","background","",""
"","null","html-keyboard-response","274","359537","0.0-20.0-0.30","SS1604513883460","","null","","","","","","","","","","","","<img src=images/blank.png width =""500"" height = ""500"" style=""border:5px solid black"">","","",""
"","178.055000025779","stimulus-presentation","275","359939","0.0-20.0-1.30","SS1604513883460","<img src='images/complex/11.png' width ='500' height = '500' style='border:5px solid black'>","40","all_complex","images/complex/10.png","images/complex/11.png","images/complex/12.png,images/complex/6.png,images/complex/13.png,images/complex/16.png,images/complex/1.png,images/complex/4.png,images/complex/15.png","2","null","","200","378.055000025779","","","","background","",""
"","null","html-keyboard-response","276","361082","0.0-20.0-0.31","SS1604513883460","","null","","","","","","","","","","","","<img src=images/blank.png width =""500"" height = ""500"" style=""border:5px solid black"">","","",""
"","369.4749999558553","stimulus-presentation","277","361664","0.0-20.0-1.31","SS1604513883460","<img src='images/complex/1.png' width ='500' height = '500' style='border:5px solid black'>","40","all_complex","images/complex/10.png","images/complex/11.png","images/complex/12.png,images/complex/6.png,images/complex/13.png,images/complex/16.png,images/complex/1.png,images/complex/4.png,images/complex/15.png","2","null","","200","569.4749999558553","","","","deviant","",""
"","null","html-keyboard-response","278","362804","0.0-20.0-0.32","SS1604513883460","","null","","","","","","","","","","","","<img src=images/blank.png width =""500"" height = ""500"" style=""border:5px solid black"">","","",""
"","232.3150000302121","stimulus-presentation","279","363276","0.0-20.0-1.32","SS1604513883460","<img src='images/complex/11.png' width ='500' height = '500' style='border:5px solid black'>","40","all_complex","images/complex/10.png","images/complex/11.png","images/complex/12.png,images/complex/6.png,images/complex/13.png,images/complex/16.png,images/complex/1.png,images/complex/4.png,images/complex/15.png","2","null","","200","432.3150000302121","","","","background","",""
"","null","html-keyboard-response","280","364221","0.0-20.0-0.33","SS1604513883460","","null","","","","","","","","","","","","<img src=images/blank.png width =""500"" height = ""500"" style=""border:5px solid black"">","","",""
"","316.82499998714775","stimulus-presentation","281","364761","0.0-20.0-1.33","SS1604513883460","<img src='images/complex/11.png' width ='500' height = '500' style='border:5px solid black'>","40","all_complex","images/complex/10.png","images/complex/11.png","images/complex/12.png,images/complex/6.png,images/complex/13.png,images/complex/16.png,images/complex/1.png,images/complex/4.png,images/complex/15.png","2","null","","200","516.8249999871477","","","","background","",""
"","null","html-keyboard-response","282","365597","0.0-20.0-0.34","SS1604513883460","","null","","","","","","","","","","","","<img src=images/blank.png width =""500"" height = ""500"" style=""border:5px solid black"">","","",""
"","372.31500004418194","stimulus-presentation","283","366177","0.0-20.0-1.34","SS1604513883460","<img src='images/complex/11.png' width ='500' height = '500' style='border:5px solid black'>","40","all_complex","images/complex/10.png","images/complex/11.png","images/complex/12.png,images/complex/6.png,images/complex/13.png,images/complex/16.png,images/complex/1.png,images/complex/4.png,images/complex/15.png","2","null","","200","572.3150000441819","","","","background","",""
"","null","html-keyboard-response","284","367426","0.0-20.0-0.35","SS1604513883460","","null","","","","","","","","","","","","<img src=images/blank.png width =""500"" height = ""500"" style=""border:5px solid black"">","","",""
