"view_history","rt","trial_type","trial_index","time_elapsed","internal_node_id","subject","trial_stimulus","key_press","task_type","task_target_stimulus","task_background_stimulus","task_deviant_stimuli","task_order_number","block_order_number","trial_order_number","minimum_viewing_duration","trial_looking_time","trial_pressed_space_bar","trial_space_bar_rt","stimulus","trial_stimulus_type","responses","question_order"
"[{""page_index"":0,""viewing_time"":6607.335000007879}]","6608.479999995325","instructions","0","6698","0.0-0.0","SS1604588666015","","","","","","","","","","","","","","","","",""
"[{""page_index"":0,""viewing_time"":16937.57499998901},{""page_index"":1,""viewing_time"":4956.01500000339},{""page_index"":2,""viewing_time"":4316.784999973606},{""page_index"":3,""viewing_time"":64417.565000010654},{""page_index"":4,""viewing_time"":3602.000000013504},{""page_index"":5,""viewing_time"":7402.784999983851},{""page_index"":6,""viewing_time"":2466.9400000129826},{""page_index"":7,""viewing_time"":3924.319999990985},{""page_index"":8,""viewing_time"":2128.1549999839626}]","110152.65000000363","instructions","1","116854","0.0-1.0","SS1604588666015","","","","","","","","","","","","","","","","",""
"[{""page_index"":0,""viewing_time"":6540.3499999665655},{""page_index"":1,""viewing_time"":11054.440000036266},{""page_index"":2,""viewing_time"":2273.7149999593385}]","19869.130000006407","instructions","2","136727","0.0-2.0","SS1604588666015","","","","","","","","","","","","","","","","",""
"","12382.975000014994","practice-block","3","149321","0.0-3.0","SS1604588666015","<img src='images/practice/practice_background.jpeg' width ='500' height = '500' style='border:5px solid black'>","40","null","images/practice/practice_target.jpg","null","null","null","null","","200","12582.975000014994","yes","4093.265000032261","","","",""
"","null","html-keyboard-response","4","150332","0.0-4.0","SS1604588666015","","null","","","","","","","","","","","","<img src=images/blank.png width =""500"" height = ""500"" style=""border:5px solid black"">","","",""
"","903.5000000149012","practice-block","5","151441","0.0-5.0","SS1604588666015","<img src='images/practice/practice_background.jpeg' width ='500' height = '500' style='border:5px solid black'>","40","null","images/practice/practice_target.jpg","null","null","null","null","","200","1103.5000000149012","","","","","",""
"","null","html-keyboard-response","6","152273","0.0-6.0","SS1604588666015","","null","","","","","","","","","","","","<img src=images/blank.png width =""500"" height = ""500"" style=""border:5px solid black"">","","",""
"","398.96999998018146","practice-block","7","152878","0.0-7.0","SS1604588666015","<img src='images/practice/practice_deviant.jpeg' width ='500' height = '500' style='border:5px solid black'>","40","null","images/practice/practice_target.jpg","null","null","null","null","","200","598.9699999801815","","","","","",""
"","null","html-keyboard-response","8","154152","0.0-8.0","SS1604588666015","","null","","","","","","","","","","","","<img src=images/blank.png width =""500"" height = ""500"" style=""border:5px solid black"">","","",""
"","8653.515000012703","practice-block","9","163011","0.0-9.0-0.0","SS1604588666015","<img src='images/practice/practice_target.jpg' width ='500' height = '500' style='border:5px solid black'>","40","null","images/practice/practice_target.jpg","null","null","null","null","","200","8853.515000012703","yes","4054.3499999912456","","","",""
"","null","html-keyboard-response","10","164101","0.0-10.0","SS1604588666015","","null","","","","","","","","","","","","<img src=images/blank.png width =""500"" height = ""500"" style=""border:5px solid black"">","","",""
"","376.2950000236742","practice-block","11","164684","0.0-11.0","SS1604588666015","<img src='images/practice/practice_background.jpeg' width ='500' height = '500' style='border:5px solid black'>","40","null","images/practice/practice_target.jpg","null","null","null","null","","200","576.2950000236742","","","","","",""
"[{""page_index"":0,""viewing_time"":4425}]","4426","task-instructions","12","169115","0.0-12.0","SS1604588666015","","","","","","","","","","","","","","","","",""
"[{""page_index"":0,""viewing_time"":4719.5949999731965},{""page_index"":1,""viewing_time"":8161.015000019688},{""page_index"":2,""viewing_time"":2718.2649999740534}]","15599.25500000827","instructions","13","184718","0.0-13.0","SS1604588666015","","","","","","","","","","","","","","","","",""
"","null","html-keyboard-response","14","185851","0.0-14.0-0.0","SS1604588666015","","null","","","","","","","","","","","","<img src=images/blank.png width =""500"" height = ""500"" style=""border:5px solid black"">","","",""
"","609.3949999776669","stimulus-presentation","15","186674","0.0-14.0-1.0","SS1604588666015","<img src='images/simple/16.png' width ='500' height = '500' style='border:5px solid black'>","40","mixed_complex_deviant","images/simple/13.png","images/simple/16.png","images/complex/15.png,images/complex/1.png,images/complex/12.png,images/complex/3.png,images/complex/11.png,images/complex/10.png,images/complex/6.png","0","null","","200","809.3949999776669","","","","background","",""
"","null","html-keyboard-response","16","187558","0.0-14.0-0.1","SS1604588666015","","null","","","","","","","","","","","","<img src=images/blank.png width =""500"" height = ""500"" style=""border:5px solid black"">","","",""
"","336.8499999633059","stimulus-presentation","17","188103","0.0-14.0-1.1","SS1604588666015","<img src='images/complex/1.png' width ='500' height = '500' style='border:5px solid black'>","40","mixed_complex_deviant","images/simple/13.png","images/simple/16.png","images/complex/15.png,images/complex/1.png,images/complex/12.png,images/complex/3.png,images/complex/11.png,images/complex/10.png,images/complex/6.png","0","null","","200","536.8499999633059","","","","deviant","",""
"","null","html-keyboard-response","18","189239","0.0-14.0-0.2","SS1604588666015","","null","","","","","","","","","","","","<img src=images/blank.png width =""500"" height = ""500"" style=""border:5px solid black"">","","",""
"","432.1600000257604","stimulus-presentation","19","189876","0.0-14.0-1.2","SS1604588666015","<img src='images/simple/16.png' width ='500' height = '500' style='border:5px solid black'>","40","mixed_complex_deviant","images/simple/13.png","images/simple/16.png","images/complex/15.png,images/complex/1.png,images/complex/12.png,images/complex/3.png,images/complex/11.png,images/complex/10.png,images/complex/6.png","0","null","","200","632.1600000257604","","","","background","",""
"","null","html-keyboard-response","20","191180","0.0-14.0-0.3","SS1604588666015","","null","","","","","","","","","","","","<img src=images/blank.png width =""500"" height = ""500"" style=""border:5px solid black"">","","",""
"","268.80000001983717","stimulus-presentation","21","191656","0.0-14.0-1.3","SS1604588666015","<img src='images/simple/16.png' width ='500' height = '500' style='border:5px solid black'>","40","mixed_complex_deviant","images/simple/13.png","images/simple/16.png","images/complex/15.png,images/complex/1.png,images/complex/12.png,images/complex/3.png,images/complex/11.png,images/complex/10.png,images/complex/6.png","0","null","","200","468.80000001983717","","","","background","",""
"","null","html-keyboard-response","22","192741","0.0-14.0-0.4","SS1604588666015","","null","","","","","","","","","","","","<img src=images/blank.png width =""500"" height = ""500"" style=""border:5px solid black"">","","",""
"","190.80000004032627","stimulus-presentation","23","193138","0.0-14.0-1.4","SS1604588666015","<img src='images/simple/16.png' width ='500' height = '500' style='border:5px solid black'>","40","mixed_complex_deviant","images/simple/13.png","images/simple/16.png","images/complex/15.png,images/complex/1.png,images/complex/12.png,images/complex/3.png,images/complex/11.png,images/complex/10.png,images/complex/6.png","0","null","","200","390.80000004032627","","","","background","",""
"","null","html-keyboard-response","24","194331","0.0-14.0-0.5","SS1604588666015","","null","","","","","","","","","","","","<img src=images/blank.png width =""500"" height = ""500"" style=""border:5px solid black"">","","",""
"","143.61999998800457","stimulus-presentation","25","194682","0.0-14.0-1.5","SS1604588666015","<img src='images/simple/16.png' width ='500' height = '500' style='border:5px solid black'>","40","mixed_complex_deviant","images/simple/13.png","images/simple/16.png","images/complex/15.png,images/complex/1.png,images/complex/12.png,images/complex/3.png,images/complex/11.png,images/complex/10.png,images/complex/6.png","0","null","","200","343.61999998800457","","","","background","",""
"","null","html-keyboard-response","26","195581","0.0-14.0-0.6","SS1604588666015","","null","","","","","","","","","","","","<img src=images/blank.png width =""500"" height = ""500"" style=""border:5px solid black"">","","",""
"","149.54000001307577","stimulus-presentation","27","195937","0.0-14.0-1.6","SS1604588666015","<img src='images/simple/16.png' width ='500' height = '500' style='border:5px solid black'>","40","mixed_complex_deviant","images/simple/13.png","images/simple/16.png","images/complex/15.png,images/complex/1.png,images/complex/12.png,images/complex/3.png,images/complex/11.png,images/complex/10.png,images/complex/6.png","0","null","","200","349.54000001307577","","","","background","",""
"","null","html-keyboard-response","28","197133","0.0-14.0-0.7","SS1604588666015","","null","","","","","","","","","","","","<img src=images/blank.png width =""500"" height = ""500"" style=""border:5px solid black"">","","",""
"","119.23999997088686","stimulus-presentation","29","197460","0.0-14.0-1.7","SS1604588666015","<img src='images/simple/16.png' width ='500' height = '500' style='border:5px solid black'>","40","mixed_complex_deviant","images/simple/13.png","images/simple/16.png","images/complex/15.png,images/complex/1.png,images/complex/12.png,images/complex/3.png,images/complex/11.png,images/complex/10.png,images/complex/6.png","0","null","","200","319.23999997088686","","","","background","",""
"","null","html-keyboard-response","30","198485","0.0-14.0-0.8","SS1604588666015","","null","","","","","","","","","","","","<img src=images/blank.png width =""500"" height = ""500"" style=""border:5px solid black"">","","",""
"","1000.5200000014156","stimulus-presentation","31","199693","0.0-14.0-1.8","SS1604588666015","<img src='images/simple/16.png' width ='500' height = '500' style='border:5px solid black'>","40","mixed_complex_deviant","images/simple/13.png","images/simple/16.png","images/complex/15.png,images/complex/1.png,images/complex/12.png,images/complex/3.png,images/complex/11.png,images/complex/10.png,images/complex/6.png","0","null","","200","1200.5200000014156","","","","background","",""
"","null","html-keyboard-response","32","200619","0.0-14.0-0.9","SS1604588666015","","null","","","","","","","","","","","","<img src=images/blank.png width =""500"" height = ""500"" style=""border:5px solid black"">","","",""
"","536.6999999969266","stimulus-presentation","33","201362","0.0-14.0-1.9","SS1604588666015","<img src='images/complex/6.png' width ='500' height = '500' style='border:5px solid black'>","40","mixed_complex_deviant","images/simple/13.png","images/simple/16.png","images/complex/15.png,images/complex/1.png,images/complex/12.png,images/complex/3.png,images/complex/11.png,images/complex/10.png,images/complex/6.png","0","null","","200","736.6999999969266","","","","deviant","",""
"","null","html-keyboard-response","34","202442","0.0-14.0-0.10","SS1604588666015","","null","","","","","","","","","","","","<img src=images/blank.png width =""500"" height = ""500"" style=""border:5px solid black"">","","",""
"","247.33500002184883","stimulus-presentation","35","202899","0.0-14.0-1.10","SS1604588666015","<img src='images/simple/16.png' width ='500' height = '500' style='border:5px solid black'>","40","mixed_complex_deviant","images/simple/13.png","images/simple/16.png","images/complex/15.png,images/complex/1.png,images/complex/12.png,images/complex/3.png,images/complex/11.png,images/complex/10.png,images/complex/6.png","0","null","","200","447.3350000218488","","","","background","",""
"","null","html-keyboard-response","36","203725","0.0-14.0-0.11","SS1604588666015","","null","","","","","","","","","","","","<img src=images/blank.png width =""500"" height = ""500"" style=""border:5px solid black"">","","",""
"","145.26999997906387","stimulus-presentation","37","204078","0.0-14.0-1.11","SS1604588666015","<img src='images/simple/16.png' width ='500' height = '500' style='border:5px solid black'>","40","mixed_complex_deviant","images/simple/13.png","images/simple/16.png","images/complex/15.png,images/complex/1.png,images/complex/12.png,images/complex/3.png,images/complex/11.png,images/complex/10.png,images/complex/6.png","0","null","","200","345.26999997906387","","","","background","",""
"","null","html-keyboard-response","38","205265","0.0-14.0-0.12","SS1604588666015","","null","","","","","","","","","","","","<img src=images/blank.png width =""500"" height = ""500"" style=""border:5px solid black"">","","",""
"","295.64500000560656","stimulus-presentation","39","205768","0.0-14.0-1.12","SS1604588666015","<img src='images/simple/16.png' width ='500' height = '500' style='border:5px solid black'>","40","mixed_complex_deviant","images/simple/13.png","images/simple/16.png","images/complex/15.png,images/complex/1.png,images/complex/12.png,images/complex/3.png,images/complex/11.png,images/complex/10.png,images/complex/6.png","0","null","","200","495.64500000560656","","","","background","",""
"","null","html-keyboard-response","40","206966","0.0-14.0-0.13","SS1604588666015","","null","","","","","","","","","","","","<img src=images/blank.png width =""500"" height = ""500"" style=""border:5px solid black"">","","",""
"","4051.0750000248663","stimulus-presentation","41","211227","0.0-14.0-1.13","SS1604588666015","<img src='images/simple/13.png' width ='500' height = '500' style='border:5px solid black'>","40","mixed_complex_deviant","images/simple/13.png","images/simple/16.png","images/complex/15.png,images/complex/1.png,images/complex/12.png,images/complex/3.png,images/complex/11.png,images/complex/10.png,images/complex/6.png","0","null","","200","4251.075000024866","yes","3196.4499999885447","","target","",""
"","null","html-keyboard-response","42","212218","0.0-14.0-0.14","SS1604588666015","","null","","","","","","","","","","","","<img src=images/blank.png width =""500"" height = ""500"" style=""border:5px solid black"">","","",""
"","197.01500004157424","stimulus-presentation","43","212624","0.0-14.0-1.14","SS1604588666015","<img src='images/simple/16.png' width ='500' height = '500' style='border:5px solid black'>","40","mixed_complex_deviant","images/simple/13.png","images/simple/16.png","images/complex/15.png,images/complex/1.png,images/complex/12.png,images/complex/3.png,images/complex/11.png,images/complex/10.png,images/complex/6.png","0","null","","200","397.01500004157424","","","","background","",""
"","null","html-keyboard-response","44","213645","0.0-14.0-0.15","SS1604588666015","","null","","","","","","","","","","","","<img src=images/blank.png width =""500"" height = ""500"" style=""border:5px solid black"">","","",""
"","1822.3650000290945","stimulus-presentation","45","215676","0.0-14.0-1.15","SS1604588666015","<img src='images/simple/13.png' width ='500' height = '500' style='border:5px solid black'>","40","mixed_complex_deviant","images/simple/13.png","images/simple/16.png","images/complex/15.png,images/complex/1.png,images/complex/12.png,images/complex/3.png,images/complex/11.png,images/complex/10.png,images/complex/6.png","0","null","","200","2022.3650000290945","yes","1113.7549999984913","","target","",""
"","null","html-keyboard-response","46","216518","0.0-14.0-0.16","SS1604588666015","","null","","","","","","","","","","","","<img src=images/blank.png width =""500"" height = ""500"" style=""border:5px solid black"">","","",""
"","503.65999998757616","stimulus-presentation","47","217230","0.0-14.0-1.16","SS1604588666015","<img src='images/complex/15.png' width ='500' height = '500' style='border:5px solid black'>","40","mixed_complex_deviant","images/simple/13.png","images/simple/16.png","images/complex/15.png,images/complex/1.png,images/complex/12.png,images/complex/3.png,images/complex/11.png,images/complex/10.png,images/complex/6.png","0","null","","200","703.6599999875762","","","","deviant","",""
"","null","html-keyboard-response","48","218521","0.0-14.0-0.17","SS1604588666015","","null","","","","","","","","","","","","<img src=images/blank.png width =""500"" height = ""500"" style=""border:5px solid black"">","","",""
"","240.13499997090548","stimulus-presentation","49","218969","0.0-14.0-1.17","SS1604588666015","<img src='images/simple/16.png' width ='500' height = '500' style='border:5px solid black'>","40","mixed_complex_deviant","images/simple/13.png","images/simple/16.png","images/complex/15.png,images/complex/1.png,images/complex/12.png,images/complex/3.png,images/complex/11.png,images/complex/10.png,images/complex/6.png","0","null","","200","440.1349999709055","","","","background","",""
"","null","html-keyboard-response","50","220244","0.0-14.0-0.18","SS1604588666015","","null","","","","","","","","","","","","<img src=images/blank.png width =""500"" height = ""500"" style=""border:5px solid black"">","","",""
"","145.7049999735318","stimulus-presentation","51","220597","0.0-14.0-1.18","SS1604588666015","<img src='images/simple/16.png' width ='500' height = '500' style='border:5px solid black'>","40","mixed_complex_deviant","images/simple/13.png","images/simple/16.png","images/complex/15.png,images/complex/1.png,images/complex/12.png,images/complex/3.png,images/complex/11.png,images/complex/10.png,images/complex/6.png","0","null","","200","345.7049999735318","","","","background","",""
"","null","html-keyboard-response","52","221804","0.0-14.0-0.19","SS1604588666015","","null","","","","","","","","","","","","<img src=images/blank.png width =""500"" height = ""500"" style=""border:5px solid black"">","","",""
"","181.34000001009554","stimulus-presentation","53","222193","0.0-14.0-1.19","SS1604588666015","<img src='images/simple/16.png' width ='500' height = '500' style='border:5px solid black'>","40","mixed_complex_deviant","images/simple/13.png","images/simple/16.png","images/complex/15.png,images/complex/1.png,images/complex/12.png,images/complex/3.png,images/complex/11.png,images/complex/10.png,images/complex/6.png","0","null","","200","381.34000001009554","","","","background","",""
"","null","html-keyboard-response","54","223122","0.0-14.0-0.20","SS1604588666015","","null","","","","","","","","","","","","<img src=images/blank.png width =""500"" height = ""500"" style=""border:5px solid black"">","","",""
"","1201.2499999837019","stimulus-presentation","55","224532","0.0-14.0-1.20","SS1604588666015","<img src='images/simple/13.png' width ='500' height = '500' style='border:5px solid black'>","40","mixed_complex_deviant","images/simple/13.png","images/simple/16.png","images/complex/15.png,images/complex/1.png,images/complex/12.png,images/complex/3.png,images/complex/11.png,images/complex/10.png,images/complex/6.png","0","null","","200","1401.2499999837019","yes","486.32500000530854","","target","",""
"","null","html-keyboard-response","56","225563","0.0-14.0-0.21","SS1604588666015","","null","","","","","","","","","","","","<img src=images/blank.png width =""500"" height = ""500"" style=""border:5px solid black"">","","",""
"","307.0150000276044","stimulus-presentation","57","226078","0.0-14.0-1.21","SS1604588666015","<img src='images/simple/16.png' width ='500' height = '500' style='border:5px solid black'>","40","mixed_complex_deviant","images/simple/13.png","images/simple/16.png","images/complex/15.png,images/complex/1.png,images/complex/12.png,images/complex/3.png,images/complex/11.png,images/complex/10.png,images/complex/6.png","0","null","","200","507.0150000276044","","","","background","",""
"","null","html-keyboard-response","58","226961","0.0-14.0-0.22","SS1604588666015","","null","","","","","","","","","","","","<img src=images/blank.png width =""500"" height = ""500"" style=""border:5px solid black"">","","",""
"","1081.4050000044517","stimulus-presentation","59","228251","0.0-14.0-1.22","SS1604588666015","<img src='images/simple/13.png' width ='500' height = '500' style='border:5px solid black'>","40","mixed_complex_deviant","images/simple/13.png","images/simple/16.png","images/complex/15.png,images/complex/1.png,images/complex/12.png,images/complex/3.png,images/complex/11.png,images/complex/10.png,images/complex/6.png","0","null","","200","1281.4050000044517","yes","390.4900000197813","","target","",""
"","null","html-keyboard-response","60","229155","0.0-14.0-0.23","SS1604588666015","","null","","","","","","","","","","","","<img src=images/blank.png width =""500"" height = ""500"" style=""border:5px solid black"">","","",""
"","214.8550000274554","stimulus-presentation","61","229579","0.0-14.0-1.23","SS1604588666015","<img src='images/simple/16.png' width ='500' height = '500' style='border:5px solid black'>","40","mixed_complex_deviant","images/simple/13.png","images/simple/16.png","images/complex/15.png,images/complex/1.png,images/complex/12.png,images/complex/3.png,images/complex/11.png,images/complex/10.png,images/complex/6.png","0","null","","200","414.8550000274554","","","","background","",""
"","null","html-keyboard-response","62","230789","0.0-14.0-0.24","SS1604588666015","","null","","","","","","","","","","","","<img src=images/blank.png width =""500"" height = ""500"" style=""border:5px solid black"">","","",""
"","173.3949999907054","stimulus-presentation","63","231172","0.0-14.0-1.24","SS1604588666015","<img src='images/simple/16.png' width ='500' height = '500' style='border:5px solid black'>","40","mixed_complex_deviant","images/simple/13.png","images/simple/16.png","images/complex/15.png,images/complex/1.png,images/complex/12.png,images/complex/3.png,images/complex/11.png,images/complex/10.png,images/complex/6.png","0","null","","200","373.3949999907054","","","","background","",""
"","null","html-keyboard-response","64","232426","0.0-14.0-0.25","SS1604588666015","","null","","","","","","","","","","","","<img src=images/blank.png width =""500"" height = ""500"" style=""border:5px solid black"">","","",""
"","153.32499996293336","stimulus-presentation","65","232789","0.0-14.0-1.25","SS1604588666015","<img src='images/simple/16.png' width ='500' height = '500' style='border:5px solid black'>","40","mixed_complex_deviant","images/simple/13.png","images/simple/16.png","images/complex/15.png,images/complex/1.png,images/complex/12.png,images/complex/3.png,images/complex/11.png,images/complex/10.png,images/complex/6.png","0","null","","200","353.32499996293336","","","","background","",""
"","null","html-keyboard-response","66","233959","0.0-14.0-0.26","SS1604588666015","","null","","","","","","","","","","","","<img src=images/blank.png width =""500"" height = ""500"" style=""border:5px solid black"">","","",""
"","140.79500001389533","stimulus-presentation","67","234310","0.0-14.0-1.26","SS1604588666015","<img src='images/simple/16.png' width ='500' height = '500' style='border:5px solid black'>","40","mixed_complex_deviant","images/simple/13.png","images/simple/16.png","images/complex/15.png,images/complex/1.png,images/complex/12.png,images/complex/3.png,images/complex/11.png,images/complex/10.png,images/complex/6.png","0","null","","200","340.79500001389533","","","","background","",""
"","null","html-keyboard-response","68","235476","0.0-14.0-0.27","SS1604588666015","","null","","","","","","","","","","","","<img src=images/blank.png width =""500"" height = ""500"" style=""border:5px solid black"">","","",""
"","153.87499995995313","stimulus-presentation","69","235849","0.0-14.0-1.27","SS1604588666015","<img src='images/simple/16.png' width ='500' height = '500' style='border:5px solid black'>","40","mixed_complex_deviant","images/simple/13.png","images/simple/16.png","images/complex/15.png,images/complex/1.png,images/complex/12.png,images/complex/3.png,images/complex/11.png,images/complex/10.png,images/complex/6.png","0","null","","200","353.87499995995313","","","","background","",""
"","null","html-keyboard-response","70","236760","0.0-14.0-0.28","SS1604588666015","","null","","","","","","","","","","","","<img src=images/blank.png width =""500"" height = ""500"" style=""border:5px solid black"">","","",""
"","606.3099999446422","stimulus-presentation","71","237577","0.0-14.0-1.28","SS1604588666015","<img src='images/complex/3.png' width ='500' height = '500' style='border:5px solid black'>","40","mixed_complex_deviant","images/simple/13.png","images/simple/16.png","images/complex/15.png,images/complex/1.png,images/complex/12.png,images/complex/3.png,images/complex/11.png,images/complex/10.png,images/complex/6.png","0","null","","200","806.3099999446422","","","","deviant","",""
"","null","html-keyboard-response","72","238841","0.0-14.0-0.29","SS1604588666015","","null","","","","","","","","","","","","<img src=images/blank.png width =""500"" height = ""500"" style=""border:5px solid black"">","","",""
"","1055.884999979753","stimulus-presentation","73","240107","0.0-14.0-1.29","SS1604588666015","<img src='images/simple/13.png' width ='500' height = '500' style='border:5px solid black'>","40","mixed_complex_deviant","images/simple/13.png","images/simple/16.png","images/complex/15.png,images/complex/1.png,images/complex/12.png,images/complex/3.png,images/complex/11.png,images/complex/10.png,images/complex/6.png","0","null","","200","1255.884999979753","yes","378.5149999894202","","target","",""
"","null","html-keyboard-response","74","241364","0.0-14.0-0.30","SS1604588666015","","null","","","","","","","","","","","","<img src=images/blank.png width =""500"" height = ""500"" style=""border:5px solid black"">","","",""
"","163.13000000081956","stimulus-presentation","75","241738","0.0-14.0-1.30","SS1604588666015","<img src='images/simple/16.png' width ='500' height = '500' style='border:5px solid black'>","40","mixed_complex_deviant","images/simple/13.png","images/simple/16.png","images/complex/15.png,images/complex/1.png,images/complex/12.png,images/complex/3.png,images/complex/11.png,images/complex/10.png,images/complex/6.png","0","null","","200","363.13000000081956","","","","background","",""
"","null","html-keyboard-response","76","242637","0.0-14.0-0.31","SS1604588666015","","null","","","","","","","","","","","","<img src=images/blank.png width =""500"" height = ""500"" style=""border:5px solid black"">","","",""
"","1112.9249999648891","stimulus-presentation","77","243960","0.0-14.0-1.31","SS1604588666015","<img src='images/simple/13.png' width ='500' height = '500' style='border:5px solid black'>","40","mixed_complex_deviant","images/simple/13.png","images/simple/16.png","images/complex/15.png,images/complex/1.png,images/complex/12.png,images/complex/3.png,images/complex/11.png,images/complex/10.png,images/complex/6.png","0","null","","200","1312.9249999648891","yes","464.0899999649264","","target","",""
"","null","html-keyboard-response","78","245171","0.0-14.0-0.32","SS1604588666015","","null","","","","","","","","","","","","<img src=images/blank.png width =""500"" height = ""500"" style=""border:5px solid black"">","","",""
"","1376.0049999691546","stimulus-presentation","79","246757","0.0-14.0-1.32","SS1604588666015","<img src='images/simple/13.png' width ='500' height = '500' style='border:5px solid black'>","40","mixed_complex_deviant","images/simple/13.png","images/simple/16.png","images/complex/15.png,images/complex/1.png,images/complex/12.png,images/complex/3.png,images/complex/11.png,images/complex/10.png,images/complex/6.png","0","null","","200","1576.0049999691546","yes","532.8299999819137","","target","",""
"","null","html-keyboard-response","80","247811","0.0-14.0-0.33","SS1604588666015","","null","","","","","","","","","","","","<img src=images/blank.png width =""500"" height = ""500"" style=""border:5px solid black"">","","",""
"","519.9400000274181","stimulus-presentation","81","248543","0.0-14.0-1.33","SS1604588666015","<img src='images/complex/11.png' width ='500' height = '500' style='border:5px solid black'>","40","mixed_complex_deviant","images/simple/13.png","images/simple/16.png","images/complex/15.png,images/complex/1.png,images/complex/12.png,images/complex/3.png,images/complex/11.png,images/complex/10.png,images/complex/6.png","0","null","","200","719.9400000274181","","","","deviant","",""
"","null","html-keyboard-response","82","249441","0.0-14.0-0.34","SS1604588666015","","null","","","","","","","","","","","","<img src=images/blank.png width =""500"" height = ""500"" style=""border:5px solid black"">","","",""
"","163.49999996600673","stimulus-presentation","83","249815","0.0-14.0-1.34","SS1604588666015","<img src='images/simple/16.png' width ='500' height = '500' style='border:5px solid black'>","40","mixed_complex_deviant","images/simple/13.png","images/simple/16.png","images/complex/15.png,images/complex/1.png,images/complex/12.png,images/complex/3.png,images/complex/11.png,images/complex/10.png,images/complex/6.png","0","null","","200","363.4999999660067","","","","background","",""
"","null","html-keyboard-response","84","250769","0.0-14.0-0.35","SS1604588666015","","null","","","","","","","","","","","","<img src=images/blank.png width =""500"" height = ""500"" style=""border:5px solid black"">","","",""
"","182.59500002022833","stimulus-presentation","85","251164","0.0-14.0-1.35","SS1604588666015","<img src='images/simple/16.png' width ='500' height = '500' style='border:5px solid black'>","40","mixed_complex_deviant","images/simple/13.png","images/simple/16.png","images/complex/15.png,images/complex/1.png,images/complex/12.png,images/complex/3.png,images/complex/11.png,images/complex/10.png,images/complex/6.png","0","null","","200","382.5950000202283","","","","background","",""
"","null","html-keyboard-response","86","252284","0.0-14.0-0.36","SS1604588666015","","null","","","","","","","","","","","","<img src=images/blank.png width =""500"" height = ""500"" style=""border:5px solid black"">","","",""
"","176.51499999919906","stimulus-presentation","87","252671","0.0-14.0-1.36","SS1604588666015","<img src='images/simple/16.png' width ='500' height = '500' style='border:5px solid black'>","40","mixed_complex_deviant","images/simple/13.png","images/simple/16.png","images/complex/15.png,images/complex/1.png,images/complex/12.png,images/complex/3.png,images/complex/11.png,images/complex/10.png,images/complex/6.png","0","null","","200","376.51499999919906","","","","background","",""
"","null","html-keyboard-response","88","253946","0.0-14.0-0.37","SS1604588666015","","null","","","","","","","","","","","","<img src=images/blank.png width =""500"" height = ""500"" style=""border:5px solid black"">","","",""
"","149.9150000163354","stimulus-presentation","89","254308","0.0-14.0-1.37","SS1604588666015","<img src='images/simple/16.png' width ='500' height = '500' style='border:5px solid black'>","40","mixed_complex_deviant","images/simple/13.png","images/simple/16.png","images/complex/15.png,images/complex/1.png,images/complex/12.png,images/complex/3.png,images/complex/11.png,images/complex/10.png,images/complex/6.png","0","null","","200","349.9150000163354","","","","background","",""
"","null","html-keyboard-response","90","255533","0.0-14.0-0.38","SS1604588666015","","null","","","","","","","","","","","","<img src=images/blank.png width =""500"" height = ""500"" style=""border:5px solid black"">","","",""
"","465.3950000065379","stimulus-presentation","91","256211","0.0-14.0-1.38","SS1604588666015","<img src='images/complex/10.png' width ='500' height = '500' style='border:5px solid black'>","40","mixed_complex_deviant","images/simple/13.png","images/simple/16.png","images/complex/15.png,images/complex/1.png,images/complex/12.png,images/complex/3.png,images/complex/11.png,images/complex/10.png,images/complex/6.png","0","null","","200","665.3950000065379","","","","deviant","",""
"","null","html-keyboard-response","92","257103","0.0-14.0-0.39","SS1604588666015","","null","","","","","","","","","","","","<img src=images/blank.png width =""500"" height = ""500"" style=""border:5px solid black"">","","",""
"","213.4000000078231","stimulus-presentation","93","257529","0.0-14.0-1.39","SS1604588666015","<img src='images/simple/16.png' width ='500' height = '500' style='border:5px solid black'>","40","mixed_complex_deviant","images/simple/13.png","images/simple/16.png","images/complex/15.png,images/complex/1.png,images/complex/12.png,images/complex/3.png,images/complex/11.png,images/complex/10.png,images/complex/6.png","0","null","","200","413.4000000078231","","","","background","",""
"","null","html-keyboard-response","94","258488","0.0-14.0-0.40","SS1604588666015","","null","","","","","","","","","","","","<img src=images/blank.png width =""500"" height = ""500"" style=""border:5px solid black"">","","",""
"","157.1750000002794","stimulus-presentation","95","258856","0.0-14.0-1.40","SS1604588666015","<img src='images/simple/16.png' width ='500' height = '500' style='border:5px solid black'>","40","mixed_complex_deviant","images/simple/13.png","images/simple/16.png","images/complex/15.png,images/complex/1.png,images/complex/12.png,images/complex/3.png,images/complex/11.png,images/complex/10.png,images/complex/6.png","0","null","","200","357.1750000002794","","","","background","",""
"","null","html-keyboard-response","96","259676","0.0-14.0-0.41","SS1604588666015","","null","","","","","","","","","","","","<img src=images/blank.png width =""500"" height = ""500"" style=""border:5px solid black"">","","",""
"","91.59500000532717","stimulus-presentation","97","259979","0.0-14.0-1.41","SS1604588666015","<img src='images/simple/16.png' width ='500' height = '500' style='border:5px solid black'>","40","mixed_complex_deviant","images/simple/13.png","images/simple/16.png","images/complex/15.png,images/complex/1.png,images/complex/12.png,images/complex/3.png,images/complex/11.png,images/complex/10.png,images/complex/6.png","0","null","","200","291.59500000532717","","","","background","",""
"","null","html-keyboard-response","98","261019","0.0-14.0-0.42","SS1604588666015","","null","","","","","","","","","","","","<img src=images/blank.png width =""500"" height = ""500"" style=""border:5px solid black"">","","",""
"","235.72500003501773","stimulus-presentation","99","261469","0.0-14.0-1.42","SS1604588666015","<img src='images/simple/16.png' width ='500' height = '500' style='border:5px solid black'>","40","mixed_complex_deviant","images/simple/13.png","images/simple/16.png","images/complex/15.png,images/complex/1.png,images/complex/12.png,images/complex/3.png,images/complex/11.png,images/complex/10.png,images/complex/6.png","0","null","","200","435.72500003501773","","","","background","",""
"","null","html-keyboard-response","100","262757","0.0-14.0-0.43","SS1604588666015","","null","","","","","","","","","","","","<img src=images/blank.png width =""500"" height = ""500"" style=""border:5px solid black"">","","",""
"","228.90499996719882","stimulus-presentation","101","263198","0.0-14.0-1.43","SS1604588666015","<img src='images/simple/16.png' width ='500' height = '500' style='border:5px solid black'>","40","mixed_complex_deviant","images/simple/13.png","images/simple/16.png","images/complex/15.png,images/complex/1.png,images/complex/12.png,images/complex/3.png,images/complex/11.png,images/complex/10.png,images/complex/6.png","0","null","","200","428.9049999671988","","","","background","",""
"","null","html-keyboard-response","102","264411","0.0-14.0-0.44","SS1604588666015","","null","","","","","","","","","","","","<img src=images/blank.png width =""500"" height = ""500"" style=""border:5px solid black"">","","",""
"","577.8500000014901","stimulus-presentation","103","265201","0.0-14.0-1.44","SS1604588666015","<img src='images/complex/12.png' width ='500' height = '500' style='border:5px solid black'>","40","mixed_complex_deviant","images/simple/13.png","images/simple/16.png","images/complex/15.png,images/complex/1.png,images/complex/12.png,images/complex/3.png,images/complex/11.png,images/complex/10.png,images/complex/6.png","0","null","","200","777.8500000014901","","","","deviant","",""
"","null","html-keyboard-response","104","266429","0.0-14.0-0.45","SS1604588666015","","null","","","","","","","","","","","","<img src=images/blank.png width =""500"" height = ""500"" style=""border:5px solid black"">","","",""
"","430.2299999981187","stimulus-presentation","105","267072","0.0-14.0-1.45","SS1604588666015","<img src='images/simple/16.png' width ='500' height = '500' style='border:5px solid black'>","40","mixed_complex_deviant","images/simple/13.png","images/simple/16.png","images/complex/15.png,images/complex/1.png,images/complex/12.png,images/complex/3.png,images/complex/11.png,images/complex/10.png,images/complex/6.png","0","null","","200","630.2299999981187","","","","background","",""
"","null","html-keyboard-response","106","268041","0.0-14.0-0.46","SS1604588666015","","null","","","","","","","","","","","","<img src=images/blank.png width =""500"" height = ""500"" style=""border:5px solid black"">","","",""
"","187.05000000772998","stimulus-presentation","107","268443","0.0-14.0-1.46","SS1604588666015","<img src='images/simple/16.png' width ='500' height = '500' style='border:5px solid black'>","40","mixed_complex_deviant","images/simple/13.png","images/simple/16.png","images/complex/15.png,images/complex/1.png,images/complex/12.png,images/complex/3.png,images/complex/11.png,images/complex/10.png,images/complex/6.png","0","null","","200","387.05000000773","","","","background","",""
"","null","html-keyboard-response","108","269372","0.0-14.0-0.47","SS1604588666015","","null","","","","","","","","","","","","<img src=images/blank.png width =""500"" height = ""500"" style=""border:5px solid black"">","","",""
"","203.42000003438443","stimulus-presentation","109","269789","0.0-14.0-1.47","SS1604588666015","<img src='images/simple/16.png' width ='500' height = '500' style='border:5px solid black'>","40","mixed_complex_deviant","images/simple/13.png","images/simple/16.png","images/complex/15.png,images/complex/1.png,images/complex/12.png,images/complex/3.png,images/complex/11.png,images/complex/10.png,images/complex/6.png","0","null","","200","403.42000003438443","","","","background","",""
"","null","html-keyboard-response","110","270678","0.0-14.0-0.48","SS1604588666015","","null","","","","","","","","","","","","<img src=images/blank.png width =""500"" height = ""500"" style=""border:5px solid black"">","","",""
"","1038.155000016559","stimulus-presentation","111","271930","0.0-14.0-1.48","SS1604588666015","<img src='images/simple/16.png' width ='500' height = '500' style='border:5px solid black'>","40","mixed_complex_deviant","images/simple/13.png","images/simple/16.png","images/complex/15.png,images/complex/1.png,images/complex/12.png,images/complex/3.png,images/complex/11.png,images/complex/10.png,images/complex/6.png","0","null","","200","1238.155000016559","","","","background","",""
"[{""page_index"":0,""viewing_time"":19394}]","19395","task-instructions","112","291336","0.0-15.0","SS1604588666015","","","","","","","","","","","","","","","","",""
"[{""page_index"":0,""viewing_time"":3265.8649999648333},{""page_index"":1,""viewing_time"":6713.275000045542},{""page_index"":2,""viewing_time"":2311.9349999469705}]","12291.649999970105","instructions","113","303637","0.0-16.0","SS1604588666015","","","","","","","","","","","","","","","","",""
"","null","html-keyboard-response","114","304851","0.0-17.0-0.0","SS1604588666015","","null","","","","","","","","","","","","<img src=images/blank.png width =""500"" height = ""500"" style=""border:5px solid black"">","","",""
"","1280.2150000352412","stimulus-presentation","115","306346","0.0-17.0-1.0","SS1604588666015","<img src='images/complex/13.png' width ='500' height = '500' style='border:5px solid black'>","40","mixed_simple_deviant","images/complex/2.png","images/complex/13.png","images/simple/15.png,images/simple/8.png,images/simple/6.png,images/simple/10.png,images/simple/5.png,images/simple/12.png,images/simple/4.png","1","null","","200","1480.2150000352412","","","","background","",""
"","null","html-keyboard-response","116","307527","0.0-17.0-0.1","SS1604588666015","","null","","","","","","","","","","","","<img src=images/blank.png width =""500"" height = ""500"" style=""border:5px solid black"">","","",""
"","427.5550000020303","stimulus-presentation","117","308169","0.0-17.0-1.1","SS1604588666015","<img src='images/complex/13.png' width ='500' height = '500' style='border:5px solid black'>","40","mixed_simple_deviant","images/complex/2.png","images/complex/13.png","images/simple/15.png,images/simple/8.png,images/simple/6.png,images/simple/10.png,images/simple/5.png,images/simple/12.png,images/simple/4.png","1","null","","200","627.5550000020303","","","","background","",""
"","null","html-keyboard-response","118","309328","0.0-17.0-0.2","SS1604588666015","","null","","","","","","","","","","","","<img src=images/blank.png width =""500"" height = ""500"" style=""border:5px solid black"">","","",""
"","200.0300000072457","stimulus-presentation","119","309743","0.0-17.0-1.2","SS1604588666015","<img src='images/complex/13.png' width ='500' height = '500' style='border:5px solid black'>","40","mixed_simple_deviant","images/complex/2.png","images/complex/13.png","images/simple/15.png,images/simple/8.png,images/simple/6.png,images/simple/10.png,images/simple/5.png,images/simple/12.png,images/simple/4.png","1","null","","200","400.0300000072457","","","","background","",""
"","null","html-keyboard-response","120","310841","0.0-17.0-0.3","SS1604588666015","","null","","","","","","","","","","","","<img src=images/blank.png width =""500"" height = ""500"" style=""border:5px solid black"">","","",""
"","199.72500001313165","stimulus-presentation","121","311256","0.0-17.0-1.3","SS1604588666015","<img src='images/complex/13.png' width ='500' height = '500' style='border:5px solid black'>","40","mixed_simple_deviant","images/complex/2.png","images/complex/13.png","images/simple/15.png,images/simple/8.png,images/simple/6.png,images/simple/10.png,images/simple/5.png,images/simple/12.png,images/simple/4.png","1","null","","200","399.72500001313165","","","","background","",""
"","null","html-keyboard-response","122","312251","0.0-17.0-0.4","SS1604588666015","","null","","","","","","","","","","","","<img src=images/blank.png width =""500"" height = ""500"" style=""border:5px solid black"">","","",""
"","195.31000003917143","stimulus-presentation","123","312662","0.0-17.0-1.4","SS1604588666015","<img src='images/simple/8.png' width ='500' height = '500' style='border:5px solid black'>","40","mixed_simple_deviant","images/complex/2.png","images/complex/13.png","images/simple/15.png,images/simple/8.png,images/simple/6.png,images/simple/10.png,images/simple/5.png,images/simple/12.png,images/simple/4.png","1","null","","200","395.3100000391714","","","","deviant","",""
"","null","html-keyboard-response","124","313786","0.0-17.0-0.5","SS1604588666015","","null","","","","","","","","","","","","<img src=images/blank.png width =""500"" height = ""500"" style=""border:5px solid black"">","","",""
"","1488.4850000380538","stimulus-presentation","125","315489","0.0-17.0-1.5","SS1604588666015","<img src='images/complex/2.png' width ='500' height = '500' style='border:5px solid black'>","40","mixed_simple_deviant","images/complex/2.png","images/complex/13.png","images/simple/15.png,images/simple/8.png,images/simple/6.png,images/simple/10.png,images/simple/5.png,images/simple/12.png,images/simple/4.png","1","null","","200","1688.4850000380538","yes","420.97999999532476","","target","",""
"","null","html-keyboard-response","126","316648","0.0-17.0-0.6","SS1604588666015","","null","","","","","","","","","","","","<img src=images/blank.png width =""500"" height = ""500"" style=""border:5px solid black"">","","",""
"","376.73000001814216","stimulus-presentation","127","317240","0.0-17.0-1.6","SS1604588666015","<img src='images/complex/13.png' width ='500' height = '500' style='border:5px solid black'>","40","mixed_simple_deviant","images/complex/2.png","images/complex/13.png","images/simple/15.png,images/simple/8.png,images/simple/6.png,images/simple/10.png,images/simple/5.png,images/simple/12.png,images/simple/4.png","1","null","","200","576.7300000181422","","","","background","",""
"","null","html-keyboard-response","128","318157","0.0-17.0-0.7","SS1604588666015","","null","","","","","","","","","","","","<img src=images/blank.png width =""500"" height = ""500"" style=""border:5px solid black"">","","",""
"","251.08999997610226","stimulus-presentation","129","318623","0.0-17.0-1.7","SS1604588666015","<img src='images/complex/13.png' width ='500' height = '500' style='border:5px solid black'>","40","mixed_simple_deviant","images/complex/2.png","images/complex/13.png","images/simple/15.png,images/simple/8.png,images/simple/6.png,images/simple/10.png,images/simple/5.png,images/simple/12.png,images/simple/4.png","1","null","","200","451.08999997610226","","","","background","",""
"","null","html-keyboard-response","130","319777","0.0-17.0-0.8","SS1604588666015","","null","","","","","","","","","","","","<img src=images/blank.png width =""500"" height = ""500"" style=""border:5px solid black"">","","",""
"","249.93999995058402","stimulus-presentation","131","320241","0.0-17.0-1.8","SS1604588666015","<img src='images/complex/13.png' width ='500' height = '500' style='border:5px solid black'>","40","mixed_simple_deviant","images/complex/2.png","images/complex/13.png","images/simple/15.png,images/simple/8.png,images/simple/6.png,images/simple/10.png,images/simple/5.png,images/simple/12.png,images/simple/4.png","1","null","","200","449.939999950584","","","","background","",""
"","null","html-keyboard-response","132","321241","0.0-17.0-0.9","SS1604588666015","","null","","","","","","","","","","","","<img src=images/blank.png width =""500"" height = ""500"" style=""border:5px solid black"">","","",""
"","365.6900000059977","stimulus-presentation","133","321821","0.0-17.0-1.9","SS1604588666015","<img src='images/complex/13.png' width ='500' height = '500' style='border:5px solid black'>","40","mixed_simple_deviant","images/complex/2.png","images/complex/13.png","images/simple/15.png,images/simple/8.png,images/simple/6.png,images/simple/10.png,images/simple/5.png,images/simple/12.png,images/simple/4.png","1","null","","200","565.6900000059977","","","","background","",""
"","null","html-keyboard-response","134","322737","0.0-17.0-0.10","SS1604588666015","","null","","","","","","","","","","","","<img src=images/blank.png width =""500"" height = ""500"" style=""border:5px solid black"">","","",""
"","275.1949999947101","stimulus-presentation","135","323226","0.0-17.0-1.10","SS1604588666015","<img src='images/complex/13.png' width ='500' height = '500' style='border:5px solid black'>","40","mixed_simple_deviant","images/complex/2.png","images/complex/13.png","images/simple/15.png,images/simple/8.png,images/simple/6.png,images/simple/10.png,images/simple/5.png,images/simple/12.png,images/simple/4.png","1","null","","200","475.1949999947101","","","","background","",""
"","null","html-keyboard-response","136","324084","0.0-17.0-0.11","SS1604588666015","","null","","","","","","","","","","","","<img src=images/blank.png width =""500"" height = ""500"" style=""border:5px solid black"">","","",""
"","228.85499999392778","stimulus-presentation","137","324530","0.0-17.0-1.11","SS1604588666015","<img src='images/complex/13.png' width ='500' height = '500' style='border:5px solid black'>","40","mixed_simple_deviant","images/complex/2.png","images/complex/13.png","images/simple/15.png,images/simple/8.png,images/simple/6.png,images/simple/10.png,images/simple/5.png,images/simple/12.png,images/simple/4.png","1","null","","200","428.8549999939278","","","","background","",""
"","null","html-keyboard-response","138","325807","0.0-17.0-0.12","SS1604588666015","","null","","","","","","","","","","","","<img src=images/blank.png width =""500"" height = ""500"" style=""border:5px solid black"">","","",""
"","309.3300000182353","stimulus-presentation","139","326331","0.0-17.0-1.12","SS1604588666015","<img src='images/complex/13.png' width ='500' height = '500' style='border:5px solid black'>","40","mixed_simple_deviant","images/complex/2.png","images/complex/13.png","images/simple/15.png,images/simple/8.png,images/simple/6.png,images/simple/10.png,images/simple/5.png,images/simple/12.png,images/simple/4.png","1","null","","200","509.3300000182353","","","","background","",""
"","null","html-keyboard-response","140","327152","0.0-17.0-0.13","SS1604588666015","","null","","","","","","","","","","","","<img src=images/blank.png width =""500"" height = ""500"" style=""border:5px solid black"">","","",""
"","223.05999998934567","stimulus-presentation","141","327590","0.0-17.0-1.13","SS1604588666015","<img src='images/complex/13.png' width ='500' height = '500' style='border:5px solid black'>","40","mixed_simple_deviant","images/complex/2.png","images/complex/13.png","images/simple/15.png,images/simple/8.png,images/simple/6.png,images/simple/10.png,images/simple/5.png,images/simple/12.png,images/simple/4.png","1","null","","200","423.05999998934567","","","","background","",""
"","null","html-keyboard-response","142","328422","0.0-17.0-0.14","SS1604588666015","","null","","","","","","","","","","","","<img src=images/blank.png width =""500"" height = ""500"" style=""border:5px solid black"">","","",""
"","306.25500000314787","stimulus-presentation","143","328942","0.0-17.0-1.14","SS1604588666015","<img src='images/complex/13.png' width ='500' height = '500' style='border:5px solid black'>","40","mixed_simple_deviant","images/complex/2.png","images/complex/13.png","images/simple/15.png,images/simple/8.png,images/simple/6.png,images/simple/10.png,images/simple/5.png,images/simple/12.png,images/simple/4.png","1","null","","200","506.25500000314787","","","","background","",""
"","null","html-keyboard-response","144","329833","0.0-17.0-0.15","SS1604588666015","","null","","","","","","","","","","","","<img src=images/blank.png width =""500"" height = ""500"" style=""border:5px solid black"">","","",""
"","638.7950000353158","stimulus-presentation","145","330689","0.0-17.0-1.15","SS1604588666015","<img src='images/simple/10.png' width ='500' height = '500' style='border:5px solid black'>","40","mixed_simple_deviant","images/complex/2.png","images/complex/13.png","images/simple/15.png,images/simple/8.png,images/simple/6.png,images/simple/10.png,images/simple/5.png,images/simple/12.png,images/simple/4.png","1","null","","200","838.7950000353158","","","","deviant","",""
"","null","html-keyboard-response","146","331591","0.0-17.0-0.16","SS1604588666015","","null","","","","","","","","","","","","<img src=images/blank.png width =""500"" height = ""500"" style=""border:5px solid black"">","","",""
"","556.9649999961257","stimulus-presentation","147","332364","0.0-17.0-1.16","SS1604588666015","<img src='images/complex/13.png' width ='500' height = '500' style='border:5px solid black'>","40","mixed_simple_deviant","images/complex/2.png","images/complex/13.png","images/simple/15.png,images/simple/8.png,images/simple/6.png,images/simple/10.png,images/simple/5.png,images/simple/12.png,images/simple/4.png","1","null","","200","756.9649999961257","","","","background","",""
"","null","html-keyboard-response","148","333619","0.0-17.0-0.17","SS1604588666015","","null","","","","","","","","","","","","<img src=images/blank.png width =""500"" height = ""500"" style=""border:5px solid black"">","","",""
"","218.74499996192753","stimulus-presentation","149","334053","0.0-17.0-1.17","SS1604588666015","<img src='images/complex/13.png' width ='500' height = '500' style='border:5px solid black'>","40","mixed_simple_deviant","images/complex/2.png","images/complex/13.png","images/simple/15.png,images/simple/8.png,images/simple/6.png,images/simple/10.png,images/simple/5.png,images/simple/12.png,images/simple/4.png","1","null","","200","418.74499996192753","","","","background","",""
"","null","html-keyboard-response","150","335291","0.0-17.0-0.18","SS1604588666015","","null","","","","","","","","","","","","<img src=images/blank.png width =""500"" height = ""500"" style=""border:5px solid black"">","","",""
"","519.3449999787845","stimulus-presentation","151","336028","0.0-17.0-1.18","SS1604588666015","<img src='images/simple/6.png' width ='500' height = '500' style='border:5px solid black'>","40","mixed_simple_deviant","images/complex/2.png","images/complex/13.png","images/simple/15.png,images/simple/8.png,images/simple/6.png,images/simple/10.png,images/simple/5.png,images/simple/12.png,images/simple/4.png","1","null","","200","719.3449999787845","","","","deviant","",""
"","null","html-keyboard-response","152","337269","0.0-17.0-0.19","SS1604588666015","","null","","","","","","","","","","","","<img src=images/blank.png width =""500"" height = ""500"" style=""border:5px solid black"">","","",""
"","250.9999999892898","stimulus-presentation","153","337737","0.0-17.0-1.19","SS1604588666015","<img src='images/complex/13.png' width ='500' height = '500' style='border:5px solid black'>","40","mixed_simple_deviant","images/complex/2.png","images/complex/13.png","images/simple/15.png,images/simple/8.png,images/simple/6.png,images/simple/10.png,images/simple/5.png,images/simple/12.png,images/simple/4.png","1","null","","200","450.9999999892898","","","","background","",""
"","null","html-keyboard-response","154","338816","0.0-17.0-0.20","SS1604588666015","","null","","","","","","","","","","","","<img src=images/blank.png width =""500"" height = ""500"" style=""border:5px solid black"">","","",""
"","263.9550000312738","stimulus-presentation","155","339295","0.0-17.0-1.20","SS1604588666015","<img src='images/complex/13.png' width ='500' height = '500' style='border:5px solid black'>","40","mixed_simple_deviant","images/complex/2.png","images/complex/13.png","images/simple/15.png,images/simple/8.png,images/simple/6.png,images/simple/10.png,images/simple/5.png,images/simple/12.png,images/simple/4.png","1","null","","200","463.9550000312738","","","","background","",""
"","null","html-keyboard-response","156","340207","0.0-17.0-0.21","SS1604588666015","","null","","","","","","","","","","","","<img src=images/blank.png width =""500"" height = ""500"" style=""border:5px solid black"">","","",""
"","245.95999997109175","stimulus-presentation","157","340673","0.0-17.0-1.21","SS1604588666015","<img src='images/complex/13.png' width ='500' height = '500' style='border:5px solid black'>","40","mixed_simple_deviant","images/complex/2.png","images/complex/13.png","images/simple/15.png,images/simple/8.png,images/simple/6.png,images/simple/10.png,images/simple/5.png,images/simple/12.png,images/simple/4.png","1","null","","200","445.95999997109175","","","","background","",""
"","null","html-keyboard-response","158","341577","0.0-17.0-0.22","SS1604588666015","","null","","","","","","","","","","","","<img src=images/blank.png width =""500"" height = ""500"" style=""border:5px solid black"">","","",""
"","327.96500000404194","stimulus-presentation","159","342124","0.0-17.0-1.22","SS1604588666015","<img src='images/complex/13.png' width ='500' height = '500' style='border:5px solid black'>","40","mixed_simple_deviant","images/complex/2.png","images/complex/13.png","images/simple/15.png,images/simple/8.png,images/simple/6.png,images/simple/10.png,images/simple/5.png,images/simple/12.png,images/simple/4.png","1","null","","200","527.9650000040419","","","","background","",""
"","null","html-keyboard-response","160","343049","0.0-17.0-0.23","SS1604588666015","","null","","","","","","","","","","","","<img src=images/blank.png width =""500"" height = ""500"" style=""border:5px solid black"">","","",""
"","1138.1449999753386","stimulus-presentation","161","344404","0.0-17.0-1.23","SS1604588666015","<img src='images/complex/2.png' width ='500' height = '500' style='border:5px solid black'>","40","mixed_simple_deviant","images/complex/2.png","images/complex/13.png","images/simple/15.png,images/simple/8.png,images/simple/6.png,images/simple/10.png,images/simple/5.png,images/simple/12.png,images/simple/4.png","1","null","","200","1338.1449999753386","yes","341.67499997420236","","target","",""
"","null","html-keyboard-response","162","345682","0.0-17.0-0.24","SS1604588666015","","null","","","","","","","","","","","","<img src=images/blank.png width =""500"" height = ""500"" style=""border:5px solid black"">","","",""
"","278.7599999574013","stimulus-presentation","163","346190","0.0-17.0-1.24","SS1604588666015","<img src='images/simple/4.png' width ='500' height = '500' style='border:5px solid black'>","40","mixed_simple_deviant","images/complex/2.png","images/complex/13.png","images/simple/15.png,images/simple/8.png,images/simple/6.png,images/simple/10.png,images/simple/5.png,images/simple/12.png,images/simple/4.png","1","null","","200","478.7599999574013","","","","deviant","",""
"","null","html-keyboard-response","164","347248","0.0-17.0-0.25","SS1604588666015","","null","","","","","","","","","","","","<img src=images/blank.png width =""500"" height = ""500"" style=""border:5px solid black"">","","",""
"","411.01999999955297","stimulus-presentation","165","347876","0.0-17.0-1.25","SS1604588666015","<img src='images/complex/13.png' width ='500' height = '500' style='border:5px solid black'>","40","mixed_simple_deviant","images/complex/2.png","images/complex/13.png","images/simple/15.png,images/simple/8.png,images/simple/6.png,images/simple/10.png,images/simple/5.png,images/simple/12.png,images/simple/4.png","1","null","","200","611.019999999553","","","","background","",""
"","null","html-keyboard-response","166","348754","0.0-17.0-0.26","SS1604588666015","","null","","","","","","","","","","","","<img src=images/blank.png width =""500"" height = ""500"" style=""border:5px solid black"">","","",""
"","265.39499999489635","stimulus-presentation","167","349253","0.0-17.0-1.26","SS1604588666015","<img src='images/complex/13.png' width ='500' height = '500' style='border:5px solid black'>","40","mixed_simple_deviant","images/complex/2.png","images/complex/13.png","images/simple/15.png,images/simple/8.png,images/simple/6.png,images/simple/10.png,images/simple/5.png,images/simple/12.png,images/simple/4.png","1","null","","200","465.39499999489635","","","","background","",""
"","null","html-keyboard-response","168","350511","0.0-17.0-0.27","SS1604588666015","","null","","","","","","","","","","","","<img src=images/blank.png width =""500"" height = ""500"" style=""border:5px solid black"">","","",""
"","206.22499997261912","stimulus-presentation","169","350934","0.0-17.0-1.27","SS1604588666015","<img src='images/complex/13.png' width ='500' height = '500' style='border:5px solid black'>","40","mixed_simple_deviant","images/complex/2.png","images/complex/13.png","images/simple/15.png,images/simple/8.png,images/simple/6.png,images/simple/10.png,images/simple/5.png,images/simple/12.png,images/simple/4.png","1","null","","200","406.2249999726191","","","","background","",""
"","null","html-keyboard-response","170","351895","0.0-17.0-0.28","SS1604588666015","","null","","","","","","","","","","","","<img src=images/blank.png width =""500"" height = ""500"" style=""border:5px solid black"">","","",""
"","1148.7250000354834","stimulus-presentation","171","353262","0.0-17.0-1.28","SS1604588666015","<img src='images/complex/2.png' width ='500' height = '500' style='border:5px solid black'>","40","mixed_simple_deviant","images/complex/2.png","images/complex/13.png","images/simple/15.png,images/simple/8.png,images/simple/6.png,images/simple/10.png,images/simple/5.png,images/simple/12.png,images/simple/4.png","1","null","","200","1348.7250000354834","yes","414.6199999959208","","target","",""
"","null","html-keyboard-response","172","354457","0.0-17.0-0.29","SS1604588666015","","null","","","","","","","","","","","","<img src=images/blank.png width =""500"" height = ""500"" style=""border:5px solid black"">","","",""
"","381.1149999964982","stimulus-presentation","173","355057","0.0-17.0-1.29","SS1604588666015","<img src='images/complex/13.png' width ='500' height = '500' style='border:5px solid black'>","40","mixed_simple_deviant","images/complex/2.png","images/complex/13.png","images/simple/15.png,images/simple/8.png,images/simple/6.png,images/simple/10.png,images/simple/5.png,images/simple/12.png,images/simple/4.png","1","null","","200","581.1149999964982","","","","background","",""
"","null","html-keyboard-response","174","355901","0.0-17.0-0.30","SS1604588666015","","null","","","","","","","","","","","","<img src=images/blank.png width =""500"" height = ""500"" style=""border:5px solid black"">","","",""
"","151.32000000448897","stimulus-presentation","175","356270","0.0-17.0-1.30","SS1604588666015","<img src='images/complex/13.png' width ='500' height = '500' style='border:5px solid black'>","40","mixed_simple_deviant","images/complex/2.png","images/complex/13.png","images/simple/15.png,images/simple/8.png,images/simple/6.png,images/simple/10.png,images/simple/5.png,images/simple/12.png,images/simple/4.png","1","null","","200","351.320000004489","","","","background","",""
"","null","html-keyboard-response","176","357210","0.0-17.0-0.31","SS1604588666015","","null","","","","","","","","","","","","<img src=images/blank.png width =""500"" height = ""500"" style=""border:5px solid black"">","","",""
"","424.49000000488013","stimulus-presentation","177","357843","0.0-17.0-1.31","SS1604588666015","<img src='images/simple/15.png' width ='500' height = '500' style='border:5px solid black'>","40","mixed_simple_deviant","images/complex/2.png","images/complex/13.png","images/simple/15.png,images/simple/8.png,images/simple/6.png,images/simple/10.png,images/simple/5.png,images/simple/12.png,images/simple/4.png","1","null","","200","624.4900000048801","","","","deviant","",""
"","null","html-keyboard-response","178","359126","0.0-17.0-0.32","SS1604588666015","","null","","","","","","","","","","","","<img src=images/blank.png width =""500"" height = ""500"" style=""border:5px solid black"">","","",""
"","264.2599999671802","stimulus-presentation","179","359608","0.0-17.0-1.32","SS1604588666015","<img src='images/complex/13.png' width ='500' height = '500' style='border:5px solid black'>","40","mixed_simple_deviant","images/complex/2.png","images/complex/13.png","images/simple/15.png,images/simple/8.png,images/simple/6.png,images/simple/10.png,images/simple/5.png,images/simple/12.png,images/simple/4.png","1","null","","200","464.2599999671802","","","","background","",""
"","null","html-keyboard-response","180","360667","0.0-17.0-0.33","SS1604588666015","","null","","","","","","","","","","","","<img src=images/blank.png width =""500"" height = ""500"" style=""border:5px solid black"">","","",""
"","213.48500001477078","stimulus-presentation","181","361100","0.0-17.0-1.33","SS1604588666015","<img src='images/complex/13.png' width ='500' height = '500' style='border:5px solid black'>","40","mixed_simple_deviant","images/complex/2.png","images/complex/13.png","images/simple/15.png,images/simple/8.png,images/simple/6.png,images/simple/10.png,images/simple/5.png,images/simple/12.png,images/simple/4.png","1","null","","200","413.4850000147708","","","","background","",""
"","null","html-keyboard-response","182","361953","0.0-17.0-0.34","SS1604588666015","","null","","","","","","","","","","","","<img src=images/blank.png width =""500"" height = ""500"" style=""border:5px solid black"">","","",""
"","1497.1050000167452","stimulus-presentation","183","363667","0.0-17.0-1.34","SS1604588666015","<img src='images/complex/2.png' width ='500' height = '500' style='border:5px solid black'>","40","mixed_simple_deviant","images/complex/2.png","images/complex/13.png","images/simple/15.png,images/simple/8.png,images/simple/6.png,images/simple/10.png,images/simple/5.png,images/simple/12.png,images/simple/4.png","1","null","","200","1697.1050000167452","yes","425.92000000877306","","target","",""
"","null","html-keyboard-response","184","364686","0.0-17.0-0.35","SS1604588666015","","null","","","","","","","","","","","","<img src=images/blank.png width =""500"" height = ""500"" style=""border:5px solid black"">","","",""
"","451.0199999785982","stimulus-presentation","185","365344","0.0-17.0-1.35","SS1604588666015","<img src='images/complex/13.png' width ='500' height = '500' style='border:5px solid black'>","40","mixed_simple_deviant","images/complex/2.png","images/complex/13.png","images/simple/15.png,images/simple/8.png,images/simple/6.png,images/simple/10.png,images/simple/5.png,images/simple/12.png,images/simple/4.png","1","null","","200","651.0199999785982","","","","background","",""
"","null","html-keyboard-response","186","366631","0.0-17.0-0.36","SS1604588666015","","null","","","","","","","","","","","","<img src=images/blank.png width =""500"" height = ""500"" style=""border:5px solid black"">","","",""
"","428.9949999656528","stimulus-presentation","187","367279","0.0-17.0-1.36","SS1604588666015","<img src='images/complex/13.png' width ='500' height = '500' style='border:5px solid black'>","40","mixed_simple_deviant","images/complex/2.png","images/complex/13.png","images/simple/15.png,images/simple/8.png,images/simple/6.png,images/simple/10.png,images/simple/5.png,images/simple/12.png,images/simple/4.png","1","null","","200","628.9949999656528","","","","background","",""
"","null","html-keyboard-response","188","368327","0.0-17.0-0.37","SS1604588666015","","null","","","","","","","","","","","","<img src=images/blank.png width =""500"" height = ""500"" style=""border:5px solid black"">","","",""
"","411.31499997572973","stimulus-presentation","189","368946","0.0-17.0-1.37","SS1604588666015","<img src='images/simple/5.png' width ='500' height = '500' style='border:5px solid black'>","40","mixed_simple_deviant","images/complex/2.png","images/complex/13.png","images/simple/15.png,images/simple/8.png,images/simple/6.png,images/simple/10.png,images/simple/5.png,images/simple/12.png,images/simple/4.png","1","null","","200","611.3149999757297","","","","deviant","",""
"","null","html-keyboard-response","190","370118","0.0-17.0-0.38","SS1604588666015","","null","","","","","","","","","","","","<img src=images/blank.png width =""500"" height = ""500"" style=""border:5px solid black"">","","",""
"","387.67000002553686","stimulus-presentation","191","370726","0.0-17.0-1.38","SS1604588666015","<img src='images/complex/13.png' width ='500' height = '500' style='border:5px solid black'>","40","mixed_simple_deviant","images/complex/2.png","images/complex/13.png","images/simple/15.png,images/simple/8.png,images/simple/6.png,images/simple/10.png,images/simple/5.png,images/simple/12.png,images/simple/4.png","1","null","","200","587.6700000255369","","","","background","",""
"","null","html-keyboard-response","192","371881","0.0-17.0-0.39","SS1604588666015","","null","","","","","","","","","","","","<img src=images/blank.png width =""500"" height = ""500"" style=""border:5px solid black"">","","",""
"","250.2600000007078","stimulus-presentation","193","372352","0.0-17.0-1.39","SS1604588666015","<img src='images/complex/13.png' width ='500' height = '500' style='border:5px solid black'>","40","mixed_simple_deviant","images/complex/2.png","images/complex/13.png","images/simple/15.png,images/simple/8.png,images/simple/6.png,images/simple/10.png,images/simple/5.png,images/simple/12.png,images/simple/4.png","1","null","","200","450.2600000007078","","","","background","",""
"","null","html-keyboard-response","194","373181","0.0-17.0-0.40","SS1604588666015","","null","","","","","","","","","","","","<img src=images/blank.png width =""500"" height = ""500"" style=""border:5px solid black"">","","",""
"","1508.9900000020862","stimulus-presentation","195","374914","0.0-17.0-1.40","SS1604588666015","<img src='images/complex/2.png' width ='500' height = '500' style='border:5px solid black'>","40","mixed_simple_deviant","images/complex/2.png","images/complex/13.png","images/simple/15.png,images/simple/8.png,images/simple/6.png,images/simple/10.png,images/simple/5.png,images/simple/12.png,images/simple/4.png","1","null","","200","1708.9900000020862","yes","367.90499999187887","","target","",""
"","null","html-keyboard-response","196","375755","0.0-17.0-0.41","SS1604588666015","","null","","","","","","","","","","","","<img src=images/blank.png width =""500"" height = ""500"" style=""border:5px solid black"">","","",""
"","2015.2949999901466","stimulus-presentation","197","377990","0.0-17.0-1.41","SS1604588666015","<img src='images/complex/2.png' width ='500' height = '500' style='border:5px solid black'>","40","mixed_simple_deviant","images/complex/2.png","images/complex/13.png","images/simple/15.png,images/simple/8.png,images/simple/6.png,images/simple/10.png,images/simple/5.png,images/simple/12.png,images/simple/4.png","1","null","","200","2215.2949999901466","yes","446.9950000056997","","target","",""
"","null","html-keyboard-response","198","378965","0.0-17.0-0.42","SS1604588666015","","null","","","","","","","","","","","","<img src=images/blank.png width =""500"" height = ""500"" style=""border:5px solid black"">","","",""
"","370.56499999016523","stimulus-presentation","199","379564","0.0-17.0-1.42","SS1604588666015","<img src='images/complex/13.png' width ='500' height = '500' style='border:5px solid black'>","40","mixed_simple_deviant","images/complex/2.png","images/complex/13.png","images/simple/15.png,images/simple/8.png,images/simple/6.png,images/simple/10.png,images/simple/5.png,images/simple/12.png,images/simple/4.png","1","null","","200","570.5649999901652","","","","background","",""
"","null","html-keyboard-response","200","380861","0.0-17.0-0.43","SS1604588666015","","null","","","","","","","","","","","","<img src=images/blank.png width =""500"" height = ""500"" style=""border:5px solid black"">","","",""
"","717.9950000136159","stimulus-presentation","201","381799","0.0-17.0-1.43","SS1604588666015","<img src='images/complex/13.png' width ='500' height = '500' style='border:5px solid black'>","40","mixed_simple_deviant","images/complex/2.png","images/complex/13.png","images/simple/15.png,images/simple/8.png,images/simple/6.png,images/simple/10.png,images/simple/5.png,images/simple/12.png,images/simple/4.png","1","null","","200","917.9950000136159","","","","background","",""
"","null","html-keyboard-response","202","382931","0.0-17.0-0.44","SS1604588666015","","null","","","","","","","","","","","","<img src=images/blank.png width =""500"" height = ""500"" style=""border:5px solid black"">","","",""
"","523.769999970682","stimulus-presentation","203","383675","0.0-17.0-1.44","SS1604588666015","<img src='images/simple/12.png' width ='500' height = '500' style='border:5px solid black'>","40","mixed_simple_deviant","images/complex/2.png","images/complex/13.png","images/simple/15.png,images/simple/8.png,images/simple/6.png,images/simple/10.png,images/simple/5.png,images/simple/12.png,images/simple/4.png","1","null","","200","723.769999970682","","","","deviant","",""
"","null","html-keyboard-response","204","384907","0.0-17.0-0.45","SS1604588666015","","null","","","","","","","","","","","","<img src=images/blank.png width =""500"" height = ""500"" style=""border:5px solid black"">","","",""
"","1353.0400000163354","stimulus-presentation","205","386484","0.0-17.0-1.45","SS1604588666015","<img src='images/complex/2.png' width ='500' height = '500' style='border:5px solid black'>","40","mixed_simple_deviant","images/complex/2.png","images/complex/13.png","images/simple/15.png,images/simple/8.png,images/simple/6.png,images/simple/10.png,images/simple/5.png,images/simple/12.png,images/simple/4.png","1","null","","200","1553.0400000163354","yes","335.01500001875684","","target","",""
"","null","html-keyboard-response","206","387358","0.0-17.0-0.46","SS1604588666015","","null","","","","","","","","","","","","<img src=images/blank.png width =""500"" height = ""500"" style=""border:5px solid black"">","","",""
"","360.4499999783002","stimulus-presentation","207","387940","0.0-17.0-1.46","SS1604588666015","<img src='images/complex/13.png' width ='500' height = '500' style='border:5px solid black'>","40","mixed_simple_deviant","images/complex/2.png","images/complex/13.png","images/simple/15.png,images/simple/8.png,images/simple/6.png,images/simple/10.png,images/simple/5.png,images/simple/12.png,images/simple/4.png","1","null","","200","560.4499999783002","","","","background","",""
"","null","html-keyboard-response","208","389251","0.0-17.0-0.47","SS1604588666015","","null","","","","","","","","","","","","<img src=images/blank.png width =""500"" height = ""500"" style=""border:5px solid black"">","","",""
"","319.72999998833984","stimulus-presentation","209","389791","0.0-17.0-1.47","SS1604588666015","<img src='images/complex/13.png' width ='500' height = '500' style='border:5px solid black'>","40","mixed_simple_deviant","images/complex/2.png","images/complex/13.png","images/simple/15.png,images/simple/8.png,images/simple/6.png,images/simple/10.png,images/simple/5.png,images/simple/12.png,images/simple/4.png","1","null","","200","519.7299999883398","","","","background","",""
"","null","html-keyboard-response","210","390737","0.0-17.0-0.48","SS1604588666015","","null","","","","","","","","","","","","<img src=images/blank.png width =""500"" height = ""500"" style=""border:5px solid black"">","","",""
"","234.08500000368804","stimulus-presentation","211","391192","0.0-17.0-1.48","SS1604588666015","<img src='images/complex/13.png' width ='500' height = '500' style='border:5px solid black'>","40","mixed_simple_deviant","images/complex/2.png","images/complex/13.png","images/simple/15.png,images/simple/8.png,images/simple/6.png,images/simple/10.png,images/simple/5.png,images/simple/12.png,images/simple/4.png","1","null","","200","434.08500000368804","","","","background","",""
"[{""page_index"":0,""viewing_time"":27591}]","27591","task-instructions","212","418802","0.0-18.0","SS1604588666015","","","","","","","","","","","","","","","","",""
"[{""page_index"":0,""viewing_time"":4701.834999956191},{""page_index"":1,""viewing_time"":6257.095000008121},{""page_index"":2,""viewing_time"":2234.4600000069477}]","13193.944999948144","instructions","213","432005","0.0-19.0","SS1604588666015","","","","","","","","","","","","","","","","",""
"","null","html-keyboard-response","214","432966","0.0-20.0-0.0","SS1604588666015","","null","","","","","","","","","","","","<img src=images/blank.png width =""500"" height = ""500"" style=""border:5px solid black"">","","",""
"","1376.7649999936111","stimulus-presentation","215","434564","0.0-20.0-1.0","SS1604588666015","<img src='images/complex/14.png' width ='500' height = '500' style='border:5px solid black'>","40","all_complex","images/complex/16.png","images/complex/14.png","images/complex/8.png,images/complex/4.png,images/complex/9.png,images/complex/7.png,images/complex/18.png,images/complex/5.png,images/complex/17.png","2","null","","200","1576.7649999936111","","","","background","",""
"","null","html-keyboard-response","216","435469","0.0-20.0-0.1","SS1604588666015","","null","","","","","","","","","","","","<img src=images/blank.png width =""500"" height = ""500"" style=""border:5px solid black"">","","",""
"","1697.9600000195205","stimulus-presentation","217","437389","0.0-20.0-1.1","SS1604588666015","<img src='images/complex/16.png' width ='500' height = '500' style='border:5px solid black'>","40","all_complex","images/complex/16.png","images/complex/14.png","images/complex/8.png,images/complex/4.png,images/complex/9.png,images/complex/7.png,images/complex/18.png,images/complex/5.png,images/complex/17.png","2","null","","200","1897.9600000195205","yes","941.8200000072829","","target","",""
"","null","html-keyboard-response","218","438525","0.0-20.0-0.2","SS1604588666015","","null","","","","","","","","","","","","<img src=images/blank.png width =""500"" height = ""500"" style=""border:5px solid black"">","","",""
"","338.9150000293739","stimulus-presentation","219","439086","0.0-20.0-1.2","SS1604588666015","<img src='images/complex/9.png' width ='500' height = '500' style='border:5px solid black'>","40","all_complex","images/complex/16.png","images/complex/14.png","images/complex/8.png,images/complex/4.png,images/complex/9.png,images/complex/7.png,images/complex/18.png,images/complex/5.png,images/complex/17.png","2","null","","200","538.9150000293739","","","","deviant","",""
"","null","html-keyboard-response","220","440034","0.0-20.0-0.3","SS1604588666015","","null","","","","","","","","","","","","<img src=images/blank.png width =""500"" height = ""500"" style=""border:5px solid black"">","","",""
"","188.51499998709187","stimulus-presentation","221","440444","0.0-20.0-1.3","SS1604588666015","<img src='images/complex/14.png' width ='500' height = '500' style='border:5px solid black'>","40","all_complex","images/complex/16.png","images/complex/14.png","images/complex/8.png,images/complex/4.png,images/complex/9.png,images/complex/7.png,images/complex/18.png,images/complex/5.png,images/complex/17.png","2","null","","200","388.51499998709187","","","","background","",""
"","null","html-keyboard-response","222","441287","0.0-20.0-0.4","SS1604588666015","","null","","","","","","","","","","","","<img src=images/blank.png width =""500"" height = ""500"" style=""border:5px solid black"">","","",""
"","200.64499997533858","stimulus-presentation","223","441709","0.0-20.0-1.4","SS1604588666015","<img src='images/complex/14.png' width ='500' height = '500' style='border:5px solid black'>","40","all_complex","images/complex/16.png","images/complex/14.png","images/complex/8.png,images/complex/4.png,images/complex/9.png,images/complex/7.png,images/complex/18.png,images/complex/5.png,images/complex/17.png","2","null","","200","400.6449999753386","","","","background","",""
"","null","html-keyboard-response","224","442781","0.0-20.0-0.5","SS1604588666015","","null","","","","","","","","","","","","<img src=images/blank.png width =""500"" height = ""500"" style=""border:5px solid black"">","","",""
"","283.12999999616295","stimulus-presentation","225","443285","0.0-20.0-1.5","SS1604588666015","<img src='images/complex/14.png' width ='500' height = '500' style='border:5px solid black'>","40","all_complex","images/complex/16.png","images/complex/14.png","images/complex/8.png,images/complex/4.png,images/complex/9.png,images/complex/7.png,images/complex/18.png,images/complex/5.png,images/complex/17.png","2","null","","200","483.12999999616295","","","","background","",""
"","null","html-keyboard-response","226","444551","0.0-20.0-0.6","SS1604588666015","","null","","","","","","","","","","","","<img src=images/blank.png width =""500"" height = ""500"" style=""border:5px solid black"">","","",""
"","193.45500000054017","stimulus-presentation","227","444963","0.0-20.0-1.6","SS1604588666015","<img src='images/complex/14.png' width ='500' height = '500' style='border:5px solid black'>","40","all_complex","images/complex/16.png","images/complex/14.png","images/complex/8.png,images/complex/4.png,images/complex/9.png,images/complex/7.png,images/complex/18.png,images/complex/5.png,images/complex/17.png","2","null","","200","393.45500000054017","","","","background","",""
"","null","html-keyboard-response","228","446008","0.0-20.0-0.7","SS1604588666015","","null","","","","","","","","","","","","<img src=images/blank.png width =""500"" height = ""500"" style=""border:5px solid black"">","","",""
"","212.8750000265427","stimulus-presentation","229","446441","0.0-20.0-1.7","SS1604588666015","<img src='images/complex/14.png' width ='500' height = '500' style='border:5px solid black'>","40","all_complex","images/complex/16.png","images/complex/14.png","images/complex/8.png,images/complex/4.png,images/complex/9.png,images/complex/7.png,images/complex/18.png,images/complex/5.png,images/complex/17.png","2","null","","200","412.8750000265427","","","","background","",""
"","null","html-keyboard-response","230","447714","0.0-20.0-0.8","SS1604588666015","","null","","","","","","","","","","","","<img src=images/blank.png width =""500"" height = ""500"" style=""border:5px solid black"">","","",""
"","216.92000003531575","stimulus-presentation","231","448155","0.0-20.0-1.8","SS1604588666015","<img src='images/complex/18.png' width ='500' height = '500' style='border:5px solid black'>","40","all_complex","images/complex/16.png","images/complex/14.png","images/complex/8.png,images/complex/4.png,images/complex/9.png,images/complex/7.png,images/complex/18.png,images/complex/5.png,images/complex/17.png","2","null","","200","416.92000003531575","","","","deviant","",""
"","null","html-keyboard-response","232","449192","0.0-20.0-0.9","SS1604588666015","","null","","","","","","","","","","","","<img src=images/blank.png width =""500"" height = ""500"" style=""border:5px solid black"">","","",""
"","2182.9999999608845","stimulus-presentation","233","451596","0.0-20.0-1.9","SS1604588666015","<img src='images/complex/16.png' width ='500' height = '500' style='border:5px solid black'>","40","all_complex","images/complex/16.png","images/complex/14.png","images/complex/8.png,images/complex/4.png,images/complex/9.png,images/complex/7.png,images/complex/18.png,images/complex/5.png,images/complex/17.png","2","null","","200","2382.9999999608845","yes","1340.9199999878183","","target","",""
"","null","html-keyboard-response","234","452701","0.0-20.0-0.10","SS1604588666015","","null","","","","","","","","","","","","<img src=images/blank.png width =""500"" height = ""500"" style=""border:5px solid black"">","","",""
"","494.18499995954335","stimulus-presentation","235","453414","0.0-20.0-1.10","SS1604588666015","<img src='images/complex/14.png' width ='500' height = '500' style='border:5px solid black'>","40","all_complex","images/complex/16.png","images/complex/14.png","images/complex/8.png,images/complex/4.png,images/complex/9.png,images/complex/7.png,images/complex/18.png,images/complex/5.png,images/complex/17.png","2","null","","200","694.1849999595433","","","","background","",""
"","null","html-keyboard-response","236","454467","0.0-20.0-0.11","SS1604588666015","","null","","","","","","","","","","","","<img src=images/blank.png width =""500"" height = ""500"" style=""border:5px solid black"">","","",""
"","655.655000009574","stimulus-presentation","237","455346","0.0-20.0-1.11","SS1604588666015","<img src='images/complex/4.png' width ='500' height = '500' style='border:5px solid black'>","40","all_complex","images/complex/16.png","images/complex/14.png","images/complex/8.png,images/complex/4.png,images/complex/9.png,images/complex/7.png,images/complex/18.png,images/complex/5.png,images/complex/17.png","2","null","","200","855.655000009574","","","","deviant","",""
"","null","html-keyboard-response","238","456344","0.0-20.0-0.12","SS1604588666015","","null","","","","","","","","","","","","<img src=images/blank.png width =""500"" height = ""500"" style=""border:5px solid black"">","","",""
"","211.46999998018146","stimulus-presentation","239","456781","0.0-20.0-1.12","SS1604588666015","<img src='images/complex/14.png' width ='500' height = '500' style='border:5px solid black'>","40","all_complex","images/complex/16.png","images/complex/14.png","images/complex/8.png,images/complex/4.png,images/complex/9.png,images/complex/7.png,images/complex/18.png,images/complex/5.png,images/complex/17.png","2","null","","200","411.46999998018146","","","","background","",""
"","null","html-keyboard-response","240","457613","0.0-20.0-0.13","SS1604588666015","","null","","","","","","","","","","","","<img src=images/blank.png width =""500"" height = ""500"" style=""border:5px solid black"">","","",""
"","195.04500000039116","stimulus-presentation","241","458032","0.0-20.0-1.13","SS1604588666015","<img src='images/complex/14.png' width ='500' height = '500' style='border:5px solid black'>","40","all_complex","images/complex/16.png","images/complex/14.png","images/complex/8.png,images/complex/4.png,images/complex/9.png,images/complex/7.png,images/complex/18.png,images/complex/5.png,images/complex/17.png","2","null","","200","395.04500000039116","","","","background","",""
"","null","html-keyboard-response","242","458969","0.0-20.0-0.14","SS1604588666015","","null","","","","","","","","","","","","<img src=images/blank.png width =""500"" height = ""500"" style=""border:5px solid black"">","","",""
"","2400.214999972377","stimulus-presentation","243","461590","0.0-20.0-1.14","SS1604588666015","<img src='images/complex/16.png' width ='500' height = '500' style='border:5px solid black'>","40","all_complex","images/complex/16.png","images/complex/14.png","images/complex/8.png,images/complex/4.png,images/complex/9.png,images/complex/7.png,images/complex/18.png,images/complex/5.png,images/complex/17.png","2","null","","200","2600.214999972377","yes","535.3500000201166","","target","",""
"","null","html-keyboard-response","244","462747","0.0-20.0-0.15","SS1604588666015","","null","","","","","","","","","","","","<img src=images/blank.png width =""500"" height = ""500"" style=""border:5px solid black"">","","",""
"","287.49999997671694","stimulus-presentation","245","463254","0.0-20.0-1.15","SS1604588666015","<img src='images/complex/14.png' width ='500' height = '500' style='border:5px solid black'>","40","all_complex","images/complex/16.png","images/complex/14.png","images/complex/8.png,images/complex/4.png,images/complex/9.png,images/complex/7.png,images/complex/18.png,images/complex/5.png,images/complex/17.png","2","null","","200","487.49999997671694","","","","background","",""
"","null","html-keyboard-response","246","464513","0.0-20.0-0.16","SS1604588666015","","null","","","","","","","","","","","","<img src=images/blank.png width =""500"" height = ""500"" style=""border:5px solid black"">","","",""
"","184.95000002440065","stimulus-presentation","247","464920","0.0-20.0-1.16","SS1604588666015","<img src='images/complex/14.png' width ='500' height = '500' style='border:5px solid black'>","40","all_complex","images/complex/16.png","images/complex/14.png","images/complex/8.png,images/complex/4.png,images/complex/9.png,images/complex/7.png,images/complex/18.png,images/complex/5.png,images/complex/17.png","2","null","","200","384.95000002440065","","","","background","",""
"","null","html-keyboard-response","248","466168","0.0-20.0-0.17","SS1604588666015","","null","","","","","","","","","","","","<img src=images/blank.png width =""500"" height = ""500"" style=""border:5px solid black"">","","",""
"","523.9050000091083","stimulus-presentation","249","466917","0.0-20.0-1.17","SS1604588666015","<img src='images/complex/8.png' width ='500' height = '500' style='border:5px solid black'>","40","all_complex","images/complex/16.png","images/complex/14.png","images/complex/8.png,images/complex/4.png,images/complex/9.png,images/complex/7.png,images/complex/18.png,images/complex/5.png,images/complex/17.png","2","null","","200","723.9050000091083","","","","deviant","",""
"","null","html-keyboard-response","250","467934","0.0-20.0-0.18","SS1604588666015","","null","","","","","","","","","","","","<img src=images/blank.png width =""500"" height = ""500"" style=""border:5px solid black"">","","",""
"","550.165000022389","stimulus-presentation","251","468706","0.0-20.0-1.18","SS1604588666015","<img src='images/complex/14.png' width ='500' height = '500' style='border:5px solid black'>","40","all_complex","images/complex/16.png","images/complex/14.png","images/complex/8.png,images/complex/4.png,images/complex/9.png,images/complex/7.png,images/complex/18.png,images/complex/5.png,images/complex/17.png","2","null","","200","750.165000022389","","","","background","",""
"","null","html-keyboard-response","252","469539","0.0-20.0-0.19","SS1604588666015","","null","","","","","","","","","","","","<img src=images/blank.png width =""500"" height = ""500"" style=""border:5px solid black"">","","",""
"","193.82499996572733","stimulus-presentation","253","469953","0.0-20.0-1.19","SS1604588666015","<img src='images/complex/14.png' width ='500' height = '500' style='border:5px solid black'>","40","all_complex","images/complex/16.png","images/complex/14.png","images/complex/8.png,images/complex/4.png,images/complex/9.png,images/complex/7.png,images/complex/18.png,images/complex/5.png,images/complex/17.png","2","null","","200","393.82499996572733","","","","background","",""
"","null","html-keyboard-response","254","471012","0.0-20.0-0.20","SS1604588666015","","null","","","","","","","","","","","","<img src=images/blank.png width =""500"" height = ""500"" style=""border:5px solid black"">","","",""
"","242.97500000102445","stimulus-presentation","255","471474","0.0-20.0-1.20","SS1604588666015","<img src='images/complex/14.png' width ='500' height = '500' style='border:5px solid black'>","40","all_complex","images/complex/16.png","images/complex/14.png","images/complex/8.png,images/complex/4.png,images/complex/9.png,images/complex/7.png,images/complex/18.png,images/complex/5.png,images/complex/17.png","2","null","","200","442.97500000102445","","","","background","",""
"","null","html-keyboard-response","256","472779","0.0-20.0-0.21","SS1604588666015","","null","","","","","","","","","","","","<img src=images/blank.png width =""500"" height = ""500"" style=""border:5px solid black"">","","",""
"","166.62000003270805","stimulus-presentation","257","473165","0.0-20.0-1.21","SS1604588666015","<img src='images/complex/14.png' width ='500' height = '500' style='border:5px solid black'>","40","all_complex","images/complex/16.png","images/complex/14.png","images/complex/8.png,images/complex/4.png,images/complex/9.png,images/complex/7.png,images/complex/18.png,images/complex/5.png,images/complex/17.png","2","null","","200","366.62000003270805","","","","background","",""
"","null","html-keyboard-response","258","474223","0.0-20.0-0.22","SS1604588666015","","null","","","","","","","","","","","","<img src=images/blank.png width =""500"" height = ""500"" style=""border:5px solid black"">","","",""
"","1530.094999994617","stimulus-presentation","259","475973","0.0-20.0-1.22","SS1604588666015","<img src='images/complex/16.png' width ='500' height = '500' style='border:5px solid black'>","40","all_complex","images/complex/16.png","images/complex/14.png","images/complex/8.png,images/complex/4.png,images/complex/9.png,images/complex/7.png,images/complex/18.png,images/complex/5.png,images/complex/17.png","2","null","","200","1730.094999994617","yes","406.2399999820627","","target","",""
"","null","html-keyboard-response","260","477054","0.0-20.0-0.23","SS1604588666015","","null","","","","","","","","","","","","<img src=images/blank.png width =""500"" height = ""500"" style=""border:5px solid black"">","","",""
"","326.50999998440966","stimulus-presentation","261","477601","0.0-20.0-1.23","SS1604588666015","<img src='images/complex/14.png' width ='500' height = '500' style='border:5px solid black'>","40","all_complex","images/complex/16.png","images/complex/14.png","images/complex/8.png,images/complex/4.png,images/complex/9.png,images/complex/7.png,images/complex/18.png,images/complex/5.png,images/complex/17.png","2","null","","200","526.5099999844097","","","","background","",""
"","null","html-keyboard-response","262","478716","0.0-20.0-0.24","SS1604588666015","","null","","","","","","","","","","","","<img src=images/blank.png width =""500"" height = ""500"" style=""border:5px solid black"">","","",""
"","215.67499998491257","stimulus-presentation","263","479153","0.0-20.0-1.24","SS1604588666015","<img src='images/complex/14.png' width ='500' height = '500' style='border:5px solid black'>","40","all_complex","images/complex/16.png","images/complex/14.png","images/complex/8.png,images/complex/4.png,images/complex/9.png,images/complex/7.png,images/complex/18.png,images/complex/5.png,images/complex/17.png","2","null","","200","415.6749999849126","","","","background","",""
"","null","html-keyboard-response","264","480435","0.0-20.0-0.25","SS1604588666015","","null","","","","","","","","","","","","<img src=images/blank.png width =""500"" height = ""500"" style=""border:5px solid black"">","","",""
"","304.6099999919534","stimulus-presentation","265","480960","0.0-20.0-1.25","SS1604588666015","<img src='images/complex/14.png' width ='500' height = '500' style='border:5px solid black'>","40","all_complex","images/complex/16.png","images/complex/14.png","images/complex/8.png,images/complex/4.png,images/complex/9.png,images/complex/7.png,images/complex/18.png,images/complex/5.png,images/complex/17.png","2","null","","200","504.6099999919534","","","","background","",""
"","null","html-keyboard-response","266","481876","0.0-20.0-0.26","SS1604588666015","","null","","","","","","","","","","","","<img src=images/blank.png width =""500"" height = ""500"" style=""border:5px solid black"">","","",""
"","323.1650000088848","stimulus-presentation","267","482416","0.0-20.0-1.26","SS1604588666015","<img src='images/complex/14.png' width ='500' height = '500' style='border:5px solid black'>","40","all_complex","images/complex/16.png","images/complex/14.png","images/complex/8.png,images/complex/4.png,images/complex/9.png,images/complex/7.png,images/complex/18.png,images/complex/5.png,images/complex/17.png","2","null","","200","523.1650000088848","","","","background","",""
"","null","html-keyboard-response","268","483653","0.0-20.0-0.27","SS1604588666015","","null","","","","","","","","","","","","<img src=images/blank.png width =""500"" height = ""500"" style=""border:5px solid black"">","","",""
"","791.5899999788962","stimulus-presentation","269","484659","0.0-20.0-1.27","SS1604588666015","<img src='images/complex/14.png' width ='500' height = '500' style='border:5px solid black'>","40","all_complex","images/complex/16.png","images/complex/14.png","images/complex/8.png,images/complex/4.png,images/complex/9.png,images/complex/7.png,images/complex/18.png,images/complex/5.png,images/complex/17.png","2","null","","200","991.5899999788962","","","","background","",""
"","null","html-keyboard-response","270","485952","0.0-20.0-0.28","SS1604588666015","","null","","","","","","","","","","","","<img src=images/blank.png width =""500"" height = ""500"" style=""border:5px solid black"">","","",""
"","603.1000000075437","stimulus-presentation","271","486774","0.0-20.0-1.28","SS1604588666015","<img src='images/complex/14.png' width ='500' height = '500' style='border:5px solid black'>","40","all_complex","images/complex/16.png","images/complex/14.png","images/complex/8.png,images/complex/4.png,images/complex/9.png,images/complex/7.png,images/complex/18.png,images/complex/5.png,images/complex/17.png","2","null","","200","803.1000000075437","","","","background","",""
"","null","html-keyboard-response","272","487884","0.0-20.0-0.29","SS1604588666015","","null","","","","","","","","","","","","<img src=images/blank.png width =""500"" height = ""500"" style=""border:5px solid black"">","","",""
"","710.5599999777041","stimulus-presentation","273","488816","0.0-20.0-1.29","SS1604588666015","<img src='images/complex/14.png' width ='500' height = '500' style='border:5px solid black'>","40","all_complex","images/complex/16.png","images/complex/14.png","images/complex/8.png,images/complex/4.png,images/complex/9.png,images/complex/7.png,images/complex/18.png,images/complex/5.png,images/complex/17.png","2","null","","200","910.5599999777041","","","","background","",""
"","null","html-keyboard-response","274","489862","0.0-20.0-0.30","SS1604588666015","","null","","","","","","","","","","","","<img src=images/blank.png width =""500"" height = ""500"" style=""border:5px solid black"">","","",""
"","228.8950000074692","stimulus-presentation","275","490313","0.0-20.0-1.30","SS1604588666015","<img src='images/complex/14.png' width ='500' height = '500' style='border:5px solid black'>","40","all_complex","images/complex/16.png","images/complex/14.png","images/complex/8.png,images/complex/4.png,images/complex/9.png,images/complex/7.png,images/complex/18.png,images/complex/5.png,images/complex/17.png","2","null","","200","428.8950000074692","","","","background","",""
"","null","html-keyboard-response","276","491528","0.0-20.0-0.31","SS1604588666015","","null","","","","","","","","","","","","<img src=images/blank.png width =""500"" height = ""500"" style=""border:5px solid black"">","","",""
"","226.6550000058487","stimulus-presentation","277","491974","0.0-20.0-1.31","SS1604588666015","<img src='images/complex/14.png' width ='500' height = '500' style='border:5px solid black'>","40","all_complex","images/complex/16.png","images/complex/14.png","images/complex/8.png,images/complex/4.png,images/complex/9.png,images/complex/7.png,images/complex/18.png,images/complex/5.png,images/complex/17.png","2","null","","200","426.6550000058487","","","","background","",""
"","null","html-keyboard-response","278","493150","0.0-20.0-0.32","SS1604588666015","","null","","","","","","","","","","","","<img src=images/blank.png width =""500"" height = ""500"" style=""border:5px solid black"">","","",""
"","547.5699999951757","stimulus-presentation","279","493918","0.0-20.0-1.32","SS1604588666015","<img src='images/complex/5.png' width ='500' height = '500' style='border:5px solid black'>","40","all_complex","images/complex/16.png","images/complex/14.png","images/complex/8.png,images/complex/4.png,images/complex/9.png,images/complex/7.png,images/complex/18.png,images/complex/5.png,images/complex/17.png","2","null","","200","747.5699999951757","","","","deviant","",""
"","null","html-keyboard-response","280","495184","0.0-20.0-0.33","SS1604588666015","","null","","","","","","","","","","","","<img src=images/blank.png width =""500"" height = ""500"" style=""border:5px solid black"">","","",""
"","202.0149999880232","stimulus-presentation","281","495608","0.0-20.0-1.33","SS1604588666015","<img src='images/complex/14.png' width ='500' height = '500' style='border:5px solid black'>","40","all_complex","images/complex/16.png","images/complex/14.png","images/complex/8.png,images/complex/4.png,images/complex/9.png,images/complex/7.png,images/complex/18.png,images/complex/5.png,images/complex/17.png","2","null","","200","402.0149999880232","","","","background","",""
