"view_history","rt","trial_type","trial_index","time_elapsed","internal_node_id","subject","trial_stimulus","key_press","task_type","task_target_stimulus","task_background_stimulus","task_deviant_stimuli","task_order_number","block_order_number","trial_order_number","minimum_viewing_duration","trial_looking_time","trial_pressed_space_bar","trial_space_bar_rt","stimulus","trial_stimulus_type","responses","question_order"
"[{""page_index"":0,""viewing_time"":1331.7150000075344}]","1332.0700000040233","instructions","0","1584","0.0-0.0","SS1604610484008","","","","","","","","","","","","","","","","",""
"[{""page_index"":0,""viewing_time"":7548.829999985173},{""page_index"":1,""viewing_time"":715.4549999977462},{""page_index"":2,""viewing_time"":488.5700000158977},{""page_index"":3,""viewing_time"":579.8450000002049},{""page_index"":4,""viewing_time"":494.06999998609535},{""page_index"":5,""viewing_time"":550.0049999973271},{""page_index"":6,""viewing_time"":454.02000000467524},{""page_index"":7,""viewing_time"":399.9900000053458},{""page_index"":8,""viewing_time"":408.05999998701736}]","11639.18499997817","instructions","1","13225","0.0-1.0","SS1604610484008","","","","","","","","","","","","","","","","",""
"[{""page_index"":0,""viewing_time"":955.9749999898486},{""page_index"":1,""viewing_time"":1865.9800000023097},{""page_index"":2,""viewing_time"":920.0100000016391}]","3742.3349999880884","instructions","2","16969","0.0-2.0","SS1604610484008","","","","","","","","","","","","","","","","",""
"","3995.1449999934994","practice-block","3","21171","0.0-3.0","SS1604610484008","<img src='images/practice/practice_background.jpeg' width ='500' height = '500' style='border:5px solid black'>","40","null","images/practice/practice_target.jpg","null","null","null","null","","200","4195.144999993499","","","","","",""
"","null","html-keyboard-response","4","22426","0.0-4.0","SS1604610484008","","null","","","","","","","","","","","","<img src=images/blank.png width =""500"" height = ""500"" style=""border:5px solid black"">","","",""
"","245.25000000721775","practice-block","5","22889","0.0-5.0","SS1604610484008","<img src='images/practice/practice_background.jpeg' width ='500' height = '500' style='border:5px solid black'>","40","null","images/practice/practice_target.jpg","null","null","null","null","","200","445.25000000721775","","","","","",""
"","null","html-keyboard-response","6","23789","0.0-6.0","SS1604610484008","","null","","","","","","","","","","","","<img src=images/blank.png width =""500"" height = ""500"" style=""border:5px solid black"">","","",""
"","198.44500001636334","practice-block","7","24193","0.0-7.0","SS1604610484008","<img src='images/practice/practice_deviant.jpeg' width ='500' height = '500' style='border:5px solid black'>","40","null","images/practice/practice_target.jpg","null","null","null","null","","200","398.44500001636334","","","","","",""
"","null","html-keyboard-response","8","25389","0.0-8.0","SS1604610484008","","null","","","","","","","","","","","","<img src=images/blank.png width =""500"" height = ""500"" style=""border:5px solid black"">","","",""
"","2838.384999980917","practice-block","9","28433","0.0-9.0-0.0","SS1604610484008","<img src='images/practice/practice_target.jpg' width ='500' height = '500' style='border:5px solid black'>","40","null","images/practice/practice_target.jpg","null","null","null","null","","200","3038.384999980917","yes","174.34999998658895","","","",""
"","null","html-keyboard-response","10","29521","0.0-10.0","SS1604610484008","","null","","","","","","","","","","","","<img src=images/blank.png width =""500"" height = ""500"" style=""border:5px solid black"">","","",""
"","209.05999999376945","practice-block","11","29939","0.0-11.0","SS1604610484008","<img src='images/practice/practice_background.jpeg' width ='500' height = '500' style='border:5px solid black'>","40","null","images/practice/practice_target.jpg","null","null","null","null","","200","409.05999999376945","","","","","",""
"[{""page_index"":0,""viewing_time"":1622}]","1622","task-instructions","12","31566","0.0-12.0","SS1604610484008","","","","","","","","","","","","","","","","",""
"[{""page_index"":0,""viewing_time"":739.7200000123121},{""page_index"":1,""viewing_time"":3268.4149999986403},{""page_index"":2,""viewing_time"":1365.590000001248}]","5374.050000013085","instructions","13","36941","0.0-13.0","SS1604610484008","","","","","","","","","","","","","","","","",""
"","null","html-keyboard-response","14","37952","0.0-14.0-0.0","SS1604610484008","","null","","","","","","","","","","","","<img src=images/blank.png width =""500"" height = ""500"" style=""border:5px solid black"">","","",""
"","824.9100000248291","stimulus-presentation","15","38993","0.0-14.0-1.0","SS1604610484008","<img src='images/complex/6.png' width ='500' height = '500' style='border:5px solid black'>","40","mixed_complex_deviant","images/simple/4.png","images/simple/12.png","images/complex/14.png,images/complex/17.png,images/complex/6.png,images/complex/10.png,images/complex/13.png,images/complex/4.png,images/complex/1.png","0","null","","200","1024.910000024829","","","","deviant","",""
"","null","html-keyboard-response","16","40117","0.0-14.0-0.1","SS1604610484008","","null","","","","","","","","","","","","<img src=images/blank.png width =""500"" height = ""500"" style=""border:5px solid black"">","","",""
"","3600.1499999838416","stimulus-presentation","17","43928","0.0-14.0-1.1","SS1604610484008","<img src='images/simple/4.png' width ='500' height = '500' style='border:5px solid black'>","40","mixed_complex_deviant","images/simple/4.png","images/simple/12.png","images/complex/14.png,images/complex/17.png,images/complex/6.png,images/complex/10.png,images/complex/13.png,images/complex/4.png,images/complex/1.png","0","null","","200","3800.1499999838416","yes","2865.1449999888428","","target","",""
"","null","html-keyboard-response","18","45095","0.0-14.0-0.2","SS1604610484008","","null","","","","","","","","","","","","<img src=images/blank.png width =""500"" height = ""500"" style=""border:5px solid black"">","","",""
"","114.91500001284294","stimulus-presentation","19","45424","0.0-14.0-1.2","SS1604610484008","<img src='images/simple/12.png' width ='500' height = '500' style='border:5px solid black'>","40","mixed_complex_deviant","images/simple/4.png","images/simple/12.png","images/complex/14.png,images/complex/17.png,images/complex/6.png,images/complex/10.png,images/complex/13.png,images/complex/4.png,images/complex/1.png","0","null","","200","314.91500001284294","","","","background","",""
"","null","html-keyboard-response","20","46571","0.0-14.0-0.3","SS1604610484008","","null","","","","","","","","","","","","<img src=images/blank.png width =""500"" height = ""500"" style=""border:5px solid black"">","","",""
"","142.09999999729916","stimulus-presentation","21","46920","0.0-14.0-1.3","SS1604610484008","<img src='images/simple/12.png' width ='500' height = '500' style='border:5px solid black'>","40","mixed_complex_deviant","images/simple/4.png","images/simple/12.png","images/complex/14.png,images/complex/17.png,images/complex/6.png,images/complex/10.png,images/complex/13.png,images/complex/4.png,images/complex/1.png","0","null","","200","342.09999999729916","","","","background","",""
"","null","html-keyboard-response","22","47735","0.0-14.0-0.4","SS1604610484008","","null","","","","","","","","","","","","<img src=images/blank.png width =""500"" height = ""500"" style=""border:5px solid black"">","","",""
"","128.00500000594184","stimulus-presentation","23","48073","0.0-14.0-1.4","SS1604610484008","<img src='images/complex/13.png' width ='500' height = '500' style='border:5px solid black'>","40","mixed_complex_deviant","images/simple/4.png","images/simple/12.png","images/complex/14.png,images/complex/17.png,images/complex/6.png,images/complex/10.png,images/complex/13.png,images/complex/4.png,images/complex/1.png","0","null","","200","328.00500000594184","","","","deviant","",""
"","null","html-keyboard-response","24","49232","0.0-14.0-0.5","SS1604610484008","","null","","","","","","","","","","","","<img src=images/blank.png width =""500"" height = ""500"" style=""border:5px solid black"">","","",""
"","141.10000000800937","stimulus-presentation","25","49584","0.0-14.0-1.5","SS1604610484008","<img src='images/simple/12.png' width ='500' height = '500' style='border:5px solid black'>","40","mixed_complex_deviant","images/simple/4.png","images/simple/12.png","images/complex/14.png,images/complex/17.png,images/complex/6.png,images/complex/10.png,images/complex/13.png,images/complex/4.png,images/complex/1.png","0","null","","200","341.1000000080094","","","","background","",""
"","null","html-keyboard-response","26","50420","0.0-14.0-0.6","SS1604610484008","","null","","","","","","","","","","","","<img src=images/blank.png width =""500"" height = ""500"" style=""border:5px solid black"">","","",""
"","183.53000000934117","stimulus-presentation","27","50811","0.0-14.0-1.6","SS1604610484008","<img src='images/simple/12.png' width ='500' height = '500' style='border:5px solid black'>","40","mixed_complex_deviant","images/simple/4.png","images/simple/12.png","images/complex/14.png,images/complex/17.png,images/complex/6.png,images/complex/10.png,images/complex/13.png,images/complex/4.png,images/complex/1.png","0","null","","200","383.53000000934117","","","","background","",""
"","null","html-keyboard-response","28","51651","0.0-14.0-0.7","SS1604610484008","","null","","","","","","","","","","","","<img src=images/blank.png width =""500"" height = ""500"" style=""border:5px solid black"">","","",""
"","67.67999997828156","stimulus-presentation","29","51928","0.0-14.0-1.7","SS1604610484008","<img src='images/complex/4.png' width ='500' height = '500' style='border:5px solid black'>","40","mixed_complex_deviant","images/simple/4.png","images/simple/12.png","images/complex/14.png,images/complex/17.png,images/complex/6.png,images/complex/10.png,images/complex/13.png,images/complex/4.png,images/complex/1.png","0","null","","200","267.67999997828156","","","","deviant","",""
"","null","html-keyboard-response","30","52754","0.0-14.0-0.8","SS1604610484008","","null","","","","","","","","","","","","<img src=images/blank.png width =""500"" height = ""500"" style=""border:5px solid black"">","","",""
"","337.5499999965541","stimulus-presentation","31","53297","0.0-14.0-1.8","SS1604610484008","<img src='images/simple/12.png' width ='500' height = '500' style='border:5px solid black'>","40","mixed_complex_deviant","images/simple/4.png","images/simple/12.png","images/complex/14.png,images/complex/17.png,images/complex/6.png,images/complex/10.png,images/complex/13.png,images/complex/4.png,images/complex/1.png","0","null","","200","537.5499999965541","","","","background","",""
"","null","html-keyboard-response","32","54166","0.0-14.0-0.9","SS1604610484008","","null","","","","","","","","","","","","<img src=images/blank.png width =""500"" height = ""500"" style=""border:5px solid black"">","","",""
"","481.54999999678694","stimulus-presentation","33","54857","0.0-14.0-1.9","SS1604610484008","<img src='images/simple/12.png' width ='500' height = '500' style='border:5px solid black'>","40","mixed_complex_deviant","images/simple/4.png","images/simple/12.png","images/complex/14.png,images/complex/17.png,images/complex/6.png,images/complex/10.png,images/complex/13.png,images/complex/4.png,images/complex/1.png","0","null","","200","681.5499999967869","","","","background","",""
"","null","html-keyboard-response","34","55826","0.0-14.0-0.10","SS1604610484008","","null","","","","","","","","","","","","<img src=images/blank.png width =""500"" height = ""500"" style=""border:5px solid black"">","","",""
"","238.23499999707565","stimulus-presentation","35","56273","0.0-14.0-1.10","SS1604610484008","<img src='images/simple/12.png' width ='500' height = '500' style='border:5px solid black'>","40","mixed_complex_deviant","images/simple/4.png","images/simple/12.png","images/complex/14.png,images/complex/17.png,images/complex/6.png,images/complex/10.png,images/complex/13.png,images/complex/4.png,images/complex/1.png","0","null","","200","438.23499999707565","","","","background","",""
"","null","html-keyboard-response","36","57238","0.0-14.0-0.11","SS1604610484008","","null","","","","","","","","","","","","<img src=images/blank.png width =""500"" height = ""500"" style=""border:5px solid black"">","","",""
"","542.2100000141654","stimulus-presentation","37","57986","0.0-14.0-1.11","SS1604610484008","<img src='images/simple/12.png' width ='500' height = '500' style='border:5px solid black'>","40","mixed_complex_deviant","images/simple/4.png","images/simple/12.png","images/complex/14.png,images/complex/17.png,images/complex/6.png,images/complex/10.png,images/complex/13.png,images/complex/4.png,images/complex/1.png","0","null","","200","742.2100000141654","","","","background","",""
"","null","html-keyboard-response","38","58913","0.0-14.0-0.12","SS1604610484008","","null","","","","","","","","","","","","<img src=images/blank.png width =""500"" height = ""500"" style=""border:5px solid black"">","","",""
"","420.7950000127312","stimulus-presentation","39","59545","0.0-14.0-1.12","SS1604610484008","<img src='images/complex/1.png' width ='500' height = '500' style='border:5px solid black'>","40","mixed_complex_deviant","images/simple/4.png","images/simple/12.png","images/complex/14.png,images/complex/17.png,images/complex/6.png,images/complex/10.png,images/complex/13.png,images/complex/4.png,images/complex/1.png","0","null","","200","620.7950000127312","","","","deviant","",""
"","null","html-keyboard-response","40","60824","0.0-14.0-0.13","SS1604610484008","","null","","","","","","","","","","","","<img src=images/blank.png width =""500"" height = ""500"" style=""border:5px solid black"">","","",""
"","951.45500000217","stimulus-presentation","41","61993","0.0-14.0-1.13","SS1604610484008","<img src='images/simple/4.png' width ='500' height = '500' style='border:5px solid black'>","40","mixed_complex_deviant","images/simple/4.png","images/simple/12.png","images/complex/14.png,images/complex/17.png,images/complex/6.png,images/complex/10.png,images/complex/13.png,images/complex/4.png,images/complex/1.png","0","null","","200","1151.45500000217","yes","377.3450000153389","","target","",""
"","null","html-keyboard-response","42","62834","0.0-14.0-0.14","SS1604610484008","","null","","","","","","","","","","","","<img src=images/blank.png width =""500"" height = ""500"" style=""border:5px solid black"">","","",""
"","122.4299999885261","stimulus-presentation","43","63176","0.0-14.0-1.14","SS1604610484008","<img src='images/simple/12.png' width ='500' height = '500' style='border:5px solid black'>","40","mixed_complex_deviant","images/simple/4.png","images/simple/12.png","images/complex/14.png,images/complex/17.png,images/complex/6.png,images/complex/10.png,images/complex/13.png,images/complex/4.png,images/complex/1.png","0","null","","200","322.4299999885261","","","","background","",""
"","null","html-keyboard-response","44","64439","0.0-14.0-0.15","SS1604610484008","","null","","","","","","","","","","","","<img src=images/blank.png width =""500"" height = ""500"" style=""border:5px solid black"">","","",""
"","135.29500001459382","stimulus-presentation","45","64792","0.0-14.0-1.15","SS1604610484008","<img src='images/simple/12.png' width ='500' height = '500' style='border:5px solid black'>","40","mixed_complex_deviant","images/simple/4.png","images/simple/12.png","images/complex/14.png,images/complex/17.png,images/complex/6.png,images/complex/10.png,images/complex/13.png,images/complex/4.png,images/complex/1.png","0","null","","200","335.2950000145938","","","","background","",""
"","null","html-keyboard-response","46","66024","0.0-14.0-0.16","SS1604610484008","","null","","","","","","","","","","","","<img src=images/blank.png width =""500"" height = ""500"" style=""border:5px solid black"">","","",""
"","55.649999994784594","stimulus-presentation","47","66297","0.0-14.0-1.16","SS1604610484008","<img src='images/simple/12.png' width ='500' height = '500' style='border:5px solid black'>","40","mixed_complex_deviant","images/simple/4.png","images/simple/12.png","images/complex/14.png,images/complex/17.png,images/complex/6.png,images/complex/10.png,images/complex/13.png,images/complex/4.png,images/complex/1.png","0","null","","200","255.6499999947846","","","","background","",""
"","null","html-keyboard-response","48","67511","0.0-14.0-0.17","SS1604610484008","","null","","","","","","","","","","","","<img src=images/blank.png width =""500"" height = ""500"" style=""border:5px solid black"">","","",""
"","66.04500001412816","stimulus-presentation","49","67793","0.0-14.0-1.17","SS1604610484008","<img src='images/simple/12.png' width ='500' height = '500' style='border:5px solid black'>","40","mixed_complex_deviant","images/simple/4.png","images/simple/12.png","images/complex/14.png,images/complex/17.png,images/complex/6.png,images/complex/10.png,images/complex/13.png,images/complex/4.png,images/complex/1.png","0","null","","200","266.04500001412816","","","","background","",""
"","null","html-keyboard-response","50","68978","0.0-14.0-0.18","SS1604610484008","","null","","","","","","","","","","","","<img src=images/blank.png width =""500"" height = ""500"" style=""border:5px solid black"">","","",""
"","72.47000001370907","stimulus-presentation","51","69265","0.0-14.0-1.18","SS1604610484008","<img src='images/simple/12.png' width ='500' height = '500' style='border:5px solid black'>","40","mixed_complex_deviant","images/simple/4.png","images/simple/12.png","images/complex/14.png,images/complex/17.png,images/complex/6.png,images/complex/10.png,images/complex/13.png,images/complex/4.png,images/complex/1.png","0","null","","200","272.47000001370907","","","","background","",""
"","null","html-keyboard-response","52","70100","0.0-14.0-0.19","SS1604610484008","","null","","","","","","","","","","","","<img src=images/blank.png width =""500"" height = ""500"" style=""border:5px solid black"">","","",""
"","195.6449999997858","stimulus-presentation","53","70505","0.0-14.0-1.19","SS1604610484008","<img src='images/simple/12.png' width ='500' height = '500' style='border:5px solid black'>","40","mixed_complex_deviant","images/simple/4.png","images/simple/12.png","images/complex/14.png,images/complex/17.png,images/complex/6.png,images/complex/10.png,images/complex/13.png,images/complex/4.png,images/complex/1.png","0","null","","200","395.6449999997858","","","","background","",""
"","null","html-keyboard-response","54","71804","0.0-14.0-0.20","SS1604610484008","","null","","","","","","","","","","","","<img src=images/blank.png width =""500"" height = ""500"" style=""border:5px solid black"">","","",""
"","129.84000000869855","stimulus-presentation","55","72155","0.0-14.0-1.20","SS1604610484008","<img src='images/simple/12.png' width ='500' height = '500' style='border:5px solid black'>","40","mixed_complex_deviant","images/simple/4.png","images/simple/12.png","images/complex/14.png,images/complex/17.png,images/complex/6.png,images/complex/10.png,images/complex/13.png,images/complex/4.png,images/complex/1.png","0","null","","200","329.84000000869855","","","","background","",""
"","null","html-keyboard-response","56","73015","0.0-14.0-0.21","SS1604610484008","","null","","","","","","","","","","","","<img src=images/blank.png width =""500"" height = ""500"" style=""border:5px solid black"">","","",""
"","112.19000001437962","stimulus-presentation","57","73337","0.0-14.0-1.21","SS1604610484008","<img src='images/simple/12.png' width ='500' height = '500' style='border:5px solid black'>","40","mixed_complex_deviant","images/simple/4.png","images/simple/12.png","images/complex/14.png,images/complex/17.png,images/complex/6.png,images/complex/10.png,images/complex/13.png,images/complex/4.png,images/complex/1.png","0","null","","200","312.1900000143796","","","","background","",""
"","null","html-keyboard-response","58","74605","0.0-14.0-0.22","SS1604610484008","","null","","","","","","","","","","","","<img src=images/blank.png width =""500"" height = ""500"" style=""border:5px solid black"">","","",""
"","799.7550000145566","stimulus-presentation","59","75624","0.0-14.0-1.22","SS1604610484008","<img src='images/simple/4.png' width ='500' height = '500' style='border:5px solid black'>","40","mixed_complex_deviant","images/simple/4.png","images/simple/12.png","images/complex/14.png,images/complex/17.png,images/complex/6.png,images/complex/10.png,images/complex/13.png,images/complex/4.png,images/complex/1.png","0","null","","200","999.7550000145566","yes","224.45999999763444","","target","",""
"","null","html-keyboard-response","60","76545","0.0-14.0-0.23","SS1604610484008","","null","","","","","","","","","","","","<img src=images/blank.png width =""500"" height = ""500"" style=""border:5px solid black"">","","",""
"","201.60000000032596","stimulus-presentation","61","76960","0.0-14.0-1.23","SS1604610484008","<img src='images/simple/12.png' width ='500' height = '500' style='border:5px solid black'>","40","mixed_complex_deviant","images/simple/4.png","images/simple/12.png","images/complex/14.png,images/complex/17.png,images/complex/6.png,images/complex/10.png,images/complex/13.png,images/complex/4.png,images/complex/1.png","0","null","","200","401.60000000032596","","","","background","",""
"","null","html-keyboard-response","62","78266","0.0-14.0-0.24","SS1604610484008","","null","","","","","","","","","","","","<img src=images/blank.png width =""500"" height = ""500"" style=""border:5px solid black"">","","",""
"","107.83500000252388","stimulus-presentation","63","78584","0.0-14.0-1.24","SS1604610484008","<img src='images/simple/12.png' width ='500' height = '500' style='border:5px solid black'>","40","mixed_complex_deviant","images/simple/4.png","images/simple/12.png","images/complex/14.png,images/complex/17.png,images/complex/6.png,images/complex/10.png,images/complex/13.png,images/complex/4.png,images/complex/1.png","0","null","","200","307.8350000025239","","","","background","",""
"","null","html-keyboard-response","64","79527","0.0-14.0-0.25","SS1604610484008","","null","","","","","","","","","","","","<img src=images/blank.png width =""500"" height = ""500"" style=""border:5px solid black"">","","",""
"","113.87000000104308","stimulus-presentation","65","79856","0.0-14.0-1.25","SS1604610484008","<img src='images/complex/10.png' width ='500' height = '500' style='border:5px solid black'>","40","mixed_complex_deviant","images/simple/4.png","images/simple/12.png","images/complex/14.png,images/complex/17.png,images/complex/6.png,images/complex/10.png,images/complex/13.png,images/complex/4.png,images/complex/1.png","0","null","","200","313.8700000010431","","","","deviant","",""
"","null","html-keyboard-response","66","81036","0.0-14.0-0.26","SS1604610484008","","null","","","","","","","","","","","","<img src=images/blank.png width =""500"" height = ""500"" style=""border:5px solid black"">","","",""
"","682.4799999885727","stimulus-presentation","67","81929","0.0-14.0-1.26","SS1604610484008","<img src='images/simple/4.png' width ='500' height = '500' style='border:5px solid black'>","40","mixed_complex_deviant","images/simple/4.png","images/simple/12.png","images/complex/14.png,images/complex/17.png,images/complex/6.png,images/complex/10.png,images/complex/13.png,images/complex/4.png,images/complex/1.png","0","null","","200","882.4799999885727","yes","137.74000000557862","","target","",""
"","null","html-keyboard-response","68","83116","0.0-14.0-0.27","SS1604610484008","","null","","","","","","","","","","","","<img src=images/blank.png width =""500"" height = ""500"" style=""border:5px solid black"">","","",""
"","111.99999999371357","stimulus-presentation","69","83443","0.0-14.0-1.27","SS1604610484008","<img src='images/simple/12.png' width ='500' height = '500' style='border:5px solid black'>","40","mixed_complex_deviant","images/simple/4.png","images/simple/12.png","images/complex/14.png,images/complex/17.png,images/complex/6.png,images/complex/10.png,images/complex/13.png,images/complex/4.png,images/complex/1.png","0","null","","200","311.9999999937136","","","","background","",""
"","null","html-keyboard-response","70","84400","0.0-14.0-0.28","SS1604610484008","","null","","","","","","","","","","","","<img src=images/blank.png width =""500"" height = ""500"" style=""border:5px solid black"">","","",""
"","58.43000000459142","stimulus-presentation","71","84674","0.0-14.0-1.28","SS1604610484008","<img src='images/simple/12.png' width ='500' height = '500' style='border:5px solid black'>","40","mixed_complex_deviant","images/simple/4.png","images/simple/12.png","images/complex/14.png,images/complex/17.png,images/complex/6.png,images/complex/10.png,images/complex/13.png,images/complex/4.png,images/complex/1.png","0","null","","200","258.4300000045914","","","","background","",""
"","null","html-keyboard-response","72","85610","0.0-14.0-0.29","SS1604610484008","","null","","","","","","","","","","","","<img src=images/blank.png width =""500"" height = ""500"" style=""border:5px solid black"">","","",""
"","72.2500000265427","stimulus-presentation","73","85898","0.0-14.0-1.29","SS1604610484008","<img src='images/simple/12.png' width ='500' height = '500' style='border:5px solid black'>","40","mixed_complex_deviant","images/simple/4.png","images/simple/12.png","images/complex/14.png,images/complex/17.png,images/complex/6.png,images/complex/10.png,images/complex/13.png,images/complex/4.png,images/complex/1.png","0","null","","200","272.2500000265427","","","","background","",""
"","null","html-keyboard-response","74","87037","0.0-14.0-0.30","SS1604610484008","","null","","","","","","","","","","","","<img src=images/blank.png width =""500"" height = ""500"" style=""border:5px solid black"">","","",""
"","137.37500002025627","stimulus-presentation","75","87394","0.0-14.0-1.30","SS1604610484008","<img src='images/simple/12.png' width ='500' height = '500' style='border:5px solid black'>","40","mixed_complex_deviant","images/simple/4.png","images/simple/12.png","images/complex/14.png,images/complex/17.png,images/complex/6.png,images/complex/10.png,images/complex/13.png,images/complex/4.png,images/complex/1.png","0","null","","200","337.37500002025627","","","","background","",""
"","null","html-keyboard-response","76","88412","0.0-14.0-0.31","SS1604610484008","","null","","","","","","","","","","","","<img src=images/blank.png width =""500"" height = ""500"" style=""border:5px solid black"">","","",""
"","515.4949999996461","stimulus-presentation","77","89138","0.0-14.0-1.31","SS1604610484008","<img src='images/complex/14.png' width ='500' height = '500' style='border:5px solid black'>","40","mixed_complex_deviant","images/simple/4.png","images/simple/12.png","images/complex/14.png,images/complex/17.png,images/complex/6.png,images/complex/10.png,images/complex/13.png,images/complex/4.png,images/complex/1.png","0","null","","200","715.4949999996461","","","","deviant","",""
"","null","html-keyboard-response","78","90420","0.0-14.0-0.32","SS1604610484008","","null","","","","","","","","","","","","<img src=images/blank.png width =""500"" height = ""500"" style=""border:5px solid black"">","","",""
"","97.16999999363907","stimulus-presentation","79","90721","0.0-14.0-1.32","SS1604610484008","<img src='images/simple/12.png' width ='500' height = '500' style='border:5px solid black'>","40","mixed_complex_deviant","images/simple/4.png","images/simple/12.png","images/complex/14.png,images/complex/17.png,images/complex/6.png,images/complex/10.png,images/complex/13.png,images/complex/4.png,images/complex/1.png","0","null","","200","297.16999999363907","","","","background","",""
"","null","html-keyboard-response","80","91547","0.0-14.0-0.33","SS1604610484008","","null","","","","","","","","","","","","<img src=images/blank.png width =""500"" height = ""500"" style=""border:5px solid black"">","","",""
"","74.09499998902902","stimulus-presentation","81","91832","0.0-14.0-1.33","SS1604610484008","<img src='images/simple/12.png' width ='500' height = '500' style='border:5px solid black'>","40","mixed_complex_deviant","images/simple/4.png","images/simple/12.png","images/complex/14.png,images/complex/17.png,images/complex/6.png,images/complex/10.png,images/complex/13.png,images/complex/4.png,images/complex/1.png","0","null","","200","274.094999989029","","","","background","",""
"","null","html-keyboard-response","82","92715","0.0-14.0-0.34","SS1604610484008","","null","","","","","","","","","","","","<img src=images/blank.png width =""500"" height = ""500"" style=""border:5px solid black"">","","",""
"","565.9450000093784","stimulus-presentation","83","93490","0.0-14.0-1.34","SS1604610484008","<img src='images/simple/12.png' width ='500' height = '500' style='border:5px solid black'>","40","mixed_complex_deviant","images/simple/4.png","images/simple/12.png","images/complex/14.png,images/complex/17.png,images/complex/6.png,images/complex/10.png,images/complex/13.png,images/complex/4.png,images/complex/1.png","0","null","","200","765.9450000093784","","","","background","",""
"","null","html-keyboard-response","84","94480","0.0-14.0-0.35","SS1604610484008","","null","","","","","","","","","","","","<img src=images/blank.png width =""500"" height = ""500"" style=""border:5px solid black"">","","",""
"","710.0050000008196","stimulus-presentation","85","95401","0.0-14.0-1.35","SS1604610484008","<img src='images/simple/4.png' width ='500' height = '500' style='border:5px solid black'>","40","mixed_complex_deviant","images/simple/4.png","images/simple/12.png","images/complex/14.png,images/complex/17.png,images/complex/6.png,images/complex/10.png,images/complex/13.png,images/complex/4.png,images/complex/1.png","0","null","","200","910.0050000008196","yes","173.24999999254942","","target","",""
"","null","html-keyboard-response","86","96451","0.0-14.0-0.36","SS1604610484008","","null","","","","","","","","","","","","<img src=images/blank.png width =""500"" height = ""500"" style=""border:5px solid black"">","","",""
"","96.56999999424443","stimulus-presentation","87","96752","0.0-14.0-1.36","SS1604610484008","<img src='images/simple/12.png' width ='500' height = '500' style='border:5px solid black'>","40","mixed_complex_deviant","images/simple/4.png","images/simple/12.png","images/complex/14.png,images/complex/17.png,images/complex/6.png,images/complex/10.png,images/complex/13.png,images/complex/4.png,images/complex/1.png","0","null","","200","296.5699999942444","","","","background","",""
"","null","html-keyboard-response","88","97912","0.0-14.0-0.37","SS1604610484008","","null","","","","","","","","","","","","<img src=images/blank.png width =""500"" height = ""500"" style=""border:5px solid black"">","","",""
"","70.30999998096377","stimulus-presentation","89","98193","0.0-14.0-1.37","SS1604610484008","<img src='images/simple/12.png' width ='500' height = '500' style='border:5px solid black'>","40","mixed_complex_deviant","images/simple/4.png","images/simple/12.png","images/complex/14.png,images/complex/17.png,images/complex/6.png,images/complex/10.png,images/complex/13.png,images/complex/4.png,images/complex/1.png","0","null","","200","270.30999998096377","","","","background","",""
"","null","html-keyboard-response","90","99423","0.0-14.0-0.38","SS1604610484008","","null","","","","","","","","","","","","<img src=images/blank.png width =""500"" height = ""500"" style=""border:5px solid black"">","","",""
"","227.3200000054203","stimulus-presentation","91","99864","0.0-14.0-1.38","SS1604610484008","<img src='images/simple/12.png' width ='500' height = '500' style='border:5px solid black'>","40","mixed_complex_deviant","images/simple/4.png","images/simple/12.png","images/complex/14.png,images/complex/17.png,images/complex/6.png,images/complex/10.png,images/complex/13.png,images/complex/4.png,images/complex/1.png","0","null","","200","427.3200000054203","","","","background","",""
"","null","html-keyboard-response","92","101152","0.0-14.0-0.39","SS1604610484008","","null","","","","","","","","","","","","<img src=images/blank.png width =""500"" height = ""500"" style=""border:5px solid black"">","","",""
"","68.85499999043532","stimulus-presentation","93","101441","0.0-14.0-1.39","SS1604610484008","<img src='images/complex/17.png' width ='500' height = '500' style='border:5px solid black'>","40","mixed_complex_deviant","images/simple/4.png","images/simple/12.png","images/complex/14.png,images/complex/17.png,images/complex/6.png,images/complex/10.png,images/complex/13.png,images/complex/4.png,images/complex/1.png","0","null","","200","268.8549999904353","","","","deviant","",""
"","null","html-keyboard-response","94","102423","0.0-14.0-0.40","SS1604610484008","","null","","","","","","","","","","","","<img src=images/blank.png width =""500"" height = ""500"" style=""border:5px solid black"">","","",""
"","481.29500000504777","stimulus-presentation","95","103121","0.0-14.0-1.40","SS1604610484008","<img src='images/simple/4.png' width ='500' height = '500' style='border:5px solid black'>","40","mixed_complex_deviant","images/simple/4.png","images/simple/12.png","images/complex/14.png,images/complex/17.png,images/complex/6.png,images/complex/10.png,images/complex/13.png,images/complex/4.png,images/complex/1.png","0","null","","200","681.2950000050478","yes","113.42499998863786","","target","",""
"","null","html-keyboard-response","96","104106","0.0-14.0-0.41","SS1604610484008","","null","","","","","","","","","","","","<img src=images/blank.png width =""500"" height = ""500"" style=""border:5px solid black"">","","",""
"","128.58499999856576","stimulus-presentation","97","104451","0.0-14.0-1.41","SS1604610484008","<img src='images/simple/12.png' width ='500' height = '500' style='border:5px solid black'>","40","mixed_complex_deviant","images/simple/4.png","images/simple/12.png","images/complex/14.png,images/complex/17.png,images/complex/6.png,images/complex/10.png,images/complex/13.png,images/complex/4.png,images/complex/1.png","0","null","","200","328.58499999856576","","","","background","",""
"","null","html-keyboard-response","98","105377","0.0-14.0-0.42","SS1604610484008","","null","","","","","","","","","","","","<img src=images/blank.png width =""500"" height = ""500"" style=""border:5px solid black"">","","",""
"","19.379999983357266","stimulus-presentation","99","105609","0.0-14.0-1.42","SS1604610484008","<img src='images/simple/12.png' width ='500' height = '500' style='border:5px solid black'>","40","mixed_complex_deviant","images/simple/4.png","images/simple/12.png","images/complex/14.png,images/complex/17.png,images/complex/6.png,images/complex/10.png,images/complex/13.png,images/complex/4.png,images/complex/1.png","0","null","","200","219.37999998335727","","","","background","",""
"","null","html-keyboard-response","100","106904","0.0-14.0-0.43","SS1604610484008","","null","","","","","","","","","","","","<img src=images/blank.png width =""500"" height = ""500"" style=""border:5px solid black"">","","",""
"","92.190000024857","stimulus-presentation","101","107216","0.0-14.0-1.43","SS1604610484008","<img src='images/simple/12.png' width ='500' height = '500' style='border:5px solid black'>","40","mixed_complex_deviant","images/simple/4.png","images/simple/12.png","images/complex/14.png,images/complex/17.png,images/complex/6.png,images/complex/10.png,images/complex/13.png,images/complex/4.png,images/complex/1.png","0","null","","200","292.190000024857","","","","background","",""
"","null","html-keyboard-response","102","108111","0.0-14.0-0.44","SS1604610484008","","null","","","","","","","","","","","","<img src=images/blank.png width =""500"" height = ""500"" style=""border:5px solid black"">","","",""
"","30.510000011418015","stimulus-presentation","103","108353","0.0-14.0-1.44","SS1604610484008","<img src='images/simple/12.png' width ='500' height = '500' style='border:5px solid black'>","40","mixed_complex_deviant","images/simple/4.png","images/simple/12.png","images/complex/14.png,images/complex/17.png,images/complex/6.png,images/complex/10.png,images/complex/13.png,images/complex/4.png,images/complex/1.png","0","null","","200","230.51000001141801","","","","background","",""
"","null","html-keyboard-response","104","109324","0.0-14.0-0.45","SS1604610484008","","null","","","","","","","","","","","","<img src=images/blank.png width =""500"" height = ""500"" style=""border:5px solid black"">","","",""
"","573.9449999819044","stimulus-presentation","105","110113","0.0-14.0-1.45","SS1604610484008","<img src='images/simple/4.png' width ='500' height = '500' style='border:5px solid black'>","40","mixed_complex_deviant","images/simple/4.png","images/simple/12.png","images/complex/14.png,images/complex/17.png,images/complex/6.png,images/complex/10.png,images/complex/13.png,images/complex/4.png,images/complex/1.png","0","null","","200","773.9449999819044","yes","221.81999997701496","","target","",""
"","null","html-keyboard-response","106","111354","0.0-14.0-0.46","SS1604610484008","","null","","","","","","","","","","","","<img src=images/blank.png width =""500"" height = ""500"" style=""border:5px solid black"">","","",""
"","93.15000000060536","stimulus-presentation","107","111665","0.0-14.0-1.46","SS1604610484008","<img src='images/simple/12.png' width ='500' height = '500' style='border:5px solid black'>","40","mixed_complex_deviant","images/simple/4.png","images/simple/12.png","images/complex/14.png,images/complex/17.png,images/complex/6.png,images/complex/10.png,images/complex/13.png,images/complex/4.png,images/complex/1.png","0","null","","200","293.15000000060536","","","","background","",""
"","null","html-keyboard-response","108","112724","0.0-14.0-0.47","SS1604610484008","","null","","","","","","","","","","","","<img src=images/blank.png width =""500"" height = ""500"" style=""border:5px solid black"">","","",""
"","110.16500002006069","stimulus-presentation","109","113049","0.0-14.0-1.47","SS1604610484008","<img src='images/simple/12.png' width ='500' height = '500' style='border:5px solid black'>","40","mixed_complex_deviant","images/simple/4.png","images/simple/12.png","images/complex/14.png,images/complex/17.png,images/complex/6.png,images/complex/10.png,images/complex/13.png,images/complex/4.png,images/complex/1.png","0","null","","200","310.1650000200607","","","","background","",""
"","null","html-keyboard-response","110","114039","0.0-14.0-0.48","SS1604610484008","","null","","","","","","","","","","","","<img src=images/blank.png width =""500"" height = ""500"" style=""border:5px solid black"">","","",""
"","169.10999998799525","stimulus-presentation","111","114425","0.0-14.0-1.48","SS1604610484008","<img src='images/simple/12.png' width ='500' height = '500' style='border:5px solid black'>","40","mixed_complex_deviant","images/simple/4.png","images/simple/12.png","images/complex/14.png,images/complex/17.png,images/complex/6.png,images/complex/10.png,images/complex/13.png,images/complex/4.png,images/complex/1.png","0","null","","200","369.10999998799525","","","","background","",""
"[{""page_index"":0,""viewing_time"":2261}]","2261","task-instructions","112","116697","0.0-15.0","SS1604610484008","","","","","","","","","","","","","","","","",""
"[{""page_index"":0,""viewing_time"":874.7049999947194},{""page_index"":1,""viewing_time"":2051.995000016177},{""page_index"":2,""viewing_time"":1115.9349999797996}]","4043.024999991758","instructions","113","120743","0.0-16.0","SS1604610484008","","","","","","","","","","","","","","","","",""
"","null","html-keyboard-response","114","121610","0.0-17.0-0.0","SS1604610484008","","null","","","","","","","","","","","","<img src=images/blank.png width =""500"" height = ""500"" style=""border:5px solid black"">","","",""
"","1017.6149999897461","stimulus-presentation","115","122840","0.0-17.0-1.0","SS1604610484008","<img src='images/complex/11.png' width ='500' height = '500' style='border:5px solid black'>","40","all_complex","images/complex/11.png","images/complex/18.png","images/complex/2.png,images/complex/7.png,images/complex/3.png,images/complex/16.png,images/complex/8.png,images/complex/5.png,images/complex/15.png","1","null","","200","1217.6149999897461","yes","433.58499999158084","","target","",""
"","null","html-keyboard-response","116","123694","0.0-17.0-0.1","SS1604610484008","","null","","","","","","","","","","","","<img src=images/blank.png width =""500"" height = ""500"" style=""border:5px solid black"">","","",""
"","152.07500001997687","stimulus-presentation","117","124056","0.0-17.0-1.1","SS1604610484008","<img src='images/complex/18.png' width ='500' height = '500' style='border:5px solid black'>","40","all_complex","images/complex/11.png","images/complex/18.png","images/complex/2.png,images/complex/7.png,images/complex/3.png,images/complex/16.png,images/complex/8.png,images/complex/5.png,images/complex/15.png","1","null","","200","352.07500001997687","","","","background","",""
"","null","html-keyboard-response","118","124926","0.0-17.0-0.2","SS1604610484008","","null","","","","","","","","","","","","<img src=images/blank.png width =""500"" height = ""500"" style=""border:5px solid black"">","","",""
"","110.4650000052061","stimulus-presentation","119","125248","0.0-17.0-1.2","SS1604610484008","<img src='images/complex/18.png' width ='500' height = '500' style='border:5px solid black'>","40","all_complex","images/complex/11.png","images/complex/18.png","images/complex/2.png,images/complex/7.png,images/complex/3.png,images/complex/16.png,images/complex/8.png,images/complex/5.png,images/complex/15.png","1","null","","200","310.4650000052061","","","","background","",""
"","null","html-keyboard-response","120","126205","0.0-17.0-0.3","SS1604610484008","","null","","","","","","","","","","","","<img src=images/blank.png width =""500"" height = ""500"" style=""border:5px solid black"">","","",""
"","124.23499999567866","stimulus-presentation","121","126545","0.0-17.0-1.3","SS1604610484008","<img src='images/complex/2.png' width ='500' height = '500' style='border:5px solid black'>","40","all_complex","images/complex/11.png","images/complex/18.png","images/complex/2.png,images/complex/7.png,images/complex/3.png,images/complex/16.png,images/complex/8.png,images/complex/5.png,images/complex/15.png","1","null","","200","324.23499999567866","","","","deviant","",""
"","null","html-keyboard-response","122","127381","0.0-17.0-0.4","SS1604610484008","","null","","","","","","","","","","","","<img src=images/blank.png width =""500"" height = ""500"" style=""border:5px solid black"">","","",""
"","80.8649999962654","stimulus-presentation","123","127683","0.0-17.0-1.4","SS1604610484008","<img src='images/complex/11.png' width ='500' height = '500' style='border:5px solid black'>","40","all_complex","images/complex/11.png","images/complex/18.png","images/complex/2.png,images/complex/7.png,images/complex/3.png,images/complex/16.png,images/complex/8.png,images/complex/5.png,images/complex/15.png","1","null","","200","280.8649999962654","","","","target","",""
"","null","html-keyboard-response","124","128715","0.0-17.0-0.5","SS1604610484008","","null","","","","","","","","","","","","<img src=images/blank.png width =""500"" height = ""500"" style=""border:5px solid black"">","","",""
"","103.88999999850057","stimulus-presentation","125","129040","0.0-17.0-1.5","SS1604610484008","<img src='images/complex/18.png' width ='500' height = '500' style='border:5px solid black'>","40","all_complex","images/complex/11.png","images/complex/18.png","images/complex/2.png,images/complex/7.png,images/complex/3.png,images/complex/16.png,images/complex/8.png,images/complex/5.png,images/complex/15.png","1","null","","200","303.88999999850057","","","","background","",""
"","null","html-keyboard-response","126","130346","0.0-17.0-0.6","SS1604610484008","","null","","","","","","","","","","","","<img src=images/blank.png width =""500"" height = ""500"" style=""border:5px solid black"">","","",""
"","108.94499998539686","stimulus-presentation","127","130665","0.0-17.0-1.6","SS1604610484008","<img src='images/complex/18.png' width ='500' height = '500' style='border:5px solid black'>","40","all_complex","images/complex/11.png","images/complex/18.png","images/complex/2.png,images/complex/7.png,images/complex/3.png,images/complex/16.png,images/complex/8.png,images/complex/5.png,images/complex/15.png","1","null","","200","308.94499998539686","","","","background","",""
"","null","html-keyboard-response","128","131777","0.0-17.0-0.7","SS1604610484008","","null","","","","","","","","","","","","<img src=images/blank.png width =""500"" height = ""500"" style=""border:5px solid black"">","","",""
"","117.75499998475425","stimulus-presentation","129","132105","0.0-17.0-1.7","SS1604610484008","<img src='images/complex/18.png' width ='500' height = '500' style='border:5px solid black'>","40","all_complex","images/complex/11.png","images/complex/18.png","images/complex/2.png,images/complex/7.png,images/complex/3.png,images/complex/16.png,images/complex/8.png,images/complex/5.png,images/complex/15.png","1","null","","200","317.75499998475425","","","","background","",""
"","null","html-keyboard-response","130","132932","0.0-17.0-0.8","SS1604610484008","","null","","","","","","","","","","","","<img src=images/blank.png width =""500"" height = ""500"" style=""border:5px solid black"">","","",""
"","102.46999998344108","stimulus-presentation","131","133256","0.0-17.0-1.8","SS1604610484008","<img src='images/complex/18.png' width ='500' height = '500' style='border:5px solid black'>","40","all_complex","images/complex/11.png","images/complex/18.png","images/complex/2.png,images/complex/7.png,images/complex/3.png,images/complex/16.png,images/complex/8.png,images/complex/5.png,images/complex/15.png","1","null","","200","302.4699999834411","","","","background","",""
"","null","html-keyboard-response","132","134097","0.0-17.0-0.9","SS1604610484008","","null","","","","","","","","","","","","<img src=images/blank.png width =""500"" height = ""500"" style=""border:5px solid black"">","","",""
"","497.9449999809731","stimulus-presentation","133","134816","0.0-17.0-1.9","SS1604610484008","<img src='images/complex/11.png' width ='500' height = '500' style='border:5px solid black'>","40","all_complex","images/complex/11.png","images/complex/18.png","images/complex/2.png,images/complex/7.png,images/complex/3.png,images/complex/16.png,images/complex/8.png,images/complex/5.png,images/complex/15.png","1","null","","200","697.9449999809731","yes","193.61999997636303","","target","",""
"","null","html-keyboard-response","134","135707","0.0-17.0-0.10","SS1604610484008","","null","","","","","","","","","","","","<img src=images/blank.png width =""500"" height = ""500"" style=""border:5px solid black"">","","",""
"","120.45499999658205","stimulus-presentation","135","136040","0.0-17.0-1.10","SS1604610484008","<img src='images/complex/18.png' width ='500' height = '500' style='border:5px solid black'>","40","all_complex","images/complex/11.png","images/complex/18.png","images/complex/2.png,images/complex/7.png,images/complex/3.png,images/complex/16.png,images/complex/8.png,images/complex/5.png,images/complex/15.png","1","null","","200","320.45499999658205","","","","background","",""
"","null","html-keyboard-response","136","137132","0.0-17.0-0.11","SS1604610484008","","null","","","","","","","","","","","","<img src=images/blank.png width =""500"" height = ""500"" style=""border:5px solid black"">","","",""
"","167.97500001848675","stimulus-presentation","137","137520","0.0-17.0-1.11","SS1604610484008","<img src='images/complex/18.png' width ='500' height = '500' style='border:5px solid black'>","40","all_complex","images/complex/11.png","images/complex/18.png","images/complex/2.png,images/complex/7.png,images/complex/3.png,images/complex/16.png,images/complex/8.png,images/complex/5.png,images/complex/15.png","1","null","","200","367.97500001848675","","","","background","",""
"","null","html-keyboard-response","138","138425","0.0-17.0-0.12","SS1604610484008","","null","","","","","","","","","","","","<img src=images/blank.png width =""500"" height = ""500"" style=""border:5px solid black"">","","",""
"","508.18999999319203","stimulus-presentation","139","139144","0.0-17.0-1.12","SS1604610484008","<img src='images/complex/11.png' width ='500' height = '500' style='border:5px solid black'>","40","all_complex","images/complex/11.png","images/complex/18.png","images/complex/2.png,images/complex/7.png,images/complex/3.png,images/complex/16.png,images/complex/8.png,images/complex/5.png,images/complex/15.png","1","null","","200","708.189999993192","yes","269.5149999926798","","target","",""
"","null","html-keyboard-response","140","140412","0.0-17.0-0.13","SS1604610484008","","null","","","","","","","","","","","","<img src=images/blank.png width =""500"" height = ""500"" style=""border:5px solid black"">","","",""
"","133.1800000043586","stimulus-presentation","141","140752","0.0-17.0-1.13","SS1604610484008","<img src='images/complex/18.png' width ='500' height = '500' style='border:5px solid black'>","40","all_complex","images/complex/11.png","images/complex/18.png","images/complex/2.png,images/complex/7.png,images/complex/3.png,images/complex/16.png,images/complex/8.png,images/complex/5.png,images/complex/15.png","1","null","","200","333.1800000043586","","","","background","",""
"","null","html-keyboard-response","142","141679","0.0-17.0-0.14","SS1604610484008","","null","","","","","","","","","","","","<img src=images/blank.png width =""500"" height = ""500"" style=""border:5px solid black"">","","",""
"","129.30499998037703","stimulus-presentation","143","142032","0.0-17.0-1.14","SS1604610484008","<img src='images/complex/7.png' width ='500' height = '500' style='border:5px solid black'>","40","all_complex","images/complex/11.png","images/complex/18.png","images/complex/2.png,images/complex/7.png,images/complex/3.png,images/complex/16.png,images/complex/8.png,images/complex/5.png,images/complex/15.png","1","null","","200","329.30499998037703","","","","deviant","",""
"","null","html-keyboard-response","144","143300","0.0-17.0-0.15","SS1604610484008","","null","","","","","","","","","","","","<img src=images/blank.png width =""500"" height = ""500"" style=""border:5px solid black"">","","",""
"","144.44500001263805","stimulus-presentation","145","143664","0.0-17.0-1.15","SS1604610484008","<img src='images/complex/18.png' width ='500' height = '500' style='border:5px solid black'>","40","all_complex","images/complex/11.png","images/complex/18.png","images/complex/2.png,images/complex/7.png,images/complex/3.png,images/complex/16.png,images/complex/8.png,images/complex/5.png,images/complex/15.png","1","null","","200","344.44500001263805","","","","background","",""
"","null","html-keyboard-response","146","144737","0.0-17.0-0.16","SS1604610484008","","null","","","","","","","","","","","","<img src=images/blank.png width =""500"" height = ""500"" style=""border:5px solid black"">","","",""
"","168.69999998016283","stimulus-presentation","147","145137","0.0-17.0-1.16","SS1604610484008","<img src='images/complex/18.png' width ='500' height = '500' style='border:5px solid black'>","40","all_complex","images/complex/11.png","images/complex/18.png","images/complex/2.png,images/complex/7.png,images/complex/3.png,images/complex/16.png,images/complex/8.png,images/complex/5.png,images/complex/15.png","1","null","","200","368.69999998016283","","","","background","",""
"","null","html-keyboard-response","148","146307","0.0-17.0-0.17","SS1604610484008","","null","","","","","","","","","","","","<img src=images/blank.png width =""500"" height = ""500"" style=""border:5px solid black"">","","",""
"","226.64499998791143","stimulus-presentation","149","146761","0.0-17.0-1.17","SS1604610484008","<img src='images/complex/15.png' width ='500' height = '500' style='border:5px solid black'>","40","all_complex","images/complex/11.png","images/complex/18.png","images/complex/2.png,images/complex/7.png,images/complex/3.png,images/complex/16.png,images/complex/8.png,images/complex/5.png,images/complex/15.png","1","null","","200","426.64499998791143","","","","deviant","",""
"","null","html-keyboard-response","150","147739","0.0-17.0-0.18","SS1604610484008","","null","","","","","","","","","","","","<img src=images/blank.png width =""500"" height = ""500"" style=""border:5px solid black"">","","",""
"","128.60000002547167","stimulus-presentation","151","148081","0.0-17.0-1.18","SS1604610484008","<img src='images/complex/18.png' width ='500' height = '500' style='border:5px solid black'>","40","all_complex","images/complex/11.png","images/complex/18.png","images/complex/2.png,images/complex/7.png,images/complex/3.png,images/complex/16.png,images/complex/8.png,images/complex/5.png,images/complex/15.png","1","null","","200","328.6000000254717","","","","background","",""
"","null","html-keyboard-response","152","148911","0.0-17.0-0.19","SS1604610484008","","null","","","","","","","","","","","","<img src=images/blank.png width =""500"" height = ""500"" style=""border:5px solid black"">","","",""
"","164.69500001403503","stimulus-presentation","153","149285","0.0-17.0-1.19","SS1604610484008","<img src='images/complex/18.png' width ='500' height = '500' style='border:5px solid black'>","40","all_complex","images/complex/11.png","images/complex/18.png","images/complex/2.png,images/complex/7.png,images/complex/3.png,images/complex/16.png,images/complex/8.png,images/complex/5.png,images/complex/15.png","1","null","","200","364.69500001403503","","","","background","",""
"","null","html-keyboard-response","154","150143","0.0-17.0-0.20","SS1604610484008","","null","","","","","","","","","","","","<img src=images/blank.png width =""500"" height = ""500"" style=""border:5px solid black"">","","",""
"","551.2800000142306","stimulus-presentation","155","150905","0.0-17.0-1.20","SS1604610484008","<img src='images/complex/11.png' width ='500' height = '500' style='border:5px solid black'>","40","all_complex","images/complex/11.png","images/complex/18.png","images/complex/2.png,images/complex/7.png,images/complex/3.png,images/complex/16.png,images/complex/8.png,images/complex/5.png,images/complex/15.png","1","null","","200","751.2800000142306","yes","223.46000000834465","","target","",""
"","null","html-keyboard-response","156","152200","0.0-17.0-0.21","SS1604610484008","","null","","","","","","","","","","","","<img src=images/blank.png width =""500"" height = ""500"" style=""border:5px solid black"">","","",""
"","30.484999995678663","stimulus-presentation","157","152449","0.0-17.0-1.21","SS1604610484008","<img src='images/complex/18.png' width ='500' height = '500' style='border:5px solid black'>","40","all_complex","images/complex/11.png","images/complex/18.png","images/complex/2.png,images/complex/7.png,images/complex/3.png,images/complex/16.png,images/complex/8.png,images/complex/5.png,images/complex/15.png","1","null","","200","230.48499999567866","","","","background","",""
"","null","html-keyboard-response","158","153303","0.0-17.0-0.22","SS1604610484008","","null","","","","","","","","","","","","<img src=images/blank.png width =""500"" height = ""500"" style=""border:5px solid black"">","","",""
"","131.15999998990446","stimulus-presentation","159","153649","0.0-17.0-1.22","SS1604610484008","<img src='images/complex/5.png' width ='500' height = '500' style='border:5px solid black'>","40","all_complex","images/complex/11.png","images/complex/18.png","images/complex/2.png,images/complex/7.png,images/complex/3.png,images/complex/16.png,images/complex/8.png,images/complex/5.png,images/complex/15.png","1","null","","200","331.15999998990446","","","","deviant","",""
"","null","html-keyboard-response","160","154618","0.0-17.0-0.23","SS1604610484008","","null","","","","","","","","","","","","<img src=images/blank.png width =""500"" height = ""500"" style=""border:5px solid black"">","","",""
"","93.29499999876134","stimulus-presentation","161","154928","0.0-17.0-1.23","SS1604610484008","<img src='images/complex/18.png' width ='500' height = '500' style='border:5px solid black'>","40","all_complex","images/complex/11.png","images/complex/18.png","images/complex/2.png,images/complex/7.png,images/complex/3.png,images/complex/16.png,images/complex/8.png,images/complex/5.png,images/complex/15.png","1","null","","200","293.29499999876134","","","","background","",""
"","null","html-keyboard-response","162","156073","0.0-17.0-0.24","SS1604610484008","","null","","","","","","","","","","","","<img src=images/blank.png width =""500"" height = ""500"" style=""border:5px solid black"">","","",""
"","276.64999998523854","stimulus-presentation","163","156562","0.0-17.0-1.24","SS1604610484008","<img src='images/complex/18.png' width ='500' height = '500' style='border:5px solid black'>","40","all_complex","images/complex/11.png","images/complex/18.png","images/complex/2.png,images/complex/7.png,images/complex/3.png,images/complex/16.png,images/complex/8.png,images/complex/5.png,images/complex/15.png","1","null","","200","476.64999998523854","","","","background","",""
"","null","html-keyboard-response","164","157741","0.0-17.0-0.25","SS1604610484008","","null","","","","","","","","","","","","<img src=images/blank.png width =""500"" height = ""500"" style=""border:5px solid black"">","","",""
"","128.38000000920147","stimulus-presentation","165","158096","0.0-17.0-1.25","SS1604610484008","<img src='images/complex/18.png' width ='500' height = '500' style='border:5px solid black'>","40","all_complex","images/complex/11.png","images/complex/18.png","images/complex/2.png,images/complex/7.png,images/complex/3.png,images/complex/16.png,images/complex/8.png,images/complex/5.png,images/complex/15.png","1","null","","200","328.38000000920147","","","","background","",""
"","null","html-keyboard-response","166","159287","0.0-17.0-0.26","SS1604610484008","","null","","","","","","","","","","","","<img src=images/blank.png width =""500"" height = ""500"" style=""border:5px solid black"">","","",""
"","236.47499998332933","stimulus-presentation","167","159737","0.0-17.0-1.26","SS1604610484008","<img src='images/complex/8.png' width ='500' height = '500' style='border:5px solid black'>","40","all_complex","images/complex/11.png","images/complex/18.png","images/complex/2.png,images/complex/7.png,images/complex/3.png,images/complex/16.png,images/complex/8.png,images/complex/5.png,images/complex/15.png","1","null","","200","436.4749999833293","","","","deviant","",""
"","null","html-keyboard-response","168","160921","0.0-17.0-0.27","SS1604610484008","","null","","","","","","","","","","","","<img src=images/blank.png width =""500"" height = ""500"" style=""border:5px solid black"">","","",""
"","104.80500000994653","stimulus-presentation","169","161240","0.0-17.0-1.27","SS1604610484008","<img src='images/complex/18.png' width ='500' height = '500' style='border:5px solid black'>","40","all_complex","images/complex/11.png","images/complex/18.png","images/complex/2.png,images/complex/7.png,images/complex/3.png,images/complex/16.png,images/complex/8.png,images/complex/5.png,images/complex/15.png","1","null","","200","304.8050000099465","","","","background","",""
"","null","html-keyboard-response","170","162469","0.0-17.0-0.28","SS1604610484008","","null","","","","","","","","","","","","<img src=images/blank.png width =""500"" height = ""500"" style=""border:5px solid black"">","","",""
"","107.96999998274259","stimulus-presentation","171","162792","0.0-17.0-1.28","SS1604610484008","<img src='images/complex/18.png' width ='500' height = '500' style='border:5px solid black'>","40","all_complex","images/complex/11.png","images/complex/18.png","images/complex/2.png,images/complex/7.png,images/complex/3.png,images/complex/16.png,images/complex/8.png,images/complex/5.png,images/complex/15.png","1","null","","200","307.9699999827426","","","","background","",""
"","null","html-keyboard-response","172","163814","0.0-17.0-0.29","SS1604610484008","","null","","","","","","","","","","","","<img src=images/blank.png width =""500"" height = ""500"" style=""border:5px solid black"">","","",""
"","55.259999993722886","stimulus-presentation","173","164088","0.0-17.0-1.29","SS1604610484008","<img src='images/complex/18.png' width ='500' height = '500' style='border:5px solid black'>","40","all_complex","images/complex/11.png","images/complex/18.png","images/complex/2.png,images/complex/7.png,images/complex/3.png,images/complex/16.png,images/complex/8.png,images/complex/5.png,images/complex/15.png","1","null","","200","255.2599999937229","","","","background","",""
"","null","html-keyboard-response","174","165006","0.0-17.0-0.30","SS1604610484008","","null","","","","","","","","","","","","<img src=images/blank.png width =""500"" height = ""500"" style=""border:5px solid black"">","","",""
"","62.9649999900721","stimulus-presentation","175","165281","0.0-17.0-1.30","SS1604610484008","<img src='images/complex/18.png' width ='500' height = '500' style='border:5px solid black'>","40","all_complex","images/complex/11.png","images/complex/18.png","images/complex/2.png,images/complex/7.png,images/complex/3.png,images/complex/16.png,images/complex/8.png,images/complex/5.png,images/complex/15.png","1","null","","200","262.9649999900721","","","","background","",""
"","null","html-keyboard-response","176","166503","0.0-17.0-0.31","SS1604610484008","","null","","","","","","","","","","","","<img src=images/blank.png width =""500"" height = ""500"" style=""border:5px solid black"">","","",""
"","74.27000001189299","stimulus-presentation","177","166792","0.0-17.0-1.31","SS1604610484008","<img src='images/complex/18.png' width ='500' height = '500' style='border:5px solid black'>","40","all_complex","images/complex/11.png","images/complex/18.png","images/complex/2.png,images/complex/7.png,images/complex/3.png,images/complex/16.png,images/complex/8.png,images/complex/5.png,images/complex/15.png","1","null","","200","274.270000011893","","","","background","",""
"","null","html-keyboard-response","178","167647","0.0-17.0-0.32","SS1604610484008","","null","","","","","","","","","","","","<img src=images/blank.png width =""500"" height = ""500"" style=""border:5px solid black"">","","",""
"","61.17499998072162","stimulus-presentation","179","167929","0.0-17.0-1.32","SS1604610484008","<img src='images/complex/18.png' width ='500' height = '500' style='border:5px solid black'>","40","all_complex","images/complex/11.png","images/complex/18.png","images/complex/2.png,images/complex/7.png,images/complex/3.png,images/complex/16.png,images/complex/8.png,images/complex/5.png,images/complex/15.png","1","null","","200","261.1749999807216","","","","background","",""
"","null","html-keyboard-response","180","169175","0.0-17.0-0.33","SS1604610484008","","null","","","","","","","","","","","","<img src=images/blank.png width =""500"" height = ""500"" style=""border:5px solid black"">","","",""
"","95.08500000811182","stimulus-presentation","181","169497","0.0-17.0-1.33","SS1604610484008","<img src='images/complex/16.png' width ='500' height = '500' style='border:5px solid black'>","40","all_complex","images/complex/11.png","images/complex/18.png","images/complex/2.png,images/complex/7.png,images/complex/3.png,images/complex/16.png,images/complex/8.png,images/complex/5.png,images/complex/15.png","1","null","","200","295.0850000081118","","","","deviant","",""
"","null","html-keyboard-response","182","170720","0.0-17.0-0.34","SS1604610484008","","null","","","","","","","","","","","","<img src=images/blank.png width =""500"" height = ""500"" style=""border:5px solid black"">","","",""
"","218.0450000159908","stimulus-presentation","183","171152","0.0-17.0-1.34","SS1604610484008","<img src='images/complex/18.png' width ='500' height = '500' style='border:5px solid black'>","40","all_complex","images/complex/11.png","images/complex/18.png","images/complex/2.png,images/complex/7.png,images/complex/3.png,images/complex/16.png,images/complex/8.png,images/complex/5.png,images/complex/15.png","1","null","","200","418.0450000159908","","","","background","",""
"","null","html-keyboard-response","184","172418","0.0-17.0-0.35","SS1604610484008","","null","","","","","","","","","","","","<img src=images/blank.png width =""500"" height = ""500"" style=""border:5px solid black"">","","",""
"","94.10499999648891","stimulus-presentation","185","172728","0.0-17.0-1.35","SS1604610484008","<img src='images/complex/18.png' width ='500' height = '500' style='border:5px solid black'>","40","all_complex","images/complex/11.png","images/complex/18.png","images/complex/2.png,images/complex/7.png,images/complex/3.png,images/complex/16.png,images/complex/8.png,images/complex/5.png,images/complex/15.png","1","null","","200","294.1049999964889","","","","background","",""
"","null","html-keyboard-response","186","173698","0.0-17.0-0.36","SS1604610484008","","null","","","","","","","","","","","","<img src=images/blank.png width =""500"" height = ""500"" style=""border:5px solid black"">","","",""
"","108.25999997905456","stimulus-presentation","187","174024","0.0-17.0-1.36","SS1604610484008","<img src='images/complex/18.png' width ='500' height = '500' style='border:5px solid black'>","40","all_complex","images/complex/11.png","images/complex/18.png","images/complex/2.png,images/complex/7.png,images/complex/3.png,images/complex/16.png,images/complex/8.png,images/complex/5.png,images/complex/15.png","1","null","","200","308.25999997905456","","","","background","",""
"","null","html-keyboard-response","188","174845","0.0-17.0-0.37","SS1604610484008","","null","","","","","","","","","","","","<img src=images/blank.png width =""500"" height = ""500"" style=""border:5px solid black"">","","",""
"","62.91499998769723","stimulus-presentation","189","175129","0.0-17.0-1.37","SS1604610484008","<img src='images/complex/18.png' width ='500' height = '500' style='border:5px solid black'>","40","all_complex","images/complex/11.png","images/complex/18.png","images/complex/2.png,images/complex/7.png,images/complex/3.png,images/complex/16.png,images/complex/8.png,images/complex/5.png,images/complex/15.png","1","null","","200","262.91499998769723","","","","background","",""
"","null","html-keyboard-response","190","176132","0.0-17.0-0.38","SS1604610484008","","null","","","","","","","","","","","","<img src=images/blank.png width =""500"" height = ""500"" style=""border:5px solid black"">","","",""
"","98.99999998742715","stimulus-presentation","191","176449","0.0-17.0-1.38","SS1604610484008","<img src='images/complex/18.png' width ='500' height = '500' style='border:5px solid black'>","40","all_complex","images/complex/11.png","images/complex/18.png","images/complex/2.png,images/complex/7.png,images/complex/3.png,images/complex/16.png,images/complex/8.png,images/complex/5.png,images/complex/15.png","1","null","","200","298.99999998742715","","","","background","",""
"","null","html-keyboard-response","192","177466","0.0-17.0-0.39","SS1604610484008","","null","","","","","","","","","","","","<img src=images/blank.png width =""500"" height = ""500"" style=""border:5px solid black"">","","",""
"","181.74500000895932","stimulus-presentation","193","177865","0.0-17.0-1.39","SS1604610484008","<img src='images/complex/3.png' width ='500' height = '500' style='border:5px solid black'>","40","all_complex","images/complex/11.png","images/complex/18.png","images/complex/2.png,images/complex/7.png,images/complex/3.png,images/complex/16.png,images/complex/8.png,images/complex/5.png,images/complex/15.png","1","null","","200","381.7450000089593","","","","deviant","",""
"","null","html-keyboard-response","194","178788","0.0-17.0-0.40","SS1604610484008","","null","","","","","","","","","","","","<img src=images/blank.png width =""500"" height = ""500"" style=""border:5px solid black"">","","",""
"","144.2500000121072","stimulus-presentation","195","179145","0.0-17.0-1.40","SS1604610484008","<img src='images/complex/18.png' width ='500' height = '500' style='border:5px solid black'>","40","all_complex","images/complex/11.png","images/complex/18.png","images/complex/2.png,images/complex/7.png,images/complex/3.png,images/complex/16.png,images/complex/8.png,images/complex/5.png,images/complex/15.png","1","null","","200","344.2500000121072","","","","background","",""
"","null","html-keyboard-response","196","180351","0.0-17.0-0.41","SS1604610484008","","null","","","","","","","","","","","","<img src=images/blank.png width =""500"" height = ""500"" style=""border:5px solid black"">","","",""
"","113.68499998934567","stimulus-presentation","197","180681","0.0-17.0-1.41","SS1604610484008","<img src='images/complex/18.png' width ='500' height = '500' style='border:5px solid black'>","40","all_complex","images/complex/11.png","images/complex/18.png","images/complex/2.png,images/complex/7.png,images/complex/3.png,images/complex/16.png,images/complex/8.png,images/complex/5.png,images/complex/15.png","1","null","","200","313.68499998934567","","","","background","",""
"","null","html-keyboard-response","198","181697","0.0-17.0-0.42","SS1604610484008","","null","","","","","","","","","","","","<img src=images/blank.png width =""500"" height = ""500"" style=""border:5px solid black"">","","",""
"","104.20500001055188","stimulus-presentation","199","182021","0.0-17.0-1.42","SS1604610484008","<img src='images/complex/18.png' width ='500' height = '500' style='border:5px solid black'>","40","all_complex","images/complex/11.png","images/complex/18.png","images/complex/2.png,images/complex/7.png,images/complex/3.png,images/complex/16.png,images/complex/8.png,images/complex/5.png,images/complex/15.png","1","null","","200","304.2050000105519","","","","background","",""
"","null","html-keyboard-response","200","183062","0.0-17.0-0.43","SS1604610484008","","null","","","","","","","","","","","","<img src=images/blank.png width =""500"" height = ""500"" style=""border:5px solid black"">","","",""
"","31.244999991031364","stimulus-presentation","201","183321","0.0-17.0-1.43","SS1604610484008","<img src='images/complex/18.png' width ='500' height = '500' style='border:5px solid black'>","40","all_complex","images/complex/11.png","images/complex/18.png","images/complex/2.png,images/complex/7.png,images/complex/3.png,images/complex/16.png,images/complex/8.png,images/complex/5.png,images/complex/15.png","1","null","","200","231.24499999103136","","","","background","",""
"","null","html-keyboard-response","202","184353","0.0-17.0-0.44","SS1604610484008","","null","","","","","","","","","","","","<img src=images/blank.png width =""500"" height = ""500"" style=""border:5px solid black"">","","",""
"","145.70500000263564","stimulus-presentation","203","184713","0.0-17.0-1.44","SS1604610484008","<img src='images/complex/18.png' width ='500' height = '500' style='border:5px solid black'>","40","all_complex","images/complex/11.png","images/complex/18.png","images/complex/2.png,images/complex/7.png,images/complex/3.png,images/complex/16.png,images/complex/8.png,images/complex/5.png,images/complex/15.png","1","null","","200","345.70500000263564","","","","background","",""
"","null","html-keyboard-response","204","185824","0.0-17.0-0.45","SS1604610484008","","null","","","","","","","","","","","","<img src=images/blank.png width =""500"" height = ""500"" style=""border:5px solid black"">","","",""
"","608.4099999861792","stimulus-presentation","205","186641","0.0-17.0-1.45","SS1604610484008","<img src='images/complex/11.png' width ='500' height = '500' style='border:5px solid black'>","40","all_complex","images/complex/11.png","images/complex/18.png","images/complex/2.png,images/complex/7.png,images/complex/3.png,images/complex/16.png,images/complex/8.png,images/complex/5.png,images/complex/15.png","1","null","","200","808.4099999861792","yes","240.67999998806044","","target","",""
"","null","html-keyboard-response","206","187729","0.0-17.0-0.46","SS1604610484008","","null","","","","","","","","","","","","<img src=images/blank.png width =""500"" height = ""500"" style=""border:5px solid black"">","","",""
"","131.07999999192543","stimulus-presentation","207","188081","0.0-17.0-1.46","SS1604610484008","<img src='images/complex/18.png' width ='500' height = '500' style='border:5px solid black'>","40","all_complex","images/complex/11.png","images/complex/18.png","images/complex/2.png,images/complex/7.png,images/complex/3.png,images/complex/16.png,images/complex/8.png,images/complex/5.png,images/complex/15.png","1","null","","200","331.07999999192543","","","","background","",""
"","null","html-keyboard-response","208","189080","0.0-17.0-0.47","SS1604610484008","","null","","","","","","","","","","","","<img src=images/blank.png width =""500"" height = ""500"" style=""border:5px solid black"">","","",""
"","101.55500000109896","stimulus-presentation","209","189401","0.0-17.0-1.47","SS1604610484008","<img src='images/complex/18.png' width ='500' height = '500' style='border:5px solid black'>","40","all_complex","images/complex/11.png","images/complex/18.png","images/complex/2.png,images/complex/7.png,images/complex/3.png,images/complex/16.png,images/complex/8.png,images/complex/5.png,images/complex/15.png","1","null","","200","301.55500000109896","","","","background","",""
"","null","html-keyboard-response","210","190445","0.0-17.0-0.48","SS1604610484008","","null","","","","","","","","","","","","<img src=images/blank.png width =""500"" height = ""500"" style=""border:5px solid black"">","","",""
"","38.490000006277114","stimulus-presentation","211","190705","0.0-17.0-1.48","SS1604610484008","<img src='images/complex/11.png' width ='500' height = '500' style='border:5px solid black'>","40","all_complex","images/complex/11.png","images/complex/18.png","images/complex/2.png,images/complex/7.png,images/complex/3.png,images/complex/16.png,images/complex/8.png,images/complex/5.png,images/complex/15.png","1","null","","200","238.4900000062771","","","","target","",""
"[{""page_index"":0,""viewing_time"":1973}]","1973","task-instructions","212","192685","0.0-18.0","SS1604610484008","","","","","","","","","","","","","","","","",""
"[{""page_index"":0,""viewing_time"":588.8100000156555},{""page_index"":1,""viewing_time"":1508.094999997411},{""page_index"":2,""viewing_time"":897.8850000130478}]","2995.2050000138115","instructions","213","195687","0.0-19.0","SS1604610484008","","","","","","","","","","","","","","","","",""
"","null","html-keyboard-response","214","196996","0.0-20.0-0.0","SS1604610484008","","null","","","","","","","","","","","","<img src=images/blank.png width =""500"" height = ""500"" style=""border:5px solid black"">","","",""
"","323.2900000002701","stimulus-presentation","215","197537","0.0-20.0-1.0","SS1604610484008","<img src='images/simple/9.png' width ='500' height = '500' style='border:5px solid black'>","40","all_simple","images/simple/14.png","images/simple/1.png","images/simple/17.png,images/simple/8.png,images/simple/5.png,images/simple/16.png,images/simple/2.png,images/simple/6.png,images/simple/9.png","2","null","","200","523.2900000002701","","","","deviant","",""
"","null","html-keyboard-response","216","198422","0.0-20.0-0.1","SS1604610484008","","null","","","","","","","","","","","","<img src=images/blank.png width =""500"" height = ""500"" style=""border:5px solid black"">","","",""
"","433.1349999993108","stimulus-presentation","217","199080","0.0-20.0-1.1","SS1604610484008","<img src='images/simple/1.png' width ='500' height = '500' style='border:5px solid black'>","40","all_simple","images/simple/14.png","images/simple/1.png","images/simple/17.png,images/simple/8.png,images/simple/5.png,images/simple/16.png,images/simple/2.png,images/simple/6.png,images/simple/9.png","2","null","","200","633.1349999993108","","","","background","",""
"","null","html-keyboard-response","218","200071","0.0-20.0-0.2","SS1604610484008","","null","","","","","","","","","","","","<img src=images/blank.png width =""500"" height = ""500"" style=""border:5px solid black"">","","",""
"","102.83999997773208","stimulus-presentation","219","200385","0.0-20.0-1.2","SS1604610484008","<img src='images/simple/1.png' width ='500' height = '500' style='border:5px solid black'>","40","all_simple","images/simple/14.png","images/simple/1.png","images/simple/17.png,images/simple/8.png,images/simple/5.png,images/simple/16.png,images/simple/2.png,images/simple/6.png,images/simple/9.png","2","null","","200","302.8399999777321","","","","background","",""
"","null","html-keyboard-response","220","201569","0.0-20.0-0.3","SS1604610484008","","null","","","","","","","","","","","","<img src=images/blank.png width =""500"" height = ""500"" style=""border:5px solid black"">","","",""
"","158.79499999573454","stimulus-presentation","221","201945","0.0-20.0-1.3","SS1604610484008","<img src='images/simple/1.png' width ='500' height = '500' style='border:5px solid black'>","40","all_simple","images/simple/14.png","images/simple/1.png","images/simple/17.png,images/simple/8.png,images/simple/5.png,images/simple/16.png,images/simple/2.png,images/simple/6.png,images/simple/9.png","2","null","","200","358.79499999573454","","","","background","",""
"","null","html-keyboard-response","222","202964","0.0-20.0-0.4","SS1604610484008","","null","","","","","","","","","","","","<img src=images/blank.png width =""500"" height = ""500"" style=""border:5px solid black"">","","",""
"","101.09499999089167","stimulus-presentation","223","203283","0.0-20.0-1.4","SS1604610484008","<img src='images/simple/1.png' width ='500' height = '500' style='border:5px solid black'>","40","all_simple","images/simple/14.png","images/simple/1.png","images/simple/17.png,images/simple/8.png,images/simple/5.png,images/simple/16.png,images/simple/2.png,images/simple/6.png,images/simple/9.png","2","null","","200","301.09499999089167","","","","background","",""
"","null","html-keyboard-response","224","204312","0.0-20.0-0.5","SS1604610484008","","null","","","","","","","","","","","","<img src=images/blank.png width =""500"" height = ""500"" style=""border:5px solid black"">","","",""
"","89.67499999562278","stimulus-presentation","225","204608","0.0-20.0-1.5","SS1604610484008","<img src='images/simple/1.png' width ='500' height = '500' style='border:5px solid black'>","40","all_simple","images/simple/14.png","images/simple/1.png","images/simple/17.png,images/simple/8.png,images/simple/5.png,images/simple/16.png,images/simple/2.png,images/simple/6.png,images/simple/9.png","2","null","","200","289.6749999956228","","","","background","",""
"","null","html-keyboard-response","226","205503","0.0-20.0-0.6","SS1604610484008","","null","","","","","","","","","","","","<img src=images/blank.png width =""500"" height = ""500"" style=""border:5px solid black"">","","",""
"","276.81999999913387","stimulus-presentation","227","205992","0.0-20.0-1.6","SS1604610484008","<img src='images/simple/8.png' width ='500' height = '500' style='border:5px solid black'>","40","all_simple","images/simple/14.png","images/simple/1.png","images/simple/17.png,images/simple/8.png,images/simple/5.png,images/simple/16.png,images/simple/2.png,images/simple/6.png,images/simple/9.png","2","null","","200","476.81999999913387","","","","deviant","",""
"","null","html-keyboard-response","228","207107","0.0-20.0-0.7","SS1604610484008","","null","","","","","","","","","","","","<img src=images/blank.png width =""500"" height = ""500"" style=""border:5px solid black"">","","",""
"","149.0600000252016","stimulus-presentation","229","207480","0.0-20.0-1.7","SS1604610484008","<img src='images/simple/1.png' width ='500' height = '500' style='border:5px solid black'>","40","all_simple","images/simple/14.png","images/simple/1.png","images/simple/17.png,images/simple/8.png,images/simple/5.png,images/simple/16.png,images/simple/2.png,images/simple/6.png,images/simple/9.png","2","null","","200","349.0600000252016","","","","background","",""
"","null","html-keyboard-response","230","208558","0.0-20.0-0.8","SS1604610484008","","null","","","","","","","","","","","","<img src=images/blank.png width =""500"" height = ""500"" style=""border:5px solid black"">","","",""
"","49.804999987827614","stimulus-presentation","231","208833","0.0-20.0-1.8","SS1604610484008","<img src='images/simple/1.png' width ='500' height = '500' style='border:5px solid black'>","40","all_simple","images/simple/14.png","images/simple/1.png","images/simple/17.png,images/simple/8.png,images/simple/5.png,images/simple/16.png,images/simple/2.png,images/simple/6.png,images/simple/9.png","2","null","","200","249.8049999878276","","","","background","",""
"","null","html-keyboard-response","232","209747","0.0-20.0-0.9","SS1604610484008","","null","","","","","","","","","","","","<img src=images/blank.png width =""500"" height = ""500"" style=""border:5px solid black"">","","",""
"","747.0749999920372","stimulus-presentation","233","210712","0.0-20.0-1.9","SS1604610484008","<img src='images/simple/14.png' width ='500' height = '500' style='border:5px solid black'>","40","all_simple","images/simple/14.png","images/simple/1.png","images/simple/17.png,images/simple/8.png,images/simple/5.png,images/simple/16.png,images/simple/2.png,images/simple/6.png,images/simple/9.png","2","null","","200","947.0749999920372","yes","299.8399999924004","","target","",""
"","null","html-keyboard-response","234","211650","0.0-20.0-0.10","SS1604610484008","","null","","","","","","","","","","","","<img src=images/blank.png width =""500"" height = ""500"" style=""border:5px solid black"">","","",""
"","118.58999999822117","stimulus-presentation","235","211984","0.0-20.0-1.10","SS1604610484008","<img src='images/simple/1.png' width ='500' height = '500' style='border:5px solid black'>","40","all_simple","images/simple/14.png","images/simple/1.png","images/simple/17.png,images/simple/8.png,images/simple/5.png,images/simple/16.png,images/simple/2.png,images/simple/6.png,images/simple/9.png","2","null","","200","318.5899999982212","","","","background","",""
"","null","html-keyboard-response","236","213230","0.0-20.0-0.11","SS1604610484008","","null","","","","","","","","","","","","<img src=images/blank.png width =""500"" height = ""500"" style=""border:5px solid black"">","","",""
"","146.919999999227","stimulus-presentation","237","213593","0.0-20.0-1.11","SS1604610484008","<img src='images/simple/6.png' width ='500' height = '500' style='border:5px solid black'>","40","all_simple","images/simple/14.png","images/simple/1.png","images/simple/17.png,images/simple/8.png,images/simple/5.png,images/simple/16.png,images/simple/2.png,images/simple/6.png,images/simple/9.png","2","null","","200","346.919999999227","","","","deviant","",""
"","null","html-keyboard-response","238","214533","0.0-20.0-0.12","SS1604610484008","","null","","","","","","","","","","","","<img src=images/blank.png width =""500"" height = ""500"" style=""border:5px solid black"">","","",""
"","139.04499998898245","stimulus-presentation","239","214888","0.0-20.0-1.12","SS1604610484008","<img src='images/simple/1.png' width ='500' height = '500' style='border:5px solid black'>","40","all_simple","images/simple/14.png","images/simple/1.png","images/simple/17.png,images/simple/8.png,images/simple/5.png,images/simple/16.png,images/simple/2.png,images/simple/6.png,images/simple/9.png","2","null","","200","339.04499998898245","","","","background","",""
"","null","html-keyboard-response","240","215989","0.0-20.0-0.13","SS1604610484008","","null","","","","","","","","","","","","<img src=images/blank.png width =""500"" height = ""500"" style=""border:5px solid black"">","","",""
"","168.7450000026729","stimulus-presentation","241","216384","0.0-20.0-1.13","SS1604610484008","<img src='images/simple/1.png' width ='500' height = '500' style='border:5px solid black'>","40","all_simple","images/simple/14.png","images/simple/1.png","images/simple/17.png,images/simple/8.png,images/simple/5.png,images/simple/16.png,images/simple/2.png,images/simple/6.png,images/simple/9.png","2","null","","200","368.7450000026729","","","","background","",""
"","null","html-keyboard-response","242","217257","0.0-20.0-0.14","SS1604610484008","","null","","","","","","","","","","","","<img src=images/blank.png width =""500"" height = ""500"" style=""border:5px solid black"">","","",""
"","103.88999999850057","stimulus-presentation","243","217585","0.0-20.0-1.14","SS1604610484008","<img src='images/simple/1.png' width ='500' height = '500' style='border:5px solid black'>","40","all_simple","images/simple/14.png","images/simple/1.png","images/simple/17.png,images/simple/8.png,images/simple/5.png,images/simple/16.png,images/simple/2.png,images/simple/6.png,images/simple/9.png","2","null","","200","303.88999999850057","","","","background","",""
"","null","html-keyboard-response","244","218745","0.0-20.0-0.15","SS1604610484008","","null","","","","","","","","","","","","<img src=images/blank.png width =""500"" height = ""500"" style=""border:5px solid black"">","","",""
"","156.39000001829118","stimulus-presentation","245","219136","0.0-20.0-1.15","SS1604610484008","<img src='images/simple/1.png' width ='500' height = '500' style='border:5px solid black'>","40","all_simple","images/simple/14.png","images/simple/1.png","images/simple/17.png,images/simple/8.png,images/simple/5.png,images/simple/16.png,images/simple/2.png,images/simple/6.png,images/simple/9.png","2","null","","200","356.3900000182912","","","","background","",""
"","null","html-keyboard-response","246","220270","0.0-20.0-0.16","SS1604610484008","","null","","","","","","","","","","","","<img src=images/blank.png width =""500"" height = ""500"" style=""border:5px solid black"">","","",""
"","87.79499999945983","stimulus-presentation","247","220568","0.0-20.0-1.16","SS1604610484008","<img src='images/simple/1.png' width ='500' height = '500' style='border:5px solid black'>","40","all_simple","images/simple/14.png","images/simple/1.png","images/simple/17.png,images/simple/8.png,images/simple/5.png,images/simple/16.png,images/simple/2.png,images/simple/6.png,images/simple/9.png","2","null","","200","287.79499999945983","","","","background","",""
"","null","html-keyboard-response","248","221484","0.0-20.0-0.17","SS1604610484008","","null","","","","","","","","","","","","<img src=images/blank.png width =""500"" height = ""500"" style=""border:5px solid black"">","","",""
"","71.77999999839813","stimulus-presentation","249","221769","0.0-20.0-1.17","SS1604610484008","<img src='images/simple/14.png' width ='500' height = '500' style='border:5px solid black'>","40","all_simple","images/simple/14.png","images/simple/1.png","images/simple/17.png,images/simple/8.png,images/simple/5.png,images/simple/16.png,images/simple/2.png,images/simple/6.png,images/simple/9.png","2","null","","200","271.7799999983981","","","","target","",""
"","null","html-keyboard-response","250","222639","0.0-20.0-0.18","SS1604610484008","","null","","","","","","","","","","","","<img src=images/blank.png width =""500"" height = ""500"" style=""border:5px solid black"">","","",""
"","89.21000000555068","stimulus-presentation","251","222953","0.0-20.0-1.18","SS1604610484008","<img src='images/simple/1.png' width ='500' height = '500' style='border:5px solid black'>","40","all_simple","images/simple/14.png","images/simple/1.png","images/simple/17.png,images/simple/8.png,images/simple/5.png,images/simple/16.png,images/simple/2.png,images/simple/6.png,images/simple/9.png","2","null","","200","289.2100000055507","","","","background","",""
"","null","html-keyboard-response","252","224119","0.0-20.0-0.19","SS1604610484008","","null","","","","","","","","","","","","<img src=images/blank.png width =""500"" height = ""500"" style=""border:5px solid black"">","","",""
"","167.75500000221655","stimulus-presentation","253","224515","0.0-20.0-1.19","SS1604610484008","<img src='images/simple/1.png' width ='500' height = '500' style='border:5px solid black'>","40","all_simple","images/simple/14.png","images/simple/1.png","images/simple/17.png,images/simple/8.png,images/simple/5.png,images/simple/16.png,images/simple/2.png,images/simple/6.png,images/simple/9.png","2","null","","200","367.75500000221655","","","","background","",""
"","null","html-keyboard-response","254","225466","0.0-20.0-0.20","SS1604610484008","","null","","","","","","","","","","","","<img src=images/blank.png width =""500"" height = ""500"" style=""border:5px solid black"">","","",""
"","42.25999998743646","stimulus-presentation","255","225737","0.0-20.0-1.20","SS1604610484008","<img src='images/simple/1.png' width ='500' height = '500' style='border:5px solid black'>","40","all_simple","images/simple/14.png","images/simple/1.png","images/simple/17.png,images/simple/8.png,images/simple/5.png,images/simple/16.png,images/simple/2.png,images/simple/6.png,images/simple/9.png","2","null","","200","242.25999998743646","","","","background","",""
"","null","html-keyboard-response","256","226744","0.0-20.0-0.21","SS1604610484008","","null","","","","","","","","","","","","<img src=images/blank.png width =""500"" height = ""500"" style=""border:5px solid black"">","","",""
"","86.29499998642132","stimulus-presentation","257","227049","0.0-20.0-1.21","SS1604610484008","<img src='images/simple/1.png' width ='500' height = '500' style='border:5px solid black'>","40","all_simple","images/simple/14.png","images/simple/1.png","images/simple/17.png,images/simple/8.png,images/simple/5.png,images/simple/16.png,images/simple/2.png,images/simple/6.png,images/simple/9.png","2","null","","200","286.2949999864213","","","","background","",""
"","null","html-keyboard-response","258","228264","0.0-20.0-0.22","SS1604610484008","","null","","","","","","","","","","","","<img src=images/blank.png width =""500"" height = ""500"" style=""border:5px solid black"">","","",""
"","241.05000001145527","stimulus-presentation","259","228721","0.0-20.0-1.22","SS1604610484008","<img src='images/simple/2.png' width ='500' height = '500' style='border:5px solid black'>","40","all_simple","images/simple/14.png","images/simple/1.png","images/simple/17.png,images/simple/8.png,images/simple/5.png,images/simple/16.png,images/simple/2.png,images/simple/6.png,images/simple/9.png","2","null","","200","441.05000001145527","","","","deviant","",""
"","null","html-keyboard-response","260","229791","0.0-20.0-0.23","SS1604610484008","","null","","","","","","","","","","","","<img src=images/blank.png width =""500"" height = ""500"" style=""border:5px solid black"">","","",""
"","74.89000001805834","stimulus-presentation","261","230089","0.0-20.0-1.23","SS1604610484008","<img src='images/simple/1.png' width ='500' height = '500' style='border:5px solid black'>","40","all_simple","images/simple/14.png","images/simple/1.png","images/simple/17.png,images/simple/8.png,images/simple/5.png,images/simple/16.png,images/simple/2.png,images/simple/6.png,images/simple/9.png","2","null","","200","274.89000001805834","","","","background","",""
"","null","html-keyboard-response","262","230939","0.0-20.0-0.24","SS1604610484008","","null","","","","","","","","","","","","<img src=images/blank.png width =""500"" height = ""500"" style=""border:5px solid black"">","","",""
"","101.53499999432825","stimulus-presentation","263","231265","0.0-20.0-1.24","SS1604610484008","<img src='images/simple/1.png' width ='500' height = '500' style='border:5px solid black'>","40","all_simple","images/simple/14.png","images/simple/1.png","images/simple/17.png,images/simple/8.png,images/simple/5.png,images/simple/16.png,images/simple/2.png,images/simple/6.png,images/simple/9.png","2","null","","200","301.53499999432825","","","","background","",""
"","null","html-keyboard-response","264","232482","0.0-20.0-0.25","SS1604610484008","","null","","","","","","","","","","","","<img src=images/blank.png width =""500"" height = ""500"" style=""border:5px solid black"">","","",""
"","536.2550000136252","stimulus-presentation","265","233233","0.0-20.0-1.25","SS1604610484008","<img src='images/simple/14.png' width ='500' height = '500' style='border:5px solid black'>","40","all_simple","images/simple/14.png","images/simple/1.png","images/simple/17.png,images/simple/8.png,images/simple/5.png,images/simple/16.png,images/simple/2.png,images/simple/6.png,images/simple/9.png","2","null","","200","736.2550000136252","yes","152.31000000494532","","target","",""
"","null","html-keyboard-response","266","234556","0.0-20.0-0.26","SS1604610484008","","null","","","","","","","","","","","","<img src=images/blank.png width =""500"" height = ""500"" style=""border:5px solid black"">","","",""
"","112.57500000647269","stimulus-presentation","267","234892","0.0-20.0-1.26","SS1604610484008","<img src='images/simple/1.png' width ='500' height = '500' style='border:5px solid black'>","40","all_simple","images/simple/14.png","images/simple/1.png","images/simple/17.png,images/simple/8.png,images/simple/5.png,images/simple/16.png,images/simple/2.png,images/simple/6.png,images/simple/9.png","2","null","","200","312.5750000064727","","","","background","",""
"","null","html-keyboard-response","268","235832","0.0-20.0-0.27","SS1604610484008","","null","","","","","","","","","","","","<img src=images/blank.png width =""500"" height = ""500"" style=""border:5px solid black"">","","",""
"","106.97500000242144","stimulus-presentation","269","236153","0.0-20.0-1.27","SS1604610484008","<img src='images/simple/1.png' width ='500' height = '500' style='border:5px solid black'>","40","all_simple","images/simple/14.png","images/simple/1.png","images/simple/17.png,images/simple/8.png,images/simple/5.png,images/simple/16.png,images/simple/2.png,images/simple/6.png,images/simple/9.png","2","null","","200","306.97500000242144","","","","background","",""
"","null","html-keyboard-response","270","237209","0.0-20.0-0.28","SS1604610484008","","null","","","","","","","","","","","","<img src=images/blank.png width =""500"" height = ""500"" style=""border:5px solid black"">","","",""
"","131.02000000071712","stimulus-presentation","271","237555","0.0-20.0-1.28","SS1604610484008","<img src='images/simple/1.png' width ='500' height = '500' style='border:5px solid black'>","40","all_simple","images/simple/14.png","images/simple/1.png","images/simple/17.png,images/simple/8.png,images/simple/5.png,images/simple/16.png,images/simple/2.png,images/simple/6.png,images/simple/9.png","2","null","","200","331.0200000007171","","","","background","",""
"","null","html-keyboard-response","272","238822","0.0-20.0-0.29","SS1604610484008","","null","","","","","","","","","","","","<img src=images/blank.png width =""500"" height = ""500"" style=""border:5px solid black"">","","",""
"","194.64000000152737","stimulus-presentation","273","239234","0.0-20.0-1.29","SS1604610484008","<img src='images/simple/16.png' width ='500' height = '500' style='border:5px solid black'>","40","all_simple","images/simple/14.png","images/simple/1.png","images/simple/17.png,images/simple/8.png,images/simple/5.png,images/simple/16.png,images/simple/2.png,images/simple/6.png,images/simple/9.png","2","null","","200","394.64000000152737","","","","deviant","",""
"","null","html-keyboard-response","274","240439","0.0-20.0-0.30","SS1604610484008","","null","","","","","","","","","","","","<img src=images/blank.png width =""500"" height = ""500"" style=""border:5px solid black"">","","",""
"","170.429999998305","stimulus-presentation","275","240827","0.0-20.0-1.30","SS1604610484008","<img src='images/simple/1.png' width ='500' height = '500' style='border:5px solid black'>","40","all_simple","images/simple/14.png","images/simple/1.png","images/simple/17.png,images/simple/8.png,images/simple/5.png,images/simple/16.png,images/simple/2.png,images/simple/6.png,images/simple/9.png","2","null","","200","370.429999998305","","","","background","",""
"","null","html-keyboard-response","276","241994","0.0-20.0-0.31","SS1604610484008","","null","","","","","","","","","","","","<img src=images/blank.png width =""500"" height = ""500"" style=""border:5px solid black"">","","",""
"","548.6800000071526","stimulus-presentation","277","242770","0.0-20.0-1.31","SS1604610484008","<img src='images/simple/14.png' width ='500' height = '500' style='border:5px solid black'>","40","all_simple","images/simple/14.png","images/simple/1.png","images/simple/17.png,images/simple/8.png,images/simple/5.png,images/simple/16.png,images/simple/2.png,images/simple/6.png,images/simple/9.png","2","null","","200","748.6800000071526","yes","221.46000000066124","","target","",""
"","null","html-keyboard-response","278","244002","0.0-20.0-0.32","SS1604610484008","","null","","","","","","","","","","","","<img src=images/blank.png width =""500"" height = ""500"" style=""border:5px solid black"">","","",""
"","108.08500001439825","stimulus-presentation","279","244330","0.0-20.0-1.32","SS1604610484008","<img src='images/simple/1.png' width ='500' height = '500' style='border:5px solid black'>","40","all_simple","images/simple/14.png","images/simple/1.png","images/simple/17.png,images/simple/8.png,images/simple/5.png,images/simple/16.png,images/simple/2.png,images/simple/6.png,images/simple/9.png","2","null","","200","308.08500001439825","","","","background","",""
"","null","html-keyboard-response","280","245506","0.0-20.0-0.33","SS1604610484008","","null","","","","","","","","","","","","<img src=images/blank.png width =""500"" height = ""500"" style=""border:5px solid black"">","","",""
"","240.0599999818951","stimulus-presentation","281","245980","0.0-20.0-1.33","SS1604610484008","<img src='images/simple/5.png' width ='500' height = '500' style='border:5px solid black'>","40","all_simple","images/simple/14.png","images/simple/1.png","images/simple/17.png,images/simple/8.png,images/simple/5.png,images/simple/16.png,images/simple/2.png,images/simple/6.png,images/simple/9.png","2","null","","200","440.0599999818951","","","","deviant","",""
"","null","html-keyboard-response","282","247114","0.0-20.0-0.34","SS1604610484008","","null","","","","","","","","","","","","<img src=images/blank.png width =""500"" height = ""500"" style=""border:5px solid black"">","","",""
"","481.3000000140164","stimulus-presentation","283","247819","0.0-20.0-1.34","SS1604610484008","<img src='images/simple/14.png' width ='500' height = '500' style='border:5px solid black'>","40","all_simple","images/simple/14.png","images/simple/1.png","images/simple/17.png,images/simple/8.png,images/simple/5.png,images/simple/16.png,images/simple/2.png,images/simple/6.png,images/simple/9.png","2","null","","200","681.3000000140164","yes","193.08500000624917","","target","",""
"","null","html-keyboard-response","284","248743","0.0-20.0-0.35","SS1604610484008","","null","","","","","","","","","","","","<img src=images/blank.png width =""500"" height = ""500"" style=""border:5px solid black"">","","",""
