"view_history","rt","trial_type","trial_index","time_elapsed","internal_node_id","subject","trial_stimulus","key_press","task_type","task_target_stimulus","task_background_stimulus","task_deviant_stimuli","task_order_number","block_order_number","trial_order_number","minimum_viewing_duration","trial_looking_time","trial_pressed_space_bar","trial_space_bar_rt","stimulus","trial_stimulus_type","responses","question_order"
"[{""page_index"":0,""viewing_time"":49302.02999996254}]","49303.009999974165","instructions","0","49309","0.0-0.0","SS1604516384998","","","","","","","","","","","","","","","","",""
"[{""page_index"":0,""viewing_time"":20106.274999969173},{""page_index"":1,""viewing_time"":1752.039999992121},{""page_index"":2,""viewing_time"":895.1100000413135},{""page_index"":3,""viewing_time"":3313.1500000017695},{""page_index"":2,""viewing_time"":1935.6449999613687},{""page_index"":1,""viewing_time"":9263.644999999087},{""page_index"":2,""viewing_time"":5615.820000006352},{""page_index"":3,""viewing_time"":10383.719999983441},{""page_index"":4,""viewing_time"":4447.790000005625},{""page_index"":5,""viewing_time"":1840.0649999966845},{""page_index"":6,""viewing_time"":1352.1049999981187},{""page_index"":7,""viewing_time"":1822.9450000217184},{""page_index"":8,""viewing_time"":1696.7600000207312}]","64425.98999995971","instructions","1","113740","0.0-1.0","SS1604516384998","","","","","","","","","","","","","","","","",""
"[{""page_index"":0,""viewing_time"":1537.8600000403821},{""page_index"":1,""viewing_time"":2544.0700000035577},{""page_index"":2,""viewing_time"":1400.034999998752}]","5482.770000002347","instructions","2","119228","0.0-2.0","SS1604516384998","","","","","","","","","","","","","","","","",""
"","4436.095000011846","practice-block","3","123875","0.0-3.0","SS1604516384998","<img src='images/practice/practice_background.jpeg' width ='500' height = '500' style='border:5px solid black'>","40","null","images/practice/practice_target.jpg","null","null","null","null","","200","4636.095000011846","yes","683.6450000409968","","","",""
"","null","html-keyboard-response","4","124749","0.0-4.0","SS1604516384998","","null","","","","","","","","","","","","<img src=images/blank.png width =""500"" height = ""500"" style=""border:5px solid black"">","","",""
"","1101.3099999981932","practice-block","5","126056","0.0-5.0","SS1604516384998","<img src='images/practice/practice_background.jpeg' width ='500' height = '500' style='border:5px solid black'>","40","null","images/practice/practice_target.jpg","null","null","null","null","","200","1301.3099999981932","","","","","",""
"","null","html-keyboard-response","6","127204","0.0-6.0","SS1604516384998","","null","","","","","","","","","","","","<img src=images/blank.png width =""500"" height = ""500"" style=""border:5px solid black"">","","",""
"","595.5499999690801","practice-block","7","128007","0.0-7.0","SS1604516384998","<img src='images/practice/practice_deviant.jpeg' width ='500' height = '500' style='border:5px solid black'>","40","null","images/practice/practice_target.jpg","null","null","null","null","","200","795.5499999690801","","","","","",""
"","null","html-keyboard-response","8","128890","0.0-8.0","SS1604516384998","","null","","","","","","","","","","","","<img src=images/blank.png width =""500"" height = ""500"" style=""border:5px solid black"">","","",""
"","759.0000000200234","practice-block","9","131179","0.0-9.0-0.0","SS1604516384998","<img src='images/practice/practice_target.jpg' width ='500' height = '500' style='border:5px solid black'>","40","null","images/practice/practice_target.jpg","null","null","null","null","","200","959.0000000200234","","","","","",""
"","5491.625000024214","practice-block","10","138931","0.0-9.1-0.1","SS1604516384998","<img src='images/practice/practice_target.jpg' width ='500' height = '500' style='border:5px solid black'>","40","null","images/practice/practice_target.jpg","null","null","null","null","","200","5691.625000024214","","","","","",""
"","9895.985000010114","practice-block","11","149032","0.0-9.2-0.2","SS1604516384998","<img src='images/practice/practice_target.jpg' width ='500' height = '500' style='border:5px solid black'>","40","null","images/practice/practice_target.jpg","null","null","null","null","","200","10095.985000010114","yes","551.0050000157207","","","",""
"","null","html-keyboard-response","12","150299","0.0-10.0","SS1604516384998","","null","","","","","","","","","","","","<img src=images/blank.png width =""500"" height = ""500"" style=""border:5px solid black"">","","",""
"","500.71499997284263","practice-block","13","151007","0.0-11.0","SS1604516384998","<img src='images/practice/practice_background.jpeg' width ='500' height = '500' style='border:5px solid black'>","40","null","images/practice/practice_target.jpg","null","null","null","null","","200","700.7149999728426","","","","","",""
"[{""page_index"":0,""viewing_time"":2950}]","2951","task-instructions","14","153962","0.0-12.0","SS1604516384998","","","","","","","","","","","","","","","","",""
"[{""page_index"":0,""viewing_time"":1428.9449999923818},{""page_index"":1,""viewing_time"":6215.734999976121},{""page_index"":2,""viewing_time"":1311.9450000231154}]","8957.369999960065","instructions","15","162922","0.0-13.0","SS1604516384998","","","","","","","","","","","","","","","","",""
"","null","html-keyboard-response","16","163772","0.0-14.0-0.0","SS1604516384998","","null","","","","","","","","","","","","<img src=images/blank.png width =""500"" height = ""500"" style=""border:5px solid black"">","","",""
"","1542.844999989029","stimulus-presentation","17","165521","0.0-14.0-1.0","SS1604516384998","<img src='images/complex/14.png' width ='500' height = '500' style='border:5px solid black'>","40","mixed_complex_deviant","images/simple/18.png","images/simple/10.png","images/complex/11.png,images/complex/17.png,images/complex/4.png,images/complex/6.png,images/complex/14.png,images/complex/5.png,images/complex/10.png","0","null","","200","1742.844999989029","","","","deviant","",""
"","null","html-keyboard-response","18","166596","0.0-14.0-0.1","SS1604516384998","","null","","","","","","","","","","","","<img src=images/blank.png width =""500"" height = ""500"" style=""border:5px solid black"">","","",""
"","897.9149999795482","stimulus-presentation","19","167702","0.0-14.0-1.1","SS1604516384998","<img src='images/simple/10.png' width ='500' height = '500' style='border:5px solid black'>","40","mixed_complex_deviant","images/simple/18.png","images/simple/10.png","images/complex/11.png,images/complex/17.png,images/complex/4.png,images/complex/6.png,images/complex/14.png,images/complex/5.png,images/complex/10.png","0","null","","200","1097.9149999795482","","","","background","",""
"","null","html-keyboard-response","20","168777","0.0-14.0-0.2","SS1604516384998","","null","","","","","","","","","","","","<img src=images/blank.png width =""500"" height = ""500"" style=""border:5px solid black"">","","",""
"","2048.460000019986","stimulus-presentation","21","171033","0.0-14.0-1.2","SS1604516384998","<img src='images/simple/10.png' width ='500' height = '500' style='border:5px solid black'>","40","mixed_complex_deviant","images/simple/18.png","images/simple/10.png","images/complex/11.png,images/complex/17.png,images/complex/4.png,images/complex/6.png,images/complex/14.png,images/complex/5.png,images/complex/10.png","0","null","","200","2248.460000019986","","","","background","",""
"","null","html-keyboard-response","22","172263","0.0-14.0-0.3","SS1604516384998","","null","","","","","","","","","","","","<img src=images/blank.png width =""500"" height = ""500"" style=""border:5px solid black"">","","",""
"","657.1800000383519","stimulus-presentation","23","173135","0.0-14.0-1.3","SS1604516384998","<img src='images/simple/10.png' width ='500' height = '500' style='border:5px solid black'>","40","mixed_complex_deviant","images/simple/18.png","images/simple/10.png","images/complex/11.png,images/complex/17.png,images/complex/4.png,images/complex/6.png,images/complex/14.png,images/complex/5.png,images/complex/10.png","0","null","","200","857.1800000383519","","","","background","",""
"","null","html-keyboard-response","24","174103","0.0-14.0-0.4","SS1604516384998","","null","","","","","","","","","","","","<img src=images/blank.png width =""500"" height = ""500"" style=""border:5px solid black"">","","",""
"","2023.3350000344217","stimulus-presentation","25","176343","0.0-14.0-1.4","SS1604516384998","<img src='images/complex/6.png' width ='500' height = '500' style='border:5px solid black'>","40","mixed_complex_deviant","images/simple/18.png","images/simple/10.png","images/complex/11.png,images/complex/17.png,images/complex/4.png,images/complex/6.png,images/complex/14.png,images/complex/5.png,images/complex/10.png","0","null","","200","2223.3350000344217","","","","deviant","",""
"","null","html-keyboard-response","26","177544","0.0-14.0-0.5","SS1604516384998","","null","","","","","","","","","","","","<img src=images/blank.png width =""500"" height = ""500"" style=""border:5px solid black"">","","",""
"","3297.8100000182167","stimulus-presentation","27","181049","0.0-14.0-1.5","SS1604516384998","<img src='images/simple/10.png' width ='500' height = '500' style='border:5px solid black'>","40","mixed_complex_deviant","images/simple/18.png","images/simple/10.png","images/complex/11.png,images/complex/17.png,images/complex/4.png,images/complex/6.png,images/complex/14.png,images/complex/5.png,images/complex/10.png","0","null","","200","3497.8100000182167","yes","1360.9250000445172","","background","",""
"","null","html-keyboard-response","28","182339","0.0-14.0-0.6","SS1604516384998","","null","","","","","","","","","","","","<img src=images/blank.png width =""500"" height = ""500"" style=""border:5px solid black"">","","",""
"","312.4499999685213","stimulus-presentation","29","182855","0.0-14.0-1.6","SS1604516384998","<img src='images/simple/10.png' width ='500' height = '500' style='border:5px solid black'>","40","mixed_complex_deviant","images/simple/18.png","images/simple/10.png","images/complex/11.png,images/complex/17.png,images/complex/4.png,images/complex/6.png,images/complex/14.png,images/complex/5.png,images/complex/10.png","0","null","","200","512.4499999685213","","","","background","",""
"","null","html-keyboard-response","30","184082","0.0-14.0-0.7","SS1604516384998","","null","","","","","","","","","","","","<img src=images/blank.png width =""500"" height = ""500"" style=""border:5px solid black"">","","",""
"","1195.575000019744","stimulus-presentation","31","185488","0.0-14.0-1.7","SS1604516384998","<img src='images/simple/10.png' width ='500' height = '500' style='border:5px solid black'>","40","mixed_complex_deviant","images/simple/18.png","images/simple/10.png","images/complex/11.png,images/complex/17.png,images/complex/4.png,images/complex/6.png,images/complex/14.png,images/complex/5.png,images/complex/10.png","0","null","","200","1395.575000019744","yes","611.5649999701418","","background","",""
"","null","html-keyboard-response","32","186711","0.0-14.0-0.8","SS1604516384998","","null","","","","","","","","","","","","<img src=images/blank.png width =""500"" height = ""500"" style=""border:5px solid black"">","","",""
"","768.5599999967963","stimulus-presentation","33","187686","0.0-14.0-1.8","SS1604516384998","<img src='images/simple/18.png' width ='500' height = '500' style='border:5px solid black'>","40","mixed_complex_deviant","images/simple/18.png","images/simple/10.png","images/complex/11.png,images/complex/17.png,images/complex/4.png,images/complex/6.png,images/complex/14.png,images/complex/5.png,images/complex/10.png","0","null","","200","968.5599999967963","","","","target","",""
"","null","html-keyboard-response","34","188752","0.0-14.0-0.9","SS1604516384998","","null","","","","","","","","","","","","<img src=images/blank.png width =""500"" height = ""500"" style=""border:5px solid black"">","","",""
"","559.0599999995902","stimulus-presentation","35","189519","0.0-14.0-1.9","SS1604516384998","<img src='images/simple/10.png' width ='500' height = '500' style='border:5px solid black'>","40","mixed_complex_deviant","images/simple/18.png","images/simple/10.png","images/complex/11.png,images/complex/17.png,images/complex/4.png,images/complex/6.png,images/complex/14.png,images/complex/5.png,images/complex/10.png","0","null","","200","759.0599999995902","yes","551.2000000453554","","background","",""
"","null","html-keyboard-response","36","190745","0.0-14.0-0.10","SS1604516384998","","null","","","","","","","","","","","","<img src=images/blank.png width =""500"" height = ""500"" style=""border:5px solid black"">","","",""
"","1597.994999960065","stimulus-presentation","37","192551","0.0-14.0-1.10","SS1604516384998","<img src='images/simple/10.png' width ='500' height = '500' style='border:5px solid black'>","40","mixed_complex_deviant","images/simple/18.png","images/simple/10.png","images/complex/11.png,images/complex/17.png,images/complex/4.png,images/complex/6.png,images/complex/14.png,images/complex/5.png,images/complex/10.png","0","null","","200","1797.994999960065","","","","background","",""
"","null","html-keyboard-response","38","193509","0.0-14.0-0.11","SS1604516384998","","null","","","","","","","","","","","","<img src=images/blank.png width =""500"" height = ""500"" style=""border:5px solid black"">","","",""
"","186.9099999894388","stimulus-presentation","39","193903","0.0-14.0-1.11","SS1604516384998","<img src='images/simple/10.png' width ='500' height = '500' style='border:5px solid black'>","40","mixed_complex_deviant","images/simple/18.png","images/simple/10.png","images/complex/11.png,images/complex/17.png,images/complex/4.png,images/complex/6.png,images/complex/14.png,images/complex/5.png,images/complex/10.png","0","null","","200","386.9099999894388","","","","background","",""
"","null","html-keyboard-response","40","195140","0.0-14.0-0.12","SS1604516384998","","null","","","","","","","","","","","","<img src=images/blank.png width =""500"" height = ""500"" style=""border:5px solid black"">","","",""
"","619.124999968335","stimulus-presentation","41","195966","0.0-14.0-1.12","SS1604516384998","<img src='images/complex/17.png' width ='500' height = '500' style='border:5px solid black'>","40","mixed_complex_deviant","images/simple/18.png","images/simple/10.png","images/complex/11.png,images/complex/17.png,images/complex/4.png,images/complex/6.png,images/complex/14.png,images/complex/5.png,images/complex/10.png","0","null","","200","819.124999968335","","","","deviant","",""
"","null","html-keyboard-response","42","197136","0.0-14.0-0.13","SS1604516384998","","null","","","","","","","","","","","","<img src=images/blank.png width =""500"" height = ""500"" style=""border:5px solid black"">","","",""
"","206.1049999902025","stimulus-presentation","43","197550","0.0-14.0-1.13","SS1604516384998","<img src='images/simple/18.png' width ='500' height = '500' style='border:5px solid black'>","40","mixed_complex_deviant","images/simple/18.png","images/simple/10.png","images/complex/11.png,images/complex/17.png,images/complex/4.png,images/complex/6.png,images/complex/14.png,images/complex/5.png,images/complex/10.png","0","null","","200","406.1049999902025","","","","target","",""
"","null","html-keyboard-response","44","198619","0.0-14.0-0.14","SS1604516384998","","null","","","","","","","","","","","","<img src=images/blank.png width =""500"" height = ""500"" style=""border:5px solid black"">","","",""
"","708.6299999500625","stimulus-presentation","45","199535","0.0-14.0-1.14","SS1604516384998","<img src='images/simple/10.png' width ='500' height = '500' style='border:5px solid black'>","40","mixed_complex_deviant","images/simple/18.png","images/simple/10.png","images/complex/11.png,images/complex/17.png,images/complex/4.png,images/complex/6.png,images/complex/14.png,images/complex/5.png,images/complex/10.png","0","null","","200","908.6299999500625","","","","background","",""
"","null","html-keyboard-response","46","200657","0.0-14.0-0.15","SS1604516384998","","null","","","","","","","","","","","","<img src=images/blank.png width =""500"" height = ""500"" style=""border:5px solid black"">","","",""
"","1799.445000011474","stimulus-presentation","47","202663","0.0-14.0-1.15","SS1604516384998","<img src='images/simple/10.png' width ='500' height = '500' style='border:5px solid black'>","40","mixed_complex_deviant","images/simple/18.png","images/simple/10.png","images/complex/11.png,images/complex/17.png,images/complex/4.png,images/complex/6.png,images/complex/14.png,images/complex/5.png,images/complex/10.png","0","null","","200","1999.445000011474","yes","974.5450000045821","","background","",""
"","null","html-keyboard-response","48","203843","0.0-14.0-0.16","SS1604516384998","","null","","","","","","","","","","","","<img src=images/blank.png width =""500"" height = ""500"" style=""border:5px solid black"">","","",""
"","192.09500000579283","stimulus-presentation","49","204239","0.0-14.0-1.16","SS1604516384998","<img src='images/simple/18.png' width ='500' height = '500' style='border:5px solid black'>","40","mixed_complex_deviant","images/simple/18.png","images/simple/10.png","images/complex/11.png,images/complex/17.png,images/complex/4.png,images/complex/6.png,images/complex/14.png,images/complex/5.png,images/complex/10.png","0","null","","200","392.0950000057928","","","","target","",""
"","null","html-keyboard-response","50","205320","0.0-14.0-0.17","SS1604516384998","","null","","","","","","","","","","","","<img src=images/blank.png width =""500"" height = ""500"" style=""border:5px solid black"">","","",""
"","190.14000002061948","stimulus-presentation","51","205718","0.0-14.0-1.17","SS1604516384998","<img src='images/simple/10.png' width ='500' height = '500' style='border:5px solid black'>","40","mixed_complex_deviant","images/simple/18.png","images/simple/10.png","images/complex/11.png,images/complex/17.png,images/complex/4.png,images/complex/6.png,images/complex/14.png,images/complex/5.png,images/complex/10.png","0","null","","200","390.1400000206195","","","","background","",""
"","null","html-keyboard-response","52","206782","0.0-14.0-0.18","SS1604516384998","","null","","","","","","","","","","","","<img src=images/blank.png width =""500"" height = ""500"" style=""border:5px solid black"">","","",""
"","119.8450000374578","stimulus-presentation","53","207118","0.0-14.0-1.18","SS1604516384998","<img src='images/simple/10.png' width ='500' height = '500' style='border:5px solid black'>","40","mixed_complex_deviant","images/simple/18.png","images/simple/10.png","images/complex/11.png,images/complex/17.png,images/complex/4.png,images/complex/6.png,images/complex/14.png,images/complex/5.png,images/complex/10.png","0","null","","200","319.8450000374578","","","","background","",""
"","null","html-keyboard-response","54","208258","0.0-14.0-0.19","SS1604516384998","","null","","","","","","","","","","","","<img src=images/blank.png width =""500"" height = ""500"" style=""border:5px solid black"">","","",""
"","60.9800000092946","stimulus-presentation","55","208526","0.0-14.0-1.19","SS1604516384998","<img src='images/simple/18.png' width ='500' height = '500' style='border:5px solid black'>","40","mixed_complex_deviant","images/simple/18.png","images/simple/10.png","images/complex/11.png,images/complex/17.png,images/complex/4.png,images/complex/6.png,images/complex/14.png,images/complex/5.png,images/complex/10.png","0","null","","200","260.9800000092946","","","","target","",""
"","null","html-keyboard-response","56","209687","0.0-14.0-0.20","SS1604516384998","","null","","","","","","","","","","","","<img src=images/blank.png width =""500"" height = ""500"" style=""border:5px solid black"">","","",""
"","410.8249999699183","stimulus-presentation","57","210302","0.0-14.0-1.20","SS1604516384998","<img src='images/simple/18.png' width ='500' height = '500' style='border:5px solid black'>","40","mixed_complex_deviant","images/simple/18.png","images/simple/10.png","images/complex/11.png,images/complex/17.png,images/complex/4.png,images/complex/6.png,images/complex/14.png,images/complex/5.png,images/complex/10.png","0","null","","200","610.8249999699183","","","","target","",""
"","null","html-keyboard-response","58","211403","0.0-14.0-0.21","SS1604516384998","","null","","","","","","","","","","","","<img src=images/blank.png width =""500"" height = ""500"" style=""border:5px solid black"">","","",""
"","59.21499995747581","stimulus-presentation","59","211669","0.0-14.0-1.21","SS1604516384998","<img src='images/complex/4.png' width ='500' height = '500' style='border:5px solid black'>","40","mixed_complex_deviant","images/simple/18.png","images/simple/10.png","images/complex/11.png,images/complex/17.png,images/complex/4.png,images/complex/6.png,images/complex/14.png,images/complex/5.png,images/complex/10.png","0","null","","200","259.2149999574758","","","","deviant","",""
"","null","html-keyboard-response","60","212739","0.0-14.0-0.22","SS1604516384998","","null","","","","","","","","","","","","<img src=images/blank.png width =""500"" height = ""500"" style=""border:5px solid black"">","","",""
"","203.62000004388392","stimulus-presentation","61","213151","0.0-14.0-1.22","SS1604516384998","<img src='images/simple/10.png' width ='500' height = '500' style='border:5px solid black'>","40","mixed_complex_deviant","images/simple/18.png","images/simple/10.png","images/complex/11.png,images/complex/17.png,images/complex/4.png,images/complex/6.png,images/complex/14.png,images/complex/5.png,images/complex/10.png","0","null","","200","403.6200000438839","","","","background","",""
"","null","html-keyboard-response","62","214384","0.0-14.0-0.23","SS1604516384998","","null","","","","","","","","","","","","<img src=images/blank.png width =""500"" height = ""500"" style=""border:5px solid black"">","","",""
"","5.475000012665987","stimulus-presentation","63","214598","0.0-14.0-1.23","SS1604516384998","<img src='images/simple/10.png' width ='500' height = '500' style='border:5px solid black'>","40","mixed_complex_deviant","images/simple/18.png","images/simple/10.png","images/complex/11.png,images/complex/17.png,images/complex/4.png,images/complex/6.png,images/complex/14.png,images/complex/5.png,images/complex/10.png","0","null","","200","205.475000012666","","","","background","",""
"","null","html-keyboard-response","64","215510","0.0-14.0-0.24","SS1604516384998","","null","","","","","","","","","","","","<img src=images/blank.png width =""500"" height = ""500"" style=""border:5px solid black"">","","",""
"","127.53499997779727","stimulus-presentation","65","215846","0.0-14.0-1.24","SS1604516384998","<img src='images/simple/10.png' width ='500' height = '500' style='border:5px solid black'>","40","mixed_complex_deviant","images/simple/18.png","images/simple/10.png","images/complex/11.png,images/complex/17.png,images/complex/4.png,images/complex/6.png,images/complex/14.png,images/complex/5.png,images/complex/10.png","0","null","","200","327.53499997779727","","","","background","",""
"","null","html-keyboard-response","66","216928","0.0-14.0-0.25","SS1604516384998","","null","","","","","","","","","","","","<img src=images/blank.png width =""500"" height = ""500"" style=""border:5px solid black"">","","",""
"","539.5099999732338","stimulus-presentation","67","217686","0.0-14.0-1.25","SS1604516384998","<img src='images/simple/10.png' width ='500' height = '500' style='border:5px solid black'>","40","mixed_complex_deviant","images/simple/18.png","images/simple/10.png","images/complex/11.png,images/complex/17.png,images/complex/4.png,images/complex/6.png,images/complex/14.png,images/complex/5.png,images/complex/10.png","0","null","","200","739.5099999732338","","","","background","",""
"","null","html-keyboard-response","68","218746","0.0-14.0-0.26","SS1604516384998","","null","","","","","","","","","","","","<img src=images/blank.png width =""500"" height = ""500"" style=""border:5px solid black"">","","",""
"","561.3500000326894","stimulus-presentation","69","219518","0.0-14.0-1.26","SS1604516384998","<img src='images/simple/10.png' width ='500' height = '500' style='border:5px solid black'>","40","mixed_complex_deviant","images/simple/18.png","images/simple/10.png","images/complex/11.png,images/complex/17.png,images/complex/4.png,images/complex/6.png,images/complex/14.png,images/complex/5.png,images/complex/10.png","0","null","","200","761.3500000326894","","","","background","",""
"","null","html-keyboard-response","70","220651","0.0-14.0-0.27","SS1604516384998","","null","","","","","","","","","","","","<img src=images/blank.png width =""500"" height = ""500"" style=""border:5px solid black"">","","",""
"","37.19000000273809","stimulus-presentation","71","220894","0.0-14.0-1.27","SS1604516384998","<img src='images/simple/10.png' width ='500' height = '500' style='border:5px solid black'>","40","mixed_complex_deviant","images/simple/18.png","images/simple/10.png","images/complex/11.png,images/complex/17.png,images/complex/4.png,images/complex/6.png,images/complex/14.png,images/complex/5.png,images/complex/10.png","0","null","","200","237.1900000027381","","","","background","",""
"","null","html-keyboard-response","72","222025","0.0-14.0-0.28","SS1604516384998","","null","","","","","","","","","","","","<img src=images/blank.png width =""500"" height = ""500"" style=""border:5px solid black"">","","",""
"","253.1149999704212","stimulus-presentation","73","222486","0.0-14.0-1.28","SS1604516384998","<img src='images/simple/10.png' width ='500' height = '500' style='border:5px solid black'>","40","mixed_complex_deviant","images/simple/18.png","images/simple/10.png","images/complex/11.png,images/complex/17.png,images/complex/4.png,images/complex/6.png,images/complex/14.png,images/complex/5.png,images/complex/10.png","0","null","","200","453.1149999704212","","","","background","",""
"","null","html-keyboard-response","74","223703","0.0-14.0-0.29","SS1604516384998","","null","","","","","","","","","","","","<img src=images/blank.png width =""500"" height = ""500"" style=""border:5px solid black"">","","",""
"","357.8550000092946","stimulus-presentation","75","224270","0.0-14.0-1.29","SS1604516384998","<img src='images/simple/10.png' width ='500' height = '500' style='border:5px solid black'>","40","mixed_complex_deviant","images/simple/18.png","images/simple/10.png","images/complex/11.png,images/complex/17.png,images/complex/4.png,images/complex/6.png,images/complex/14.png,images/complex/5.png,images/complex/10.png","0","null","","200","557.8550000092946","","","","background","",""
"","null","html-keyboard-response","76","225158","0.0-14.0-0.30","SS1604516384998","","null","","","","","","","","","","","","<img src=images/blank.png width =""500"" height = ""500"" style=""border:5px solid black"">","","",""
"","166.9300000066869","stimulus-presentation","77","225534","0.0-14.0-1.30","SS1604516384998","<img src='images/complex/11.png' width ='500' height = '500' style='border:5px solid black'>","40","mixed_complex_deviant","images/simple/18.png","images/simple/10.png","images/complex/11.png,images/complex/17.png,images/complex/4.png,images/complex/6.png,images/complex/14.png,images/complex/5.png,images/complex/10.png","0","null","","200","366.9300000066869","","","","deviant","",""
"","null","html-keyboard-response","78","226595","0.0-14.0-0.31","SS1604516384998","","null","","","","","","","","","","","","<img src=images/blank.png width =""500"" height = ""500"" style=""border:5px solid black"">","","",""
"","90.7899999874644","stimulus-presentation","79","226894","0.0-14.0-1.31","SS1604516384998","<img src='images/simple/10.png' width ='500' height = '500' style='border:5px solid black'>","40","mixed_complex_deviant","images/simple/18.png","images/simple/10.png","images/complex/11.png,images/complex/17.png,images/complex/4.png,images/complex/6.png,images/complex/14.png,images/complex/5.png,images/complex/10.png","0","null","","200","290.7899999874644","","","","background","",""
"","null","html-keyboard-response","80","228077","0.0-14.0-0.32","SS1604516384998","","null","","","","","","","","","","","","<img src=images/blank.png width =""500"" height = ""500"" style=""border:5px solid black"">","","",""
"","59.170000022277236","stimulus-presentation","81","228341","0.0-14.0-1.32","SS1604516384998","<img src='images/simple/10.png' width ='500' height = '500' style='border:5px solid black'>","40","mixed_complex_deviant","images/simple/18.png","images/simple/10.png","images/complex/11.png,images/complex/17.png,images/complex/4.png,images/complex/6.png,images/complex/14.png,images/complex/5.png,images/complex/10.png","0","null","","200","259.17000002227724","","","","background","",""
"","null","html-keyboard-response","82","229596","0.0-14.0-0.33","SS1604516384998","","null","","","","","","","","","","","","<img src=images/blank.png width =""500"" height = ""500"" style=""border:5px solid black"">","","",""
"","351.81000002194196","stimulus-presentation","83","230160","0.0-14.0-1.33","SS1604516384998","<img src='images/simple/18.png' width ='500' height = '500' style='border:5px solid black'>","40","mixed_complex_deviant","images/simple/18.png","images/simple/10.png","images/complex/11.png,images/complex/17.png,images/complex/4.png,images/complex/6.png,images/complex/14.png,images/complex/5.png,images/complex/10.png","0","null","","200","551.810000021942","","","","target","",""
"","null","html-keyboard-response","84","231187","0.0-14.0-0.34","SS1604516384998","","null","","","","","","","","","","","","<img src=images/blank.png width =""500"" height = ""500"" style=""border:5px solid black"">","","",""
"","1250.7650000043213","stimulus-presentation","85","232648","0.0-14.0-1.34","SS1604516384998","<img src='images/simple/10.png' width ='500' height = '500' style='border:5px solid black'>","40","mixed_complex_deviant","images/simple/18.png","images/simple/10.png","images/complex/11.png,images/complex/17.png,images/complex/4.png,images/complex/6.png,images/complex/14.png,images/complex/5.png,images/complex/10.png","0","null","","200","1450.7650000043213","","","","background","",""
"","null","html-keyboard-response","86","233721","0.0-14.0-0.35","SS1604516384998","","null","","","","","","","","","","","","<img src=images/blank.png width =""500"" height = ""500"" style=""border:5px solid black"">","","",""
"","79.26000002771616","stimulus-presentation","87","234008","0.0-14.0-1.35","SS1604516384998","<img src='images/simple/10.png' width ='500' height = '500' style='border:5px solid black'>","40","mixed_complex_deviant","images/simple/18.png","images/simple/10.png","images/complex/11.png,images/complex/17.png,images/complex/4.png,images/complex/6.png,images/complex/14.png,images/complex/5.png,images/complex/10.png","0","null","","200","279.26000002771616","","","","background","",""
"","null","html-keyboard-response","88","235117","0.0-14.0-0.36","SS1604516384998","","null","","","","","","","","","","","","<img src=images/blank.png width =""500"" height = ""500"" style=""border:5px solid black"">","","",""
"","10.304999945219606","stimulus-presentation","89","235335","0.0-14.0-1.36","SS1604516384998","<img src='images/simple/10.png' width ='500' height = '500' style='border:5px solid black'>","40","mixed_complex_deviant","images/simple/18.png","images/simple/10.png","images/complex/11.png,images/complex/17.png,images/complex/4.png,images/complex/6.png,images/complex/14.png,images/complex/5.png,images/complex/10.png","0","null","","200","210.3049999452196","","","","background","",""
"","null","html-keyboard-response","90","236300","0.0-14.0-0.37","SS1604516384998","","null","","","","","","","","","","","","<img src=images/blank.png width =""500"" height = ""500"" style=""border:5px solid black"">","","",""
"","81.17000001948327","stimulus-presentation","91","236591","0.0-14.0-1.37","SS1604516384998","<img src='images/complex/10.png' width ='500' height = '500' style='border:5px solid black'>","40","mixed_complex_deviant","images/simple/18.png","images/simple/10.png","images/complex/11.png,images/complex/17.png,images/complex/4.png,images/complex/6.png,images/complex/14.png,images/complex/5.png,images/complex/10.png","0","null","","200","281.17000001948327","","","","deviant","",""
"","null","html-keyboard-response","92","237481","0.0-14.0-0.38","SS1604516384998","","null","","","","","","","","","","","","<img src=images/blank.png width =""500"" height = ""500"" style=""border:5px solid black"">","","",""
"","47.99499997170642","stimulus-presentation","93","237743","0.0-14.0-1.38","SS1604516384998","<img src='images/simple/10.png' width ='500' height = '500' style='border:5px solid black'>","40","mixed_complex_deviant","images/simple/18.png","images/simple/10.png","images/complex/11.png,images/complex/17.png,images/complex/4.png,images/complex/6.png,images/complex/14.png,images/complex/5.png,images/complex/10.png","0","null","","200","247.99499997170642","","","","background","",""
"","null","html-keyboard-response","94","238780","0.0-14.0-0.39","SS1604516384998","","null","","","","","","","","","","","","<img src=images/blank.png width =""500"" height = ""500"" style=""border:5px solid black"">","","",""
"","521.9599999836646","stimulus-presentation","95","239511","0.0-14.0-1.39","SS1604516384998","<img src='images/simple/10.png' width ='500' height = '500' style='border:5px solid black'>","40","mixed_complex_deviant","images/simple/18.png","images/simple/10.png","images/complex/11.png,images/complex/17.png,images/complex/4.png,images/complex/6.png,images/complex/14.png,images/complex/5.png,images/complex/10.png","0","null","","200","721.9599999836646","","","","background","",""
"","null","html-keyboard-response","96","240666","0.0-14.0-0.40","SS1604516384998","","null","","","","","","","","","","","","<img src=images/blank.png width =""500"" height = ""500"" style=""border:5px solid black"">","","",""
"","172.81499999808148","stimulus-presentation","97","241055","0.0-14.0-1.40","SS1604516384998","<img src='images/simple/18.png' width ='500' height = '500' style='border:5px solid black'>","40","mixed_complex_deviant","images/simple/18.png","images/simple/10.png","images/complex/11.png,images/complex/17.png,images/complex/4.png,images/complex/6.png,images/complex/14.png,images/complex/5.png,images/complex/10.png","0","null","","200","372.8149999980815","","","","target","",""
"","null","html-keyboard-response","98","241892","0.0-14.0-0.41","SS1604516384998","","null","","","","","","","","","","","","<img src=images/blank.png width =""500"" height = ""500"" style=""border:5px solid black"">","","",""
"","1776.2799999909475","stimulus-presentation","99","243878","0.0-14.0-1.41","SS1604516384998","<img src='images/complex/5.png' width ='500' height = '500' style='border:5px solid black'>","40","mixed_complex_deviant","images/simple/18.png","images/simple/10.png","images/complex/11.png,images/complex/17.png,images/complex/4.png,images/complex/6.png,images/complex/14.png,images/complex/5.png,images/complex/10.png","0","null","","200","1976.2799999909475","yes","1336.8250000057742","","deviant","",""
"","null","html-keyboard-response","100","244804","0.0-14.0-0.42","SS1604516384998","","null","","","","","","","","","","","","<img src=images/blank.png width =""500"" height = ""500"" style=""border:5px solid black"">","","",""
"","113.17999998573214","stimulus-presentation","101","245127","0.0-14.0-1.42","SS1604516384998","<img src='images/simple/10.png' width ='500' height = '500' style='border:5px solid black'>","40","mixed_complex_deviant","images/simple/18.png","images/simple/10.png","images/complex/11.png,images/complex/17.png,images/complex/4.png,images/complex/6.png,images/complex/14.png,images/complex/5.png,images/complex/10.png","0","null","","200","313.17999998573214","","","","background","",""
"","null","html-keyboard-response","102","246171","0.0-14.0-0.43","SS1604516384998","","null","","","","","","","","","","","","<img src=images/blank.png width =""500"" height = ""500"" style=""border:5px solid black"">","","",""
"","1577.9249999905005","stimulus-presentation","103","247958","0.0-14.0-1.43","SS1604516384998","<img src='images/simple/10.png' width ='500' height = '500' style='border:5px solid black'>","40","mixed_complex_deviant","images/simple/18.png","images/simple/10.png","images/complex/11.png,images/complex/17.png,images/complex/4.png,images/complex/6.png,images/complex/14.png,images/complex/5.png,images/complex/10.png","0","null","","200","1777.9249999905005","yes","697.8900000103749","","background","",""
"","null","html-keyboard-response","104","248860","0.0-14.0-0.44","SS1604516384998","","null","","","","","","","","","","","","<img src=images/blank.png width =""500"" height = ""500"" style=""border:5px solid black"">","","",""
"","56.27000000094995","stimulus-presentation","105","249127","0.0-14.0-1.44","SS1604516384998","<img src='images/simple/10.png' width ='500' height = '500' style='border:5px solid black'>","40","mixed_complex_deviant","images/simple/18.png","images/simple/10.png","images/complex/11.png,images/complex/17.png,images/complex/4.png,images/complex/6.png,images/complex/14.png,images/complex/5.png,images/complex/10.png","0","null","","200","256.27000000094995","","","","background","",""
"","null","html-keyboard-response","106","250297","0.0-14.0-0.45","SS1604516384998","","null","","","","","","","","","","","","<img src=images/blank.png width =""500"" height = ""500"" style=""border:5px solid black"">","","",""
"","2080.240000039339","stimulus-presentation","107","252583","0.0-14.0-1.45","SS1604516384998","<img src='images/simple/10.png' width ='500' height = '500' style='border:5px solid black'>","40","mixed_complex_deviant","images/simple/18.png","images/simple/10.png","images/complex/11.png,images/complex/17.png,images/complex/4.png,images/complex/6.png,images/complex/14.png,images/complex/5.png,images/complex/10.png","0","null","","200","2280.240000039339","","","","background","",""
"","null","html-keyboard-response","108","253513","0.0-14.0-0.46","SS1604516384998","","null","","","","","","","","","","","","<img src=images/blank.png width =""500"" height = ""500"" style=""border:5px solid black"">","","",""
"","18.090000026859343","stimulus-presentation","109","253743","0.0-14.0-1.46","SS1604516384998","<img src='images/simple/10.png' width ='500' height = '500' style='border:5px solid black'>","40","mixed_complex_deviant","images/simple/18.png","images/simple/10.png","images/complex/11.png,images/complex/17.png,images/complex/4.png,images/complex/6.png,images/complex/14.png,images/complex/5.png,images/complex/10.png","0","null","","200","218.09000002685934","","","","background","",""
"","null","html-keyboard-response","110","254869","0.0-14.0-0.47","SS1604516384998","","null","","","","","","","","","","","","<img src=images/blank.png width =""500"" height = ""500"" style=""border:5px solid black"">","","",""
"","318.8150000059977","stimulus-presentation","111","255399","0.0-14.0-1.47","SS1604516384998","<img src='images/simple/10.png' width ='500' height = '500' style='border:5px solid black'>","40","mixed_complex_deviant","images/simple/18.png","images/simple/10.png","images/complex/11.png,images/complex/17.png,images/complex/4.png,images/complex/6.png,images/complex/14.png,images/complex/5.png,images/complex/10.png","0","null","","200","518.8150000059977","","","","background","",""
"","null","html-keyboard-response","112","256578","0.0-14.0-0.48","SS1604516384998","","null","","","","","","","","","","","","<img src=images/blank.png width =""500"" height = ""500"" style=""border:5px solid black"">","","",""
"","40.94000003533438","stimulus-presentation","113","256831","0.0-14.0-1.48","SS1604516384998","<img src='images/simple/10.png' width ='500' height = '500' style='border:5px solid black'>","40","mixed_complex_deviant","images/simple/18.png","images/simple/10.png","images/complex/11.png,images/complex/17.png,images/complex/4.png,images/complex/6.png,images/complex/14.png,images/complex/5.png,images/complex/10.png","0","null","","200","240.94000003533438","","","","background","",""
"[{""page_index"":0,""viewing_time"":6385}]","6386","task-instructions","114","263226","0.0-15.0","SS1604516384998","","","","","","","","","","","","","","","","",""
"[{""page_index"":0,""viewing_time"":2389.5899999770336},{""page_index"":1,""viewing_time"":3791.8700000154786},{""page_index"":2,""viewing_time"":1607.8449999913573}]","7790.229999984149","instructions","115","271026","0.0-16.0","SS1604516384998","","","","","","","","","","","","","","","","",""
"","null","html-keyboard-response","116","272237","0.0-17.0-0.0","SS1604516384998","","null","","","","","","","","","","","","<img src=images/blank.png width =""500"" height = ""500"" style=""border:5px solid black"">","","",""
"","109.31000002892688","stimulus-presentation","117","272557","0.0-17.0-1.0","SS1604516384998","<img src='images/simple/12.png' width ='500' height = '500' style='border:5px solid black'>","40","all_simple","images/simple/16.png","images/simple/12.png","images/simple/8.png,images/simple/1.png,images/simple/9.png,images/simple/11.png,images/simple/3.png,images/simple/2.png,images/simple/14.png","1","null","","200","309.3100000289269","","","","background","",""
"","null","html-keyboard-response","118","273560","0.0-17.0-0.1","SS1604516384998","","null","","","","","","","","","","","","<img src=images/blank.png width =""500"" height = ""500"" style=""border:5px solid black"">","","",""
"","25.74000001186505","stimulus-presentation","119","273798","0.0-17.0-1.1","SS1604516384998","<img src='images/simple/12.png' width ='500' height = '500' style='border:5px solid black'>","40","all_simple","images/simple/16.png","images/simple/12.png","images/simple/8.png,images/simple/1.png,images/simple/9.png,images/simple/11.png,images/simple/3.png,images/simple/2.png,images/simple/14.png","1","null","","200","225.74000001186505","","","","background","",""
"","null","html-keyboard-response","120","274783","0.0-17.0-0.2","SS1604516384998","","null","","","","","","","","","","","","<img src=images/blank.png width =""500"" height = ""500"" style=""border:5px solid black"">","","",""
"","284.77999998722225","stimulus-presentation","121","275278","0.0-17.0-1.2","SS1604516384998","<img src='images/simple/16.png' width ='500' height = '500' style='border:5px solid black'>","40","all_simple","images/simple/16.png","images/simple/12.png","images/simple/8.png,images/simple/1.png,images/simple/9.png,images/simple/11.png,images/simple/3.png,images/simple/2.png,images/simple/14.png","1","null","","200","484.77999998722225","","","","target","",""
"","null","html-keyboard-response","122","276497","0.0-17.0-0.3","SS1604516384998","","null","","","","","","","","","","","","<img src=images/blank.png width =""500"" height = ""500"" style=""border:5px solid black"">","","",""
"","72.64999998733401","stimulus-presentation","123","276782","0.0-17.0-1.3","SS1604516384998","<img src='images/simple/1.png' width ='500' height = '500' style='border:5px solid black'>","40","all_simple","images/simple/16.png","images/simple/12.png","images/simple/8.png,images/simple/1.png,images/simple/9.png,images/simple/11.png,images/simple/3.png,images/simple/2.png,images/simple/14.png","1","null","","200","272.649999987334","","","","deviant","",""
"","null","html-keyboard-response","124","277863","0.0-17.0-0.4","SS1604516384998","","null","","","","","","","","","","","","<img src=images/blank.png width =""500"" height = ""500"" style=""border:5px solid black"">","","",""
"","355.6949999765493","stimulus-presentation","125","278430","0.0-17.0-1.4","SS1604516384998","<img src='images/simple/12.png' width ='500' height = '500' style='border:5px solid black'>","40","all_simple","images/simple/16.png","images/simple/12.png","images/simple/8.png,images/simple/1.png,images/simple/9.png,images/simple/11.png,images/simple/3.png,images/simple/2.png,images/simple/14.png","1","null","","200","555.6949999765493","","","","background","",""
"","null","html-keyboard-response","126","279719","0.0-17.0-0.5","SS1604516384998","","null","","","","","","","","","","","","<img src=images/blank.png width =""500"" height = ""500"" style=""border:5px solid black"">","","",""
"","83.34000001195818","stimulus-presentation","127","280014","0.0-17.0-1.5","SS1604516384998","<img src='images/simple/16.png' width ='500' height = '500' style='border:5px solid black'>","40","all_simple","images/simple/16.png","images/simple/12.png","images/simple/8.png,images/simple/1.png,images/simple/9.png,images/simple/11.png,images/simple/3.png,images/simple/2.png,images/simple/14.png","1","null","","200","283.3400000119582","","","","target","",""
"","null","html-keyboard-response","128","280991","0.0-17.0-0.6","SS1604516384998","","null","","","","","","","","","","","","<img src=images/blank.png width =""500"" height = ""500"" style=""border:5px solid black"">","","",""
"","395.0699999695644","stimulus-presentation","129","281598","0.0-17.0-1.6","SS1604516384998","<img src='images/simple/16.png' width ='500' height = '500' style='border:5px solid black'>","40","all_simple","images/simple/16.png","images/simple/12.png","images/simple/8.png,images/simple/1.png,images/simple/9.png,images/simple/11.png,images/simple/3.png,images/simple/2.png,images/simple/14.png","1","null","","200","595.0699999695644","","","","target","",""
"","null","html-keyboard-response","130","282843","0.0-17.0-0.7","SS1604516384998","","null","","","","","","","","","","","","<img src=images/blank.png width =""500"" height = ""500"" style=""border:5px solid black"">","","",""
"","127.20499996794388","stimulus-presentation","131","283182","0.0-17.0-1.7","SS1604516384998","<img src='images/simple/12.png' width ='500' height = '500' style='border:5px solid black'>","40","all_simple","images/simple/16.png","images/simple/12.png","images/simple/8.png,images/simple/1.png,images/simple/9.png,images/simple/11.png,images/simple/3.png,images/simple/2.png,images/simple/14.png","1","null","","200","327.2049999679439","","","","background","",""
"","null","html-keyboard-response","132","284309","0.0-17.0-0.8","SS1604516384998","","null","","","","","","","","","","","","<img src=images/blank.png width =""500"" height = ""500"" style=""border:5px solid black"">","","",""
"","140.25999995646998","stimulus-presentation","133","284662","0.0-17.0-1.8","SS1604516384998","<img src='images/simple/12.png' width ='500' height = '500' style='border:5px solid black'>","40","all_simple","images/simple/16.png","images/simple/12.png","images/simple/8.png,images/simple/1.png,images/simple/9.png,images/simple/11.png,images/simple/3.png,images/simple/2.png,images/simple/14.png","1","null","","200","340.25999995647","","","","background","",""
"","null","html-keyboard-response","134","285898","0.0-17.0-0.9","SS1604516384998","","null","","","","","","","","","","","","<img src=images/blank.png width =""500"" height = ""500"" style=""border:5px solid black"">","","",""
"","145.06499998969957","stimulus-presentation","135","286278","0.0-17.0-1.9","SS1604516384998","<img src='images/simple/12.png' width ='500' height = '500' style='border:5px solid black'>","40","all_simple","images/simple/16.png","images/simple/12.png","images/simple/8.png,images/simple/1.png,images/simple/9.png,images/simple/11.png,images/simple/3.png,images/simple/2.png,images/simple/14.png","1","null","","200","345.0649999896996","","","","background","",""
"","null","html-keyboard-response","136","287265","0.0-17.0-0.10","SS1604516384998","","null","","","","","","","","","","","","<img src=images/blank.png width =""500"" height = ""500"" style=""border:5px solid black"">","","",""
"","227.8900000383146","stimulus-presentation","137","287702","0.0-17.0-1.10","SS1604516384998","<img src='images/simple/12.png' width ='500' height = '500' style='border:5px solid black'>","40","all_simple","images/simple/16.png","images/simple/12.png","images/simple/8.png,images/simple/1.png,images/simple/9.png,images/simple/11.png,images/simple/3.png,images/simple/2.png,images/simple/14.png","1","null","","200","427.8900000383146","","","","background","",""
"","null","html-keyboard-response","138","288726","0.0-17.0-0.11","SS1604516384998","","null","","","","","","","","","","","","<img src=images/blank.png width =""500"" height = ""500"" style=""border:5px solid black"">","","",""
"","315.8600000315346","stimulus-presentation","139","289255","0.0-17.0-1.11","SS1604516384998","<img src='images/simple/12.png' width ='500' height = '500' style='border:5px solid black'>","40","all_simple","images/simple/16.png","images/simple/12.png","images/simple/8.png,images/simple/1.png,images/simple/9.png,images/simple/11.png,images/simple/3.png,images/simple/2.png,images/simple/14.png","1","null","","200","515.8600000315346","","","","background","",""
"","null","html-keyboard-response","140","290479","0.0-17.0-0.12","SS1604516384998","","null","","","","","","","","","","","","<img src=images/blank.png width =""500"" height = ""500"" style=""border:5px solid black"">","","",""
"","76.72000001184642","stimulus-presentation","141","290767","0.0-17.0-1.12","SS1604516384998","<img src='images/simple/12.png' width ='500' height = '500' style='border:5px solid black'>","40","all_simple","images/simple/16.png","images/simple/12.png","images/simple/8.png,images/simple/1.png,images/simple/9.png,images/simple/11.png,images/simple/3.png,images/simple/2.png,images/simple/14.png","1","null","","200","276.7200000118464","","","","background","",""
"","null","html-keyboard-response","142","291678","0.0-17.0-0.13","SS1604516384998","","null","","","","","","","","","","","","<img src=images/blank.png width =""500"" height = ""500"" style=""border:5px solid black"">","","",""
"","372.92500003241","stimulus-presentation","143","292263","0.0-17.0-1.13","SS1604516384998","<img src='images/simple/2.png' width ='500' height = '500' style='border:5px solid black'>","40","all_simple","images/simple/16.png","images/simple/12.png","images/simple/8.png,images/simple/1.png,images/simple/9.png,images/simple/11.png,images/simple/3.png,images/simple/2.png,images/simple/14.png","1","null","","200","572.92500003241","","","","deviant","",""
"","null","html-keyboard-response","144","293429","0.0-17.0-0.14","SS1604516384998","","null","","","","","","","","","","","","<img src=images/blank.png width =""500"" height = ""500"" style=""border:5px solid black"">","","",""
"","116.890000004787","stimulus-presentation","145","293758","0.0-17.0-1.14","SS1604516384998","<img src='images/simple/12.png' width ='500' height = '500' style='border:5px solid black'>","40","all_simple","images/simple/16.png","images/simple/12.png","images/simple/8.png,images/simple/1.png,images/simple/9.png,images/simple/11.png,images/simple/3.png,images/simple/2.png,images/simple/14.png","1","null","","200","316.890000004787","","","","background","",""
"","null","html-keyboard-response","146","294953","0.0-17.0-0.15","SS1604516384998","","null","","","","","","","","","","","","<img src=images/blank.png width =""500"" height = ""500"" style=""border:5px solid black"">","","",""
"","34.309999959077686","stimulus-presentation","147","295199","0.0-17.0-1.15","SS1604516384998","<img src='images/simple/12.png' width ='500' height = '500' style='border:5px solid black'>","40","all_simple","images/simple/16.png","images/simple/12.png","images/simple/8.png,images/simple/1.png,images/simple/9.png,images/simple/11.png,images/simple/3.png,images/simple/2.png,images/simple/14.png","1","null","","200","234.3099999590777","","","","background","",""
"","null","html-keyboard-response","148","296300","0.0-17.0-0.16","SS1604516384998","","null","","","","","","","","","","","","<img src=images/blank.png width =""500"" height = ""500"" style=""border:5px solid black"">","","",""
"","207.22500002011657","stimulus-presentation","149","296720","0.0-17.0-1.16","SS1604516384998","<img src='images/simple/12.png' width ='500' height = '500' style='border:5px solid black'>","40","all_simple","images/simple/16.png","images/simple/12.png","images/simple/8.png,images/simple/1.png,images/simple/9.png,images/simple/11.png,images/simple/3.png,images/simple/2.png,images/simple/14.png","1","null","","200","407.22500002011657","","","","background","",""
"","null","html-keyboard-response","150","297658","0.0-17.0-0.17","SS1604516384998","","null","","","","","","","","","","","","<img src=images/blank.png width =""500"" height = ""500"" style=""border:5px solid black"">","","",""
"","414.809999987483","stimulus-presentation","151","298279","0.0-17.0-1.17","SS1604516384998","<img src='images/simple/12.png' width ='500' height = '500' style='border:5px solid black'>","40","all_simple","images/simple/16.png","images/simple/12.png","images/simple/8.png,images/simple/1.png,images/simple/9.png,images/simple/11.png,images/simple/3.png,images/simple/2.png,images/simple/14.png","1","null","","200","614.809999987483","","","","background","",""
"","null","html-keyboard-response","152","299178","0.0-17.0-0.18","SS1604516384998","","null","","","","","","","","","","","","<img src=images/blank.png width =""500"" height = ""500"" style=""border:5px solid black"">","","",""
"","440.5399999814108","stimulus-presentation","153","299830","0.0-17.0-1.18","SS1604516384998","<img src='images/simple/12.png' width ='500' height = '500' style='border:5px solid black'>","40","all_simple","images/simple/16.png","images/simple/12.png","images/simple/8.png,images/simple/1.png,images/simple/9.png,images/simple/11.png,images/simple/3.png,images/simple/2.png,images/simple/14.png","1","null","","200","640.5399999814108","","","","background","",""
"","null","html-keyboard-response","154","300650","0.0-17.0-0.19","SS1604516384998","","null","","","","","","","","","","","","<img src=images/blank.png width =""500"" height = ""500"" style=""border:5px solid black"">","","",""
"","463.9500000048429","stimulus-presentation","155","301327","0.0-17.0-1.19","SS1604516384998","<img src='images/simple/14.png' width ='500' height = '500' style='border:5px solid black'>","40","all_simple","images/simple/16.png","images/simple/12.png","images/simple/8.png,images/simple/1.png,images/simple/9.png,images/simple/11.png,images/simple/3.png,images/simple/2.png,images/simple/14.png","1","null","","200","663.9500000048429","","","","deviant","",""
"","null","html-keyboard-response","156","302203","0.0-17.0-0.20","SS1604516384998","","null","","","","","","","","","","","","<img src=images/blank.png width =""500"" height = ""500"" style=""border:5px solid black"">","","",""
"","438.90500004636124","stimulus-presentation","157","302855","0.0-17.0-1.20","SS1604516384998","<img src='images/simple/12.png' width ='500' height = '500' style='border:5px solid black'>","40","all_simple","images/simple/16.png","images/simple/12.png","images/simple/8.png,images/simple/1.png,images/simple/9.png,images/simple/11.png,images/simple/3.png,images/simple/2.png,images/simple/14.png","1","null","","200","638.9050000463612","","","","background","",""
"","null","html-keyboard-response","158","304113","0.0-17.0-0.21","SS1604516384998","","null","","","","","","","","","","","","<img src=images/blank.png width =""500"" height = ""500"" style=""border:5px solid black"">","","",""
"","81.74499997403473","stimulus-presentation","159","304407","0.0-17.0-1.21","SS1604516384998","<img src='images/simple/12.png' width ='500' height = '500' style='border:5px solid black'>","40","all_simple","images/simple/16.png","images/simple/12.png","images/simple/8.png,images/simple/1.png,images/simple/9.png,images/simple/11.png,images/simple/3.png,images/simple/2.png,images/simple/14.png","1","null","","200","281.7449999740347","","","","background","",""
"","null","html-keyboard-response","160","305574","0.0-17.0-0.22","SS1604516384998","","null","","","","","","","","","","","","<img src=images/blank.png width =""500"" height = ""500"" style=""border:5px solid black"">","","",""
"","67.68999999621883","stimulus-presentation","161","305855","0.0-17.0-1.22","SS1604516384998","<img src='images/simple/12.png' width ='500' height = '500' style='border:5px solid black'>","40","all_simple","images/simple/16.png","images/simple/12.png","images/simple/8.png,images/simple/1.png,images/simple/9.png,images/simple/11.png,images/simple/3.png,images/simple/2.png,images/simple/14.png","1","null","","200","267.68999999621883","","","","background","",""
"","null","html-keyboard-response","162","306871","0.0-17.0-0.23","SS1604516384998","","null","","","","","","","","","","","","<img src=images/blank.png width =""500"" height = ""500"" style=""border:5px solid black"">","","",""
"","279.49500002432615","stimulus-presentation","163","307360","0.0-17.0-1.23","SS1604516384998","<img src='images/simple/12.png' width ='500' height = '500' style='border:5px solid black'>","40","all_simple","images/simple/16.png","images/simple/12.png","images/simple/8.png,images/simple/1.png,images/simple/9.png,images/simple/11.png,images/simple/3.png,images/simple/2.png,images/simple/14.png","1","null","","200","479.49500002432615","","","","background","",""
"","null","html-keyboard-response","164","308284","0.0-17.0-0.24","SS1604516384998","","null","","","","","","","","","","","","<img src=images/blank.png width =""500"" height = ""500"" style=""border:5px solid black"">","","",""
"","57.53499997081235","stimulus-presentation","165","308552","0.0-17.0-1.24","SS1604516384998","<img src='images/simple/12.png' width ='500' height = '500' style='border:5px solid black'>","40","all_simple","images/simple/16.png","images/simple/12.png","images/simple/8.png,images/simple/1.png,images/simple/9.png,images/simple/11.png,images/simple/3.png,images/simple/2.png,images/simple/14.png","1","null","","200","257.53499997081235","","","","background","",""
"","null","html-keyboard-response","166","309388","0.0-17.0-0.25","SS1604516384998","","null","","","","","","","","","","","","<img src=images/blank.png width =""500"" height = ""500"" style=""border:5px solid black"">","","",""
"","686.3899999880232","stimulus-presentation","167","310287","0.0-17.0-1.25","SS1604516384998","<img src='images/simple/8.png' width ='500' height = '500' style='border:5px solid black'>","40","all_simple","images/simple/16.png","images/simple/12.png","images/simple/8.png,images/simple/1.png,images/simple/9.png,images/simple/11.png,images/simple/3.png,images/simple/2.png,images/simple/14.png","1","null","","200","886.3899999880232","","","","deviant","",""
"","null","html-keyboard-response","168","311460","0.0-17.0-0.26","SS1604516384998","","null","","","","","","","","","","","","<img src=images/blank.png width =""500"" height = ""500"" style=""border:5px solid black"">","","",""
"","117.39500000840053","stimulus-presentation","169","311791","0.0-17.0-1.26","SS1604516384998","<img src='images/simple/12.png' width ='500' height = '500' style='border:5px solid black'>","40","all_simple","images/simple/16.png","images/simple/12.png","images/simple/8.png,images/simple/1.png,images/simple/9.png,images/simple/11.png,images/simple/3.png,images/simple/2.png,images/simple/14.png","1","null","","200","317.39500000840053","","","","background","",""
"","null","html-keyboard-response","170","312905","0.0-17.0-0.27","SS1604516384998","","null","","","","","","","","","","","","<img src=images/blank.png width =""500"" height = ""500"" style=""border:5px solid black"">","","",""
"","560.2749999961816","stimulus-presentation","171","313679","0.0-17.0-1.27","SS1604516384998","<img src='images/simple/16.png' width ='500' height = '500' style='border:5px solid black'>","40","all_simple","images/simple/16.png","images/simple/12.png","images/simple/8.png,images/simple/1.png,images/simple/9.png,images/simple/11.png,images/simple/3.png,images/simple/2.png,images/simple/14.png","1","null","","200","760.2749999961816","","","","target","",""
"","null","html-keyboard-response","172","314749","0.0-17.0-0.28","SS1604516384998","","null","","","","","","","","","","","","<img src=images/blank.png width =""500"" height = ""500"" style=""border:5px solid black"">","","",""
"","45035.97500000615","stimulus-presentation","173","360001","0.0-17.0-1.28","SS1604516384998","<img src='images/simple/11.png' width ='500' height = '500' style='border:5px solid black'>","40","all_simple","images/simple/16.png","images/simple/12.png","images/simple/8.png,images/simple/1.png,images/simple/9.png,images/simple/11.png,images/simple/3.png,images/simple/2.png,images/simple/14.png","1","null","","200","45235.97500000615","","","","deviant","",""
"","null","html-keyboard-response","174","361164","0.0-17.0-0.29","SS1604516384998","","null","","","","","","","","","","","","<img src=images/blank.png width =""500"" height = ""500"" style=""border:5px solid black"">","","",""
"","380.1349999848753","stimulus-presentation","175","361759","0.0-17.0-1.29","SS1604516384998","<img src='images/simple/12.png' width ='500' height = '500' style='border:5px solid black'>","40","all_simple","images/simple/16.png","images/simple/12.png","images/simple/8.png,images/simple/1.png,images/simple/9.png,images/simple/11.png,images/simple/3.png,images/simple/2.png,images/simple/14.png","1","null","","200","580.1349999848753","","","","background","",""
"","null","html-keyboard-response","176","362623","0.0-17.0-0.30","SS1604516384998","","null","","","","","","","","","","","","<img src=images/blank.png width =""500"" height = ""500"" style=""border:5px solid black"">","","",""
"","129.0949999820441","stimulus-presentation","177","362967","0.0-17.0-1.30","SS1604516384998","<img src='images/simple/12.png' width ='500' height = '500' style='border:5px solid black'>","40","all_simple","images/simple/16.png","images/simple/12.png","images/simple/8.png,images/simple/1.png,images/simple/9.png,images/simple/11.png,images/simple/3.png,images/simple/2.png,images/simple/14.png","1","null","","200","329.0949999820441","","","","background","",""
"","null","html-keyboard-response","178","364142","0.0-17.0-0.31","SS1604516384998","","null","","","","","","","","","","","","<img src=images/blank.png width =""500"" height = ""500"" style=""border:5px solid black"">","","",""
"","100.0000000349246","stimulus-presentation","179","364455","0.0-17.0-1.31","SS1604516384998","<img src='images/simple/12.png' width ='500' height = '500' style='border:5px solid black'>","40","all_simple","images/simple/16.png","images/simple/12.png","images/simple/8.png,images/simple/1.png,images/simple/9.png,images/simple/11.png,images/simple/3.png,images/simple/2.png,images/simple/14.png","1","null","","200","300.0000000349246","","","","background","",""
"","null","html-keyboard-response","180","365365","0.0-17.0-0.32","SS1604516384998","","null","","","","","","","","","","","","<img src=images/blank.png width =""500"" height = ""500"" style=""border:5px solid black"">","","",""
"","132.8450000146404","stimulus-presentation","181","365711","0.0-17.0-1.32","SS1604516384998","<img src='images/simple/12.png' width ='500' height = '500' style='border:5px solid black'>","40","all_simple","images/simple/16.png","images/simple/12.png","images/simple/8.png,images/simple/1.png,images/simple/9.png,images/simple/11.png,images/simple/3.png,images/simple/2.png,images/simple/14.png","1","null","","200","332.8450000146404","","","","background","",""
"","null","html-keyboard-response","182","366687","0.0-17.0-0.33","SS1604516384998","","null","","","","","","","","","","","","<img src=images/blank.png width =""500"" height = ""500"" style=""border:5px solid black"">","","",""
"","442.7149999537505","stimulus-presentation","183","367343","0.0-17.0-1.33","SS1604516384998","<img src='images/simple/3.png' width ='500' height = '500' style='border:5px solid black'>","40","all_simple","images/simple/16.png","images/simple/12.png","images/simple/8.png,images/simple/1.png,images/simple/9.png,images/simple/11.png,images/simple/3.png,images/simple/2.png,images/simple/14.png","1","null","","200","642.7149999537505","","","","deviant","",""
"","null","html-keyboard-response","184","368281","0.0-17.0-0.34","SS1604516384998","","null","","","","","","","","","","","","<img src=images/blank.png width =""500"" height = ""500"" style=""border:5px solid black"">","","",""
"","168.77499996917322","stimulus-presentation","185","368663","0.0-17.0-1.34","SS1604516384998","<img src='images/simple/16.png' width ='500' height = '500' style='border:5px solid black'>","40","all_simple","images/simple/16.png","images/simple/12.png","images/simple/8.png,images/simple/1.png,images/simple/9.png,images/simple/11.png,images/simple/3.png,images/simple/2.png,images/simple/14.png","1","null","","200","368.7749999691732","","","","target","",""
"","null","html-keyboard-response","186","369615","0.0-17.0-0.35","SS1604516384998","","null","","","","","","","","","","","","<img src=images/blank.png width =""500"" height = ""500"" style=""border:5px solid black"">","","",""
"","10.519999952521175","stimulus-presentation","187","369839","0.0-17.0-1.35","SS1604516384998","<img src='images/simple/12.png' width ='500' height = '500' style='border:5px solid black'>","40","all_simple","images/simple/16.png","images/simple/12.png","images/simple/8.png,images/simple/1.png,images/simple/9.png,images/simple/11.png,images/simple/3.png,images/simple/2.png,images/simple/14.png","1","null","","200","210.51999995252118","","","","background","",""
"","null","html-keyboard-response","188","370824","0.0-17.0-0.36","SS1604516384998","","null","","","","","","","","","","","","<img src=images/blank.png width =""500"" height = ""500"" style=""border:5px solid black"">","","",""
"","113.61499998020008","stimulus-presentation","189","371151","0.0-17.0-1.36","SS1604516384998","<img src='images/simple/16.png' width ='500' height = '500' style='border:5px solid black'>","40","all_simple","images/simple/16.png","images/simple/12.png","images/simple/8.png,images/simple/1.png,images/simple/9.png,images/simple/11.png,images/simple/3.png,images/simple/2.png,images/simple/14.png","1","null","","200","313.6149999802001","","","","target","",""
"","null","html-keyboard-response","190","372017","0.0-17.0-0.37","SS1604516384998","","null","","","","","","","","","","","","<img src=images/blank.png width =""500"" height = ""500"" style=""border:5px solid black"">","","",""
"","112.32000001473352","stimulus-presentation","191","372342","0.0-17.0-1.37","SS1604516384998","<img src='images/simple/12.png' width ='500' height = '500' style='border:5px solid black'>","40","all_simple","images/simple/16.png","images/simple/12.png","images/simple/8.png,images/simple/1.png,images/simple/9.png,images/simple/11.png,images/simple/3.png,images/simple/2.png,images/simple/14.png","1","null","","200","312.3200000147335","","","","background","",""
"","null","html-keyboard-response","192","373585","0.0-17.0-0.38","SS1604516384998","","null","","","","","","","","","","","","<img src=images/blank.png width =""500"" height = ""500"" style=""border:5px solid black"">","","",""
"","184.41500002518296","stimulus-presentation","193","373983","0.0-17.0-1.38","SS1604516384998","<img src='images/simple/12.png' width ='500' height = '500' style='border:5px solid black'>","40","all_simple","images/simple/16.png","images/simple/12.png","images/simple/8.png,images/simple/1.png,images/simple/9.png,images/simple/11.png,images/simple/3.png,images/simple/2.png,images/simple/14.png","1","null","","200","384.41500002518296","","","","background","",""
"","null","html-keyboard-response","194","375074","0.0-17.0-0.39","SS1604516384998","","null","","","","","","","","","","","","<img src=images/blank.png width =""500"" height = ""500"" style=""border:5px solid black"">","","",""
"","95.07999999914318","stimulus-presentation","195","375382","0.0-17.0-1.39","SS1604516384998","<img src='images/simple/12.png' width ='500' height = '500' style='border:5px solid black'>","40","all_simple","images/simple/16.png","images/simple/12.png","images/simple/8.png,images/simple/1.png,images/simple/9.png,images/simple/11.png,images/simple/3.png,images/simple/2.png,images/simple/14.png","1","null","","200","295.0799999991432","","","","background","",""
"","null","html-keyboard-response","196","376621","0.0-17.0-0.40","SS1604516384998","","null","","","","","","","","","","","","<img src=images/blank.png width =""500"" height = ""500"" style=""border:5px solid black"">","","",""
"","20.064999989699572","stimulus-presentation","197","376854","0.0-17.0-1.40","SS1604516384998","<img src='images/simple/12.png' width ='500' height = '500' style='border:5px solid black'>","40","all_simple","images/simple/16.png","images/simple/12.png","images/simple/8.png,images/simple/1.png,images/simple/9.png,images/simple/11.png,images/simple/3.png,images/simple/2.png,images/simple/14.png","1","null","","200","220.06499998969957","","","","background","",""
"","null","html-keyboard-response","198","378051","0.0-17.0-0.41","SS1604516384998","","null","","","","","","","","","","","","<img src=images/blank.png width =""500"" height = ""500"" style=""border:5px solid black"">","","",""
"","143.00999999977648","stimulus-presentation","199","378407","0.0-17.0-1.41","SS1604516384998","<img src='images/simple/16.png' width ='500' height = '500' style='border:5px solid black'>","40","all_simple","images/simple/16.png","images/simple/12.png","images/simple/8.png,images/simple/1.png,images/simple/9.png,images/simple/11.png,images/simple/3.png,images/simple/2.png,images/simple/14.png","1","null","","200","343.0099999997765","","","","target","",""
"","null","html-keyboard-response","200","379351","0.0-17.0-0.42","SS1604516384998","","null","","","","","","","","","","","","<img src=images/blank.png width =""500"" height = ""500"" style=""border:5px solid black"">","","",""
"","714.9099999805912","stimulus-presentation","201","380279","0.0-17.0-1.42","SS1604516384998","<img src='images/simple/12.png' width ='500' height = '500' style='border:5px solid black'>","40","all_simple","images/simple/16.png","images/simple/12.png","images/simple/8.png,images/simple/1.png,images/simple/9.png,images/simple/11.png,images/simple/3.png,images/simple/2.png,images/simple/14.png","1","null","","200","914.9099999805912","","","","background","",""
"","null","html-keyboard-response","202","381244","0.0-17.0-0.43","SS1604516384998","","null","","","","","","","","","","","","<img src=images/blank.png width =""500"" height = ""500"" style=""border:5px solid black"">","","",""
"","2324.9049999867566","stimulus-presentation","203","383782","0.0-17.0-1.43","SS1604516384998","<img src='images/simple/12.png' width ='500' height = '500' style='border:5px solid black'>","40","all_simple","images/simple/16.png","images/simple/12.png","images/simple/8.png,images/simple/1.png,images/simple/9.png,images/simple/11.png,images/simple/3.png,images/simple/2.png,images/simple/14.png","1","null","","200","2524.9049999867566","","","","background","",""
"","null","html-keyboard-response","204","384601","0.0-17.0-0.44","SS1604516384998","","null","","","","","","","","","","","","<img src=images/blank.png width =""500"" height = ""500"" style=""border:5px solid black"">","","",""
"","1710.674999980256","stimulus-presentation","205","386526","0.0-17.0-1.44","SS1604516384998","<img src='images/simple/9.png' width ='500' height = '500' style='border:5px solid black'>","40","all_simple","images/simple/16.png","images/simple/12.png","images/simple/8.png,images/simple/1.png,images/simple/9.png,images/simple/11.png,images/simple/3.png,images/simple/2.png,images/simple/14.png","1","null","","200","1910.674999980256","","","","deviant","",""
"","null","html-keyboard-response","206","387555","0.0-17.0-0.45","SS1604516384998","","null","","","","","","","","","","","","<img src=images/blank.png width =""500"" height = ""500"" style=""border:5px solid black"">","","",""
"","129.47499996516854","stimulus-presentation","207","387902","0.0-17.0-1.45","SS1604516384998","<img src='images/simple/12.png' width ='500' height = '500' style='border:5px solid black'>","40","all_simple","images/simple/16.png","images/simple/12.png","images/simple/8.png,images/simple/1.png,images/simple/9.png,images/simple/11.png,images/simple/3.png,images/simple/2.png,images/simple/14.png","1","null","","200","329.47499996516854","","","","background","",""
"","null","html-keyboard-response","208","388783","0.0-17.0-0.46","SS1604516384998","","null","","","","","","","","","","","","<img src=images/blank.png width =""500"" height = ""500"" style=""border:5px solid black"">","","",""
"","351.3599999714643","stimulus-presentation","209","389350","0.0-17.0-1.46","SS1604516384998","<img src='images/simple/12.png' width ='500' height = '500' style='border:5px solid black'>","40","all_simple","images/simple/16.png","images/simple/12.png","images/simple/8.png,images/simple/1.png,images/simple/9.png,images/simple/11.png,images/simple/3.png,images/simple/2.png,images/simple/14.png","1","null","","200","551.3599999714643","","","","background","",""
"","null","html-keyboard-response","210","390602","0.0-17.0-0.47","SS1604516384998","","null","","","","","","","","","","","","<img src=images/blank.png width =""500"" height = ""500"" style=""border:5px solid black"">","","",""
"","412.1949999826029","stimulus-presentation","211","391230","0.0-17.0-1.47","SS1604516384998","<img src='images/simple/12.png' width ='500' height = '500' style='border:5px solid black'>","40","all_simple","images/simple/16.png","images/simple/12.png","images/simple/8.png,images/simple/1.png,images/simple/9.png,images/simple/11.png,images/simple/3.png,images/simple/2.png,images/simple/14.png","1","null","","200","612.1949999826029","","","","background","",""
"","null","html-keyboard-response","212","392167","0.0-17.0-0.48","SS1604516384998","","null","","","","","","","","","","","","<img src=images/blank.png width =""500"" height = ""500"" style=""border:5px solid black"">","","",""
"","352.2099999827333","stimulus-presentation","213","392734","0.0-17.0-1.48","SS1604516384998","<img src='images/simple/12.png' width ='500' height = '500' style='border:5px solid black'>","40","all_simple","images/simple/16.png","images/simple/12.png","images/simple/8.png,images/simple/1.png,images/simple/9.png,images/simple/11.png,images/simple/3.png,images/simple/2.png,images/simple/14.png","1","null","","200","552.2099999827333","","","","background","",""
"[{""page_index"":0,""viewing_time"":556739}]","556740","task-instructions","214","949487","0.0-18.0","SS1604516384998","","","","","","","","","","","","","","","","",""
"[{""page_index"":0,""viewing_time"":980.0149999791756},{""page_index"":1,""viewing_time"":4134.950000036042},{""page_index"":2,""viewing_time"":1543.9649999607354}]","6659.334999974817","instructions","215","956165","0.0-19.0","SS1604516384998","","","","","","","","","","","","","","","","",""
"","null","html-keyboard-response","216","957172","0.0-20.0-0.0","SS1604516384998","","null","","","","","","","","","","","","<img src=images/blank.png width =""500"" height = ""500"" style=""border:5px solid black"">","","",""
"","4210.62999998685","stimulus-presentation","217","961594","0.0-20.0-1.0","SS1604516384998","<img src='images/complex/1.png' width ='500' height = '500' style='border:5px solid black'>","40","all_complex","images/complex/9.png","images/complex/1.png","images/complex/7.png,images/complex/2.png,images/complex/13.png,images/complex/16.png,images/complex/8.png,images/complex/15.png,images/complex/18.png","2","null","","200","4410.62999998685","","","","background","",""
"","null","html-keyboard-response","218","962861","0.0-20.0-0.1","SS1604516384998","","null","","","","","","","","","","","","<img src=images/blank.png width =""500"" height = ""500"" style=""border:5px solid black"">","","",""
"","220.5200000316836","stimulus-presentation","219","963298","0.0-20.0-1.1","SS1604516384998","<img src='images/complex/9.png' width ='500' height = '500' style='border:5px solid black'>","40","all_complex","images/complex/9.png","images/complex/1.png","images/complex/7.png,images/complex/2.png,images/complex/13.png,images/complex/16.png,images/complex/8.png,images/complex/15.png,images/complex/18.png","2","null","","200","420.5200000316836","","","","target","",""
"","null","html-keyboard-response","220","964244","0.0-20.0-0.2","SS1604516384998","","null","","","","","","","","","","","","<img src=images/blank.png width =""500"" height = ""500"" style=""border:5px solid black"">","","",""
"","230.4850000073202","stimulus-presentation","221","964690","0.0-20.0-1.2","SS1604516384998","<img src='images/complex/1.png' width ='500' height = '500' style='border:5px solid black'>","40","all_complex","images/complex/9.png","images/complex/1.png","images/complex/7.png,images/complex/2.png,images/complex/13.png,images/complex/16.png,images/complex/8.png,images/complex/15.png,images/complex/18.png","2","null","","200","430.4850000073202","","","","background","",""
"","null","html-keyboard-response","222","965817","0.0-20.0-0.3","SS1604516384998","","null","","","","","","","","","","","","<img src=images/blank.png width =""500"" height = ""500"" style=""border:5px solid black"">","","",""
"","17.494999978225678","stimulus-presentation","223","966050","0.0-20.0-1.3","SS1604516384998","<img src='images/complex/8.png' width ='500' height = '500' style='border:5px solid black'>","40","all_complex","images/complex/9.png","images/complex/1.png","images/complex/7.png,images/complex/2.png,images/complex/13.png,images/complex/16.png,images/complex/8.png,images/complex/15.png,images/complex/18.png","2","null","","200","217.49499997822568","","","","deviant","",""
"","null","html-keyboard-response","224","967287","0.0-20.0-0.4","SS1604516384998","","null","","","","","","","","","","","","<img src=images/blank.png width =""500"" height = ""500"" style=""border:5px solid black"">","","",""
"","210.60499997111037","stimulus-presentation","225","967713","0.0-20.0-1.4","SS1604516384998","<img src='images/complex/1.png' width ='500' height = '500' style='border:5px solid black'>","40","all_complex","images/complex/9.png","images/complex/1.png","images/complex/7.png,images/complex/2.png,images/complex/13.png,images/complex/16.png,images/complex/8.png,images/complex/15.png,images/complex/18.png","2","null","","200","410.6049999711104","","","","background","",""
"","null","html-keyboard-response","226","969012","0.0-20.0-0.5","SS1604516384998","","null","","","","","","","","","","","","<img src=images/blank.png width =""500"" height = ""500"" style=""border:5px solid black"">","","",""
"","119.21500001335517","stimulus-presentation","227","969346","0.0-20.0-1.5","SS1604516384998","<img src='images/complex/1.png' width ='500' height = '500' style='border:5px solid black'>","40","all_complex","images/complex/9.png","images/complex/1.png","images/complex/7.png,images/complex/2.png,images/complex/13.png,images/complex/16.png,images/complex/8.png,images/complex/15.png,images/complex/18.png","2","null","","200","319.21500001335517","","","","background","",""
"","null","html-keyboard-response","228","970391","0.0-20.0-0.6","SS1604516384998","","null","","","","","","","","","","","","<img src=images/blank.png width =""500"" height = ""500"" style=""border:5px solid black"">","","",""
"","178.29000001074746","stimulus-presentation","229","970793","0.0-20.0-1.6","SS1604516384998","<img src='images/complex/1.png' width ='500' height = '500' style='border:5px solid black'>","40","all_complex","images/complex/9.png","images/complex/1.png","images/complex/7.png,images/complex/2.png,images/complex/13.png,images/complex/16.png,images/complex/8.png,images/complex/15.png,images/complex/18.png","2","null","","200","378.29000001074746","","","","background","",""
"","null","html-keyboard-response","230","971630","0.0-20.0-0.7","SS1604516384998","","null","","","","","","","","","","","","<img src=images/blank.png width =""500"" height = ""500"" style=""border:5px solid black"">","","",""
"","134.12999996216968","stimulus-presentation","231","971979","0.0-20.0-1.7","SS1604516384998","<img src='images/complex/9.png' width ='500' height = '500' style='border:5px solid black'>","40","all_complex","images/complex/9.png","images/complex/1.png","images/complex/7.png,images/complex/2.png,images/complex/13.png,images/complex/16.png,images/complex/8.png,images/complex/15.png,images/complex/18.png","2","null","","200","334.1299999621697","","","","target","",""
"","null","html-keyboard-response","232","973049","0.0-20.0-0.8","SS1604516384998","","null","","","","","","","","","","","","<img src=images/blank.png width =""500"" height = ""500"" style=""border:5px solid black"">","","",""
"","169.7699999785982","stimulus-presentation","233","973434","0.0-20.0-1.8","SS1604516384998","<img src='images/complex/16.png' width ='500' height = '500' style='border:5px solid black'>","40","all_complex","images/complex/9.png","images/complex/1.png","images/complex/7.png,images/complex/2.png,images/complex/13.png,images/complex/16.png,images/complex/8.png,images/complex/15.png,images/complex/18.png","2","null","","200","369.7699999785982","","","","deviant","",""
"","null","html-keyboard-response","234","974552","0.0-20.0-0.9","SS1604516384998","","null","","","","","","","","","","","","<img src=images/blank.png width =""500"" height = ""500"" style=""border:5px solid black"">","","",""
"","66.61999999778345","stimulus-presentation","235","974834","0.0-20.0-1.9","SS1604516384998","<img src='images/complex/1.png' width ='500' height = '500' style='border:5px solid black'>","40","all_complex","images/complex/9.png","images/complex/1.png","images/complex/7.png,images/complex/2.png,images/complex/13.png,images/complex/16.png,images/complex/8.png,images/complex/15.png,images/complex/18.png","2","null","","200","266.61999999778345","","","","background","",""
"","null","html-keyboard-response","236","975768","0.0-20.0-0.10","SS1604516384998","","null","","","","","","","","","","","","<img src=images/blank.png width =""500"" height = ""500"" style=""border:5px solid black"">","","",""
"","138.9700000290759","stimulus-presentation","237","976115","0.0-20.0-1.10","SS1604516384998","<img src='images/complex/1.png' width ='500' height = '500' style='border:5px solid black'>","40","all_complex","images/complex/9.png","images/complex/1.png","images/complex/7.png,images/complex/2.png,images/complex/13.png,images/complex/16.png,images/complex/8.png,images/complex/15.png,images/complex/18.png","2","null","","200","338.9700000290759","","","","background","",""
"","null","html-keyboard-response","238","977255","0.0-20.0-0.11","SS1604516384998","","null","","","","","","","","","","","","<img src=images/blank.png width =""500"" height = ""500"" style=""border:5px solid black"">","","",""
"","10.520000010728836","stimulus-presentation","239","977482","0.0-20.0-1.11","SS1604516384998","<img src='images/complex/1.png' width ='500' height = '500' style='border:5px solid black'>","40","all_complex","images/complex/9.png","images/complex/1.png","images/complex/7.png,images/complex/2.png,images/complex/13.png,images/complex/16.png,images/complex/8.png,images/complex/15.png,images/complex/18.png","2","null","","200","210.52000001072884","","","","background","",""
"","null","html-keyboard-response","240","978604","0.0-20.0-0.12","SS1604516384998","","null","","","","","","","","","","","","<img src=images/blank.png width =""500"" height = ""500"" style=""border:5px solid black"">","","",""
"","1630.0349999801256","stimulus-presentation","241","980441","0.0-20.0-1.12","SS1604516384998","<img src='images/complex/1.png' width ='500' height = '500' style='border:5px solid black'>","40","all_complex","images/complex/9.png","images/complex/1.png","images/complex/7.png,images/complex/2.png,images/complex/13.png,images/complex/16.png,images/complex/8.png,images/complex/15.png,images/complex/18.png","2","null","","200","1830.0349999801256","","","","background","",""
"","null","html-keyboard-response","242","981507","0.0-20.0-0.13","SS1604516384998","","null","","","","","","","","","","","","<img src=images/blank.png width =""500"" height = ""500"" style=""border:5px solid black"">","","",""
"","254.69500001054257","stimulus-presentation","243","981978","0.0-20.0-1.13","SS1604516384998","<img src='images/complex/1.png' width ='500' height = '500' style='border:5px solid black'>","40","all_complex","images/complex/9.png","images/complex/1.png","images/complex/7.png,images/complex/2.png,images/complex/13.png,images/complex/16.png,images/complex/8.png,images/complex/15.png,images/complex/18.png","2","null","","200","454.69500001054257","","","","background","",""
"","null","html-keyboard-response","244","982856","0.0-20.0-0.14","SS1604516384998","","null","","","","","","","","","","","","<img src=images/blank.png width =""500"" height = ""500"" style=""border:5px solid black"">","","",""
"","56.72500003129244","stimulus-presentation","245","983130","0.0-20.0-1.14","SS1604516384998","<img src='images/complex/1.png' width ='500' height = '500' style='border:5px solid black'>","40","all_complex","images/complex/9.png","images/complex/1.png","images/complex/7.png,images/complex/2.png,images/complex/13.png,images/complex/16.png,images/complex/8.png,images/complex/15.png,images/complex/18.png","2","null","","200","256.72500003129244","","","","background","",""
"","null","html-keyboard-response","246","984074","0.0-20.0-0.15","SS1604516384998","","null","","","","","","","","","","","","<img src=images/blank.png width =""500"" height = ""500"" style=""border:5px solid black"">","","",""
"","168.08999999193475","stimulus-presentation","247","984459","0.0-20.0-1.15","SS1604516384998","<img src='images/complex/1.png' width ='500' height = '500' style='border:5px solid black'>","40","all_complex","images/complex/9.png","images/complex/1.png","images/complex/7.png,images/complex/2.png,images/complex/13.png,images/complex/16.png,images/complex/8.png,images/complex/15.png,images/complex/18.png","2","null","","200","368.08999999193475","","","","background","",""
"","null","html-keyboard-response","248","985636","0.0-20.0-0.16","SS1604516384998","","null","","","","","","","","","","","","<img src=images/blank.png width =""500"" height = ""500"" style=""border:5px solid black"">","","",""
"","148.95499998237938","stimulus-presentation","249","986002","0.0-20.0-1.16","SS1604516384998","<img src='images/complex/1.png' width ='500' height = '500' style='border:5px solid black'>","40","all_complex","images/complex/9.png","images/complex/1.png","images/complex/7.png,images/complex/2.png,images/complex/13.png,images/complex/16.png,images/complex/8.png,images/complex/15.png,images/complex/18.png","2","null","","200","348.9549999823794","","","","background","",""
"","null","html-keyboard-response","250","987056","0.0-20.0-0.17","SS1604516384998","","null","","","","","","","","","","","","<img src=images/blank.png width =""500"" height = ""500"" style=""border:5px solid black"">","","",""
"","36.98500001337379","stimulus-presentation","251","987306","0.0-20.0-1.17","SS1604516384998","<img src='images/complex/9.png' width ='500' height = '500' style='border:5px solid black'>","40","all_complex","images/complex/9.png","images/complex/1.png","images/complex/7.png,images/complex/2.png,images/complex/13.png,images/complex/16.png,images/complex/8.png,images/complex/15.png,images/complex/18.png","2","null","","200","236.9850000133738","","","","target","",""
"","null","html-keyboard-response","252","988350","0.0-20.0-0.18","SS1604516384998","","null","","","","","","","","","","","","<img src=images/blank.png width =""500"" height = ""500"" style=""border:5px solid black"">","","",""
"","154.89000000525266","stimulus-presentation","253","988722","0.0-20.0-1.18","SS1604516384998","<img src='images/complex/13.png' width ='500' height = '500' style='border:5px solid black'>","40","all_complex","images/complex/9.png","images/complex/1.png","images/complex/7.png,images/complex/2.png,images/complex/13.png,images/complex/16.png,images/complex/8.png,images/complex/15.png,images/complex/18.png","2","null","","200","354.89000000525266","","","","deviant","",""
"","null","html-keyboard-response","254","989736","0.0-20.0-0.19","SS1604516384998","","null","","","","","","","","","","","","<img src=images/blank.png width =""500"" height = ""500"" style=""border:5px solid black"">","","",""
"","39.66000000946224","stimulus-presentation","255","989994","0.0-20.0-1.19","SS1604516384998","<img src='images/complex/1.png' width ='500' height = '500' style='border:5px solid black'>","40","all_complex","images/complex/9.png","images/complex/1.png","images/complex/7.png,images/complex/2.png,images/complex/13.png,images/complex/16.png,images/complex/8.png,images/complex/15.png,images/complex/18.png","2","null","","200","239.66000000946224","","","","background","",""
"","null","html-keyboard-response","256","990969","0.0-20.0-0.20","SS1604516384998","","null","","","","","","","","","","","","<img src=images/blank.png width =""500"" height = ""500"" style=""border:5px solid black"">","","",""
"","55.58000004384667","stimulus-presentation","257","991241","0.0-20.0-1.20","SS1604516384998","<img src='images/complex/1.png' width ='500' height = '500' style='border:5px solid black'>","40","all_complex","images/complex/9.png","images/complex/1.png","images/complex/7.png,images/complex/2.png,images/complex/13.png,images/complex/16.png,images/complex/8.png,images/complex/15.png,images/complex/18.png","2","null","","200","255.58000004384667","","","","background","",""
"","null","html-keyboard-response","258","992363","0.0-20.0-0.21","SS1604516384998","","null","","","","","","","","","","","","<img src=images/blank.png width =""500"" height = ""500"" style=""border:5px solid black"">","","",""
"","97.60999999707565","stimulus-presentation","259","992674","0.0-20.0-1.21","SS1604516384998","<img src='images/complex/15.png' width ='500' height = '500' style='border:5px solid black'>","40","all_complex","images/complex/9.png","images/complex/1.png","images/complex/7.png,images/complex/2.png,images/complex/13.png,images/complex/16.png,images/complex/8.png,images/complex/15.png,images/complex/18.png","2","null","","200","297.60999999707565","","","","deviant","",""
"","null","html-keyboard-response","260","993586","0.0-20.0-0.22","SS1604516384998","","null","","","","","","","","","","","","<img src=images/blank.png width =""500"" height = ""500"" style=""border:5px solid black"">","","",""
"","78.28499999595806","stimulus-presentation","261","993873","0.0-20.0-1.22","SS1604516384998","<img src='images/complex/1.png' width ='500' height = '500' style='border:5px solid black'>","40","all_complex","images/complex/9.png","images/complex/1.png","images/complex/7.png,images/complex/2.png,images/complex/13.png,images/complex/16.png,images/complex/8.png,images/complex/15.png,images/complex/18.png","2","null","","200","278.28499999595806","","","","background","",""
"","null","html-keyboard-response","262","994739","0.0-20.0-0.23","SS1604516384998","","null","","","","","","","","","","","","<img src=images/blank.png width =""500"" height = ""500"" style=""border:5px solid black"">","","",""
"","109.43000001134351","stimulus-presentation","263","995065","0.0-20.0-1.23","SS1604516384998","<img src='images/complex/1.png' width ='500' height = '500' style='border:5px solid black'>","40","all_complex","images/complex/9.png","images/complex/1.png","images/complex/7.png,images/complex/2.png,images/complex/13.png,images/complex/16.png,images/complex/8.png,images/complex/15.png,images/complex/18.png","2","null","","200","309.4300000113435","","","","background","",""
"","null","html-keyboard-response","264","996347","0.0-20.0-0.24","SS1604516384998","","null","","","","","","","","","","","","<img src=images/blank.png width =""500"" height = ""500"" style=""border:5px solid black"">","","",""
"","85.75999998720363","stimulus-presentation","265","996649","0.0-20.0-1.24","SS1604516384998","<img src='images/complex/1.png' width ='500' height = '500' style='border:5px solid black'>","40","all_complex","images/complex/9.png","images/complex/1.png","images/complex/7.png,images/complex/2.png,images/complex/13.png,images/complex/16.png,images/complex/8.png,images/complex/15.png,images/complex/18.png","2","null","","200","285.7599999872036","","","","background","",""
"","null","html-keyboard-response","266","997557","0.0-20.0-0.25","SS1604516384998","","null","","","","","","","","","","","","<img src=images/blank.png width =""500"" height = ""500"" style=""border:5px solid black"">","","",""
"","92.2349999891594","stimulus-presentation","267","997865","0.0-20.0-1.25","SS1604516384998","<img src='images/complex/1.png' width ='500' height = '500' style='border:5px solid black'>","40","all_complex","images/complex/9.png","images/complex/1.png","images/complex/7.png,images/complex/2.png,images/complex/13.png,images/complex/16.png,images/complex/8.png,images/complex/15.png,images/complex/18.png","2","null","","200","292.2349999891594","","","","background","",""
"","null","html-keyboard-response","268","998862","0.0-20.0-0.26","SS1604516384998","","null","","","","","","","","","","","","<img src=images/blank.png width =""500"" height = ""500"" style=""border:5px solid black"">","","",""
"","131.15000003017485","stimulus-presentation","269","999209","0.0-20.0-1.26","SS1604516384998","<img src='images/complex/7.png' width ='500' height = '500' style='border:5px solid black'>","40","all_complex","images/complex/9.png","images/complex/1.png","images/complex/7.png,images/complex/2.png,images/complex/13.png,images/complex/16.png,images/complex/8.png,images/complex/15.png,images/complex/18.png","2","null","","200","331.15000003017485","","","","deviant","",""
"","null","html-keyboard-response","270","1000127","0.0-20.0-0.27","SS1604516384998","","null","","","","","","","","","","","","<img src=images/blank.png width =""500"" height = ""500"" style=""border:5px solid black"">","","",""
"","149.10000003874302","stimulus-presentation","271","1000489","0.0-20.0-1.27","SS1604516384998","<img src='images/complex/9.png' width ='500' height = '500' style='border:5px solid black'>","40","all_complex","images/complex/9.png","images/complex/1.png","images/complex/7.png,images/complex/2.png,images/complex/13.png,images/complex/16.png,images/complex/8.png,images/complex/15.png,images/complex/18.png","2","null","","200","349.100000038743","","","","target","",""
"","null","html-keyboard-response","272","1001521","0.0-20.0-0.28","SS1604516384998","","null","","","","","","","","","","","","<img src=images/blank.png width =""500"" height = ""500"" style=""border:5px solid black"">","","",""
"","47.84000001382083","stimulus-presentation","273","1001785","0.0-20.0-1.28","SS1604516384998","<img src='images/complex/1.png' width ='500' height = '500' style='border:5px solid black'>","40","all_complex","images/complex/9.png","images/complex/1.png","images/complex/7.png,images/complex/2.png,images/complex/13.png,images/complex/16.png,images/complex/8.png,images/complex/15.png,images/complex/18.png","2","null","","200","247.84000001382083","","","","background","",""
"","null","html-keyboard-response","274","1002868","0.0-20.0-0.29","SS1604516384998","","null","","","","","","","","","","","","<img src=images/blank.png width =""500"" height = ""500"" style=""border:5px solid black"">","","",""
"","154.98499997192994","stimulus-presentation","275","1003241","0.0-20.0-1.29","SS1604516384998","<img src='images/complex/1.png' width ='500' height = '500' style='border:5px solid black'>","40","all_complex","images/complex/9.png","images/complex/1.png","images/complex/7.png,images/complex/2.png,images/complex/13.png,images/complex/16.png,images/complex/8.png,images/complex/15.png,images/complex/18.png","2","null","","200","354.98499997192994","","","","background","",""
"","null","html-keyboard-response","276","1004331","0.0-20.0-0.30","SS1604516384998","","null","","","","","","","","","","","","<img src=images/blank.png width =""500"" height = ""500"" style=""border:5px solid black"">","","",""
"","126.8049999489449","stimulus-presentation","277","1004665","0.0-20.0-1.30","SS1604516384998","<img src='images/complex/1.png' width ='500' height = '500' style='border:5px solid black'>","40","all_complex","images/complex/9.png","images/complex/1.png","images/complex/7.png,images/complex/2.png,images/complex/13.png,images/complex/16.png,images/complex/8.png,images/complex/15.png,images/complex/18.png","2","null","","200","326.8049999489449","","","","background","",""
"","null","html-keyboard-response","278","1005616","0.0-20.0-0.31","SS1604516384998","","null","","","","","","","","","","","","<img src=images/blank.png width =""500"" height = ""500"" style=""border:5px solid black"">","","",""
"","128.71999997878447","stimulus-presentation","279","1005963","0.0-20.0-1.31","SS1604516384998","<img src='images/complex/1.png' width ='500' height = '500' style='border:5px solid black'>","40","all_complex","images/complex/9.png","images/complex/1.png","images/complex/7.png,images/complex/2.png,images/complex/13.png,images/complex/16.png,images/complex/8.png,images/complex/15.png,images/complex/18.png","2","null","","200","328.7199999787845","","","","background","",""
"","null","html-keyboard-response","280","1006978","0.0-20.0-0.32","SS1604516384998","","null","","","","","","","","","","","","<img src=images/blank.png width =""500"" height = ""500"" style=""border:5px solid black"">","","",""
"","109.99000002630055","stimulus-presentation","281","1007297","0.0-20.0-1.32","SS1604516384998","<img src='images/complex/1.png' width ='500' height = '500' style='border:5px solid black'>","40","all_complex","images/complex/9.png","images/complex/1.png","images/complex/7.png,images/complex/2.png,images/complex/13.png,images/complex/16.png,images/complex/8.png,images/complex/15.png,images/complex/18.png","2","null","","200","309.99000002630055","","","","background","",""
"","null","html-keyboard-response","282","1008473","0.0-20.0-0.33","SS1604516384998","","null","","","","","","","","","","","","<img src=images/blank.png width =""500"" height = ""500"" style=""border:5px solid black"">","","",""
"","18.50499998545274","stimulus-presentation","283","1008706","0.0-20.0-1.33","SS1604516384998","<img src='images/complex/2.png' width ='500' height = '500' style='border:5px solid black'>","40","all_complex","images/complex/9.png","images/complex/1.png","images/complex/7.png,images/complex/2.png,images/complex/13.png,images/complex/16.png,images/complex/8.png,images/complex/15.png,images/complex/18.png","2","null","","200","218.50499998545274","","","","deviant","",""
"","null","html-keyboard-response","284","1009941","0.0-20.0-0.34","SS1604516384998","","null","","","","","","","","","","","","<img src=images/blank.png width =""500"" height = ""500"" style=""border:5px solid black"">","","",""
