"view_history","rt","trial_type","trial_index","time_elapsed","internal_node_id","subject","stimulus","key_press","trial_stimulus","trial_stimulus_type","task_type","task_target_stimulus","task_background_stimulus","task_deviant_stimuli","task_order_number","blcok_order_number","trial_order_number","minimum_viewing_duration","trial_looking_time","trial_pressed_space_bar","responses","question_order"
"[{""page_index"":0,""viewing_time"":1509.4150000077207},{""page_index"":1,""viewing_time"":88176.14499999036},{""page_index"":2,""viewing_time"":911.2050000112504},{""page_index"":3,""viewing_time"":1056.1149999994086},{""page_index"":4,""viewing_time"":591.5849999873899}]","92245.73000000964","instructions","0","92248","0.0-0.0","SS1602366760417","","","","","","","","","","","","","","","",""
"","null","html-keyboard-response","1","93155","0.0-1.0-0.0","SS1602366760417","<img src=images/blank.png width =""500"" height = ""600"" style=""border:5px solid black"">","null","","","","","","","","","","","","","",""
"","42.19500000181142","stimulus-presentation","2","93805","0.0-1.0-1.0","SS1602366760417","","40","<img src='images/complex/64.png' width ='500' height = '600' style='border:5px solid black'>","deviant","mixed_complex_deviant","images/simple/108.png","images/simple/31.png","images/complex/118.png,images/complex/23.png,images/complex/117.png,images/complex/64.png,images/complex/82.png,images/complex/54.png,images/complex/36.png,images/complex/2.png,images/complex/87.png,images/complex/77.png,images/complex/84.png,images/complex/44.png,images/complex/53.png,images/complex/75.png,images/complex/80.png,images/complex/68.png,images/complex/81.png,images/complex/70.png,images/complex/108.png,images/complex/32.png,images/complex/30.png,images/complex/119.png,images/complex/48.png,images/complex/109.png,images/complex/111.png,images/complex/71.png,images/complex/4.png,images/complex/97.png,images/complex/17.png,images/complex/98.png,images/complex/55.png,images/complex/49.png,images/complex/63.png,images/complex/1.png,images/complex/106.png,images/complex/92.png,images/complex/50.png,images/complex/86.png","0","0","","600","642.1950000018114","","",""
"","null","html-keyboard-response","3","94880","0.0-1.0-0.1","SS1602366760417","<img src=images/blank.png width =""500"" height = ""600"" style=""border:5px solid black"">","null","","","","","","","","","","","","","",""
"","60.46000000787899","stimulus-presentation","4","95553","0.0-1.0-1.1","SS1602366760417","","40","<img src='images/simple/108.png' width ='500' height = '600' style='border:5px solid black'>","target","mixed_complex_deviant","images/simple/108.png","images/simple/31.png","images/complex/118.png,images/complex/23.png,images/complex/117.png,images/complex/64.png,images/complex/82.png,images/complex/54.png,images/complex/36.png,images/complex/2.png,images/complex/87.png,images/complex/77.png,images/complex/84.png,images/complex/44.png,images/complex/53.png,images/complex/75.png,images/complex/80.png,images/complex/68.png,images/complex/81.png,images/complex/70.png,images/complex/108.png,images/complex/32.png,images/complex/30.png,images/complex/119.png,images/complex/48.png,images/complex/109.png,images/complex/111.png,images/complex/71.png,images/complex/4.png,images/complex/97.png,images/complex/17.png,images/complex/98.png,images/complex/55.png,images/complex/49.png,images/complex/63.png,images/complex/1.png,images/complex/106.png,images/complex/92.png,images/complex/50.png,images/complex/86.png","0","0","","600","660.460000007879","","",""
"","null","html-keyboard-response","5","96825","0.0-1.0-0.2","SS1602366760417","<img src=images/blank.png width =""500"" height = ""600"" style=""border:5px solid black"">","null","","","","","","","","","","","","","",""
"","27.384999993955716","stimulus-presentation","6","97468","0.0-1.0-1.2","SS1602366760417","","40","<img src='images/simple/31.png' width ='500' height = '600' style='border:5px solid black'>","background","mixed_complex_deviant","images/simple/108.png","images/simple/31.png","images/complex/118.png,images/complex/23.png,images/complex/117.png,images/complex/64.png,images/complex/82.png,images/complex/54.png,images/complex/36.png,images/complex/2.png,images/complex/87.png,images/complex/77.png,images/complex/84.png,images/complex/44.png,images/complex/53.png,images/complex/75.png,images/complex/80.png,images/complex/68.png,images/complex/81.png,images/complex/70.png,images/complex/108.png,images/complex/32.png,images/complex/30.png,images/complex/119.png,images/complex/48.png,images/complex/109.png,images/complex/111.png,images/complex/71.png,images/complex/4.png,images/complex/97.png,images/complex/17.png,images/complex/98.png,images/complex/55.png,images/complex/49.png,images/complex/63.png,images/complex/1.png,images/complex/106.png,images/complex/92.png,images/complex/50.png,images/complex/86.png","0","0","","600","627.3849999939557","","",""
"","null","html-keyboard-response","7","98293","0.0-1.0-0.3","SS1602366760417","<img src=images/blank.png width =""500"" height = ""600"" style=""border:5px solid black"">","null","","","","","","","","","","","","","",""
"","198.4750000119675","stimulus-presentation","8","99106","0.0-1.0-1.3","SS1602366760417","","40","<img src='images/simple/31.png' width ='500' height = '600' style='border:5px solid black'>","background","mixed_complex_deviant","images/simple/108.png","images/simple/31.png","images/complex/118.png,images/complex/23.png,images/complex/117.png,images/complex/64.png,images/complex/82.png,images/complex/54.png,images/complex/36.png,images/complex/2.png,images/complex/87.png,images/complex/77.png,images/complex/84.png,images/complex/44.png,images/complex/53.png,images/complex/75.png,images/complex/80.png,images/complex/68.png,images/complex/81.png,images/complex/70.png,images/complex/108.png,images/complex/32.png,images/complex/30.png,images/complex/119.png,images/complex/48.png,images/complex/109.png,images/complex/111.png,images/complex/71.png,images/complex/4.png,images/complex/97.png,images/complex/17.png,images/complex/98.png,images/complex/55.png,images/complex/49.png,images/complex/63.png,images/complex/1.png,images/complex/106.png,images/complex/92.png,images/complex/50.png,images/complex/86.png","0","0","","600","798.4750000119675","","",""
"","null","html-keyboard-response","9","100416","0.0-1.0-0.4","SS1602366760417","<img src=images/blank.png width =""500"" height = ""600"" style=""border:5px solid black"">","null","","","","","","","","","","","","","",""
"","97.20999999262858","stimulus-presentation","10","101132","0.0-1.0-1.4","SS1602366760417","","40","<img src='images/complex/111.png' width ='500' height = '600' style='border:5px solid black'>","deviant","mixed_complex_deviant","images/simple/108.png","images/simple/31.png","images/complex/118.png,images/complex/23.png,images/complex/117.png,images/complex/64.png,images/complex/82.png,images/complex/54.png,images/complex/36.png,images/complex/2.png,images/complex/87.png,images/complex/77.png,images/complex/84.png,images/complex/44.png,images/complex/53.png,images/complex/75.png,images/complex/80.png,images/complex/68.png,images/complex/81.png,images/complex/70.png,images/complex/108.png,images/complex/32.png,images/complex/30.png,images/complex/119.png,images/complex/48.png,images/complex/109.png,images/complex/111.png,images/complex/71.png,images/complex/4.png,images/complex/97.png,images/complex/17.png,images/complex/98.png,images/complex/55.png,images/complex/49.png,images/complex/63.png,images/complex/1.png,images/complex/106.png,images/complex/92.png,images/complex/50.png,images/complex/86.png","0","0","","600","697.2099999926286","","",""
"","null","html-keyboard-response","11","102442","0.0-1.0-0.5","SS1602366760417","<img src=images/blank.png width =""500"" height = ""600"" style=""border:5px solid black"">","null","","","","","","","","","","","","","",""
"","134.62499999150168","stimulus-presentation","12","103195","0.0-1.0-1.5","SS1602366760417","","40","<img src='images/simple/31.png' width ='500' height = '600' style='border:5px solid black'>","background","mixed_complex_deviant","images/simple/108.png","images/simple/31.png","images/complex/118.png,images/complex/23.png,images/complex/117.png,images/complex/64.png,images/complex/82.png,images/complex/54.png,images/complex/36.png,images/complex/2.png,images/complex/87.png,images/complex/77.png,images/complex/84.png,images/complex/44.png,images/complex/53.png,images/complex/75.png,images/complex/80.png,images/complex/68.png,images/complex/81.png,images/complex/70.png,images/complex/108.png,images/complex/32.png,images/complex/30.png,images/complex/119.png,images/complex/48.png,images/complex/109.png,images/complex/111.png,images/complex/71.png,images/complex/4.png,images/complex/97.png,images/complex/17.png,images/complex/98.png,images/complex/55.png,images/complex/49.png,images/complex/63.png,images/complex/1.png,images/complex/106.png,images/complex/92.png,images/complex/50.png,images/complex/86.png","0","0","","600","734.6249999915017","","",""
"","null","html-keyboard-response","13","104213","0.0-1.0-0.6","SS1602366760417","<img src=images/blank.png width =""500"" height = ""600"" style=""border:5px solid black"">","null","","","","","","","","","","","","","",""
"","13686.984999993001","stimulus-presentation","14","118523","0.0-1.0-1.6","SS1602366760417","","40","<img src='images/simple/31.png' width ='500' height = '600' style='border:5px solid black'>","background","mixed_complex_deviant","images/simple/108.png","images/simple/31.png","images/complex/118.png,images/complex/23.png,images/complex/117.png,images/complex/64.png,images/complex/82.png,images/complex/54.png,images/complex/36.png,images/complex/2.png,images/complex/87.png,images/complex/77.png,images/complex/84.png,images/complex/44.png,images/complex/53.png,images/complex/75.png,images/complex/80.png,images/complex/68.png,images/complex/81.png,images/complex/70.png,images/complex/108.png,images/complex/32.png,images/complex/30.png,images/complex/119.png,images/complex/48.png,images/complex/109.png,images/complex/111.png,images/complex/71.png,images/complex/4.png,images/complex/97.png,images/complex/17.png,images/complex/98.png,images/complex/55.png,images/complex/49.png,images/complex/63.png,images/complex/1.png,images/complex/106.png,images/complex/92.png,images/complex/50.png,images/complex/86.png","0","0","","600","14286.984999993001","","",""
"","null","html-keyboard-response","15","119511","0.0-1.0-0.7","SS1602366760417","<img src=images/blank.png width =""500"" height = ""600"" style=""border:5px solid black"">","null","","","","","","","","","","","","","",""
"","162.14000000036322","stimulus-presentation","16","120297","0.0-1.0-1.7","SS1602366760417","","40","<img src='images/simple/31.png' width ='500' height = '600' style='border:5px solid black'>","background","mixed_complex_deviant","images/simple/108.png","images/simple/31.png","images/complex/118.png,images/complex/23.png,images/complex/117.png,images/complex/64.png,images/complex/82.png,images/complex/54.png,images/complex/36.png,images/complex/2.png,images/complex/87.png,images/complex/77.png,images/complex/84.png,images/complex/44.png,images/complex/53.png,images/complex/75.png,images/complex/80.png,images/complex/68.png,images/complex/81.png,images/complex/70.png,images/complex/108.png,images/complex/32.png,images/complex/30.png,images/complex/119.png,images/complex/48.png,images/complex/109.png,images/complex/111.png,images/complex/71.png,images/complex/4.png,images/complex/97.png,images/complex/17.png,images/complex/98.png,images/complex/55.png,images/complex/49.png,images/complex/63.png,images/complex/1.png,images/complex/106.png,images/complex/92.png,images/complex/50.png,images/complex/86.png","0","0","","600","762.1400000003632","","",""
"","null","html-keyboard-response","17","121587","0.0-1.0-0.8","SS1602366760417","<img src=images/blank.png width =""500"" height = ""600"" style=""border:5px solid black"">","null","","","","","","","","","","","","","",""
"","61.50500000512693","stimulus-presentation","18","122273","0.0-1.0-1.8","SS1602366760417","","40","<img src='images/simple/31.png' width ='500' height = '600' style='border:5px solid black'>","background","mixed_complex_deviant","images/simple/108.png","images/simple/31.png","images/complex/118.png,images/complex/23.png,images/complex/117.png,images/complex/64.png,images/complex/82.png,images/complex/54.png,images/complex/36.png,images/complex/2.png,images/complex/87.png,images/complex/77.png,images/complex/84.png,images/complex/44.png,images/complex/53.png,images/complex/75.png,images/complex/80.png,images/complex/68.png,images/complex/81.png,images/complex/70.png,images/complex/108.png,images/complex/32.png,images/complex/30.png,images/complex/119.png,images/complex/48.png,images/complex/109.png,images/complex/111.png,images/complex/71.png,images/complex/4.png,images/complex/97.png,images/complex/17.png,images/complex/98.png,images/complex/55.png,images/complex/49.png,images/complex/63.png,images/complex/1.png,images/complex/106.png,images/complex/92.png,images/complex/50.png,images/complex/86.png","0","0","","600","661.5050000051269","","",""
"","null","html-keyboard-response","19","123310","0.0-1.0-0.9","SS1602366760417","<img src=images/blank.png width =""500"" height = ""600"" style=""border:5px solid black"">","null","","","","","","","","","","","","","",""
"","85.90499999991152","stimulus-presentation","20","124021","0.0-1.0-1.9","SS1602366760417","","40","<img src='images/simple/31.png' width ='500' height = '600' style='border:5px solid black'>","background","mixed_complex_deviant","images/simple/108.png","images/simple/31.png","images/complex/118.png,images/complex/23.png,images/complex/117.png,images/complex/64.png,images/complex/82.png,images/complex/54.png,images/complex/36.png,images/complex/2.png,images/complex/87.png,images/complex/77.png,images/complex/84.png,images/complex/44.png,images/complex/53.png,images/complex/75.png,images/complex/80.png,images/complex/68.png,images/complex/81.png,images/complex/70.png,images/complex/108.png,images/complex/32.png,images/complex/30.png,images/complex/119.png,images/complex/48.png,images/complex/109.png,images/complex/111.png,images/complex/71.png,images/complex/4.png,images/complex/97.png,images/complex/17.png,images/complex/98.png,images/complex/55.png,images/complex/49.png,images/complex/63.png,images/complex/1.png,images/complex/106.png,images/complex/92.png,images/complex/50.png,images/complex/86.png","0","0","","600","685.9049999999115","","",""
"","null","html-keyboard-response","21","124982","0.0-1.0-0.10","SS1602366760417","<img src=images/blank.png width =""500"" height = ""600"" style=""border:5px solid black"">","null","","","","","","","","","","","","","",""
"","490.3899999917485","stimulus-presentation","22","126099","0.0-1.0-1.10","SS1602366760417","","40","<img src='images/complex/68.png' width ='500' height = '600' style='border:5px solid black'>","deviant","mixed_complex_deviant","images/simple/108.png","images/simple/31.png","images/complex/118.png,images/complex/23.png,images/complex/117.png,images/complex/64.png,images/complex/82.png,images/complex/54.png,images/complex/36.png,images/complex/2.png,images/complex/87.png,images/complex/77.png,images/complex/84.png,images/complex/44.png,images/complex/53.png,images/complex/75.png,images/complex/80.png,images/complex/68.png,images/complex/81.png,images/complex/70.png,images/complex/108.png,images/complex/32.png,images/complex/30.png,images/complex/119.png,images/complex/48.png,images/complex/109.png,images/complex/111.png,images/complex/71.png,images/complex/4.png,images/complex/97.png,images/complex/17.png,images/complex/98.png,images/complex/55.png,images/complex/49.png,images/complex/63.png,images/complex/1.png,images/complex/106.png,images/complex/92.png,images/complex/50.png,images/complex/86.png","0","0","","600","1090.3899999917485","","",""
"","null","html-keyboard-response","23","127279","0.0-1.0-0.11","SS1602366760417","<img src=images/blank.png width =""500"" height = ""600"" style=""border:5px solid black"">","null","","","","","","","","","","","","","",""
"","713.0400000023656","stimulus-presentation","24","128625","0.0-1.0-1.11","SS1602366760417","","40","<img src='images/simple/31.png' width ='500' height = '600' style='border:5px solid black'>","background","mixed_complex_deviant","images/simple/108.png","images/simple/31.png","images/complex/118.png,images/complex/23.png,images/complex/117.png,images/complex/64.png,images/complex/82.png,images/complex/54.png,images/complex/36.png,images/complex/2.png,images/complex/87.png,images/complex/77.png,images/complex/84.png,images/complex/44.png,images/complex/53.png,images/complex/75.png,images/complex/80.png,images/complex/68.png,images/complex/81.png,images/complex/70.png,images/complex/108.png,images/complex/32.png,images/complex/30.png,images/complex/119.png,images/complex/48.png,images/complex/109.png,images/complex/111.png,images/complex/71.png,images/complex/4.png,images/complex/97.png,images/complex/17.png,images/complex/98.png,images/complex/55.png,images/complex/49.png,images/complex/63.png,images/complex/1.png,images/complex/106.png,images/complex/92.png,images/complex/50.png,images/complex/86.png","0","0","","600","1313.0400000023656","","",""
"","null","html-keyboard-response","25","129861","0.0-1.0-0.12","SS1602366760417","<img src=images/blank.png width =""500"" height = ""600"" style=""border:5px solid black"">","null","","","","","","","","","","","","","",""
"","481.68499999155756","stimulus-presentation","26","130969","0.0-1.0-1.12","SS1602366760417","","40","<img src='images/simple/31.png' width ='500' height = '600' style='border:5px solid black'>","background","mixed_complex_deviant","images/simple/108.png","images/simple/31.png","images/complex/118.png,images/complex/23.png,images/complex/117.png,images/complex/64.png,images/complex/82.png,images/complex/54.png,images/complex/36.png,images/complex/2.png,images/complex/87.png,images/complex/77.png,images/complex/84.png,images/complex/44.png,images/complex/53.png,images/complex/75.png,images/complex/80.png,images/complex/68.png,images/complex/81.png,images/complex/70.png,images/complex/108.png,images/complex/32.png,images/complex/30.png,images/complex/119.png,images/complex/48.png,images/complex/109.png,images/complex/111.png,images/complex/71.png,images/complex/4.png,images/complex/97.png,images/complex/17.png,images/complex/98.png,images/complex/55.png,images/complex/49.png,images/complex/63.png,images/complex/1.png,images/complex/106.png,images/complex/92.png,images/complex/50.png,images/complex/86.png","0","0","","600","1081.6849999915576","","",""
"","null","html-keyboard-response","27","131883","0.0-1.0-0.13","SS1602366760417","<img src=images/blank.png width =""500"" height = ""600"" style=""border:5px solid black"">","null","","","","","","","","","","","","","",""
"","401.52999998827","stimulus-presentation","28","132915","0.0-1.0-1.13","SS1602366760417","","40","<img src='images/simple/31.png' width ='500' height = '600' style='border:5px solid black'>","background","mixed_complex_deviant","images/simple/108.png","images/simple/31.png","images/complex/118.png,images/complex/23.png,images/complex/117.png,images/complex/64.png,images/complex/82.png,images/complex/54.png,images/complex/36.png,images/complex/2.png,images/complex/87.png,images/complex/77.png,images/complex/84.png,images/complex/44.png,images/complex/53.png,images/complex/75.png,images/complex/80.png,images/complex/68.png,images/complex/81.png,images/complex/70.png,images/complex/108.png,images/complex/32.png,images/complex/30.png,images/complex/119.png,images/complex/48.png,images/complex/109.png,images/complex/111.png,images/complex/71.png,images/complex/4.png,images/complex/97.png,images/complex/17.png,images/complex/98.png,images/complex/55.png,images/complex/49.png,images/complex/63.png,images/complex/1.png,images/complex/106.png,images/complex/92.png,images/complex/50.png,images/complex/86.png","0","0","","600","1001.52999998827","","",""
"","null","html-keyboard-response","29","133995","0.0-1.0-0.14","SS1602366760417","<img src=images/blank.png width =""500"" height = ""600"" style=""border:5px solid black"">","null","","","","","","","","","","","","","",""
"","1282.2400000004563","stimulus-presentation","30","135907","0.0-1.0-1.14","SS1602366760417","","40","<img src='images/simple/108.png' width ='500' height = '600' style='border:5px solid black'>","target","mixed_complex_deviant","images/simple/108.png","images/simple/31.png","images/complex/118.png,images/complex/23.png,images/complex/117.png,images/complex/64.png,images/complex/82.png,images/complex/54.png,images/complex/36.png,images/complex/2.png,images/complex/87.png,images/complex/77.png,images/complex/84.png,images/complex/44.png,images/complex/53.png,images/complex/75.png,images/complex/80.png,images/complex/68.png,images/complex/81.png,images/complex/70.png,images/complex/108.png,images/complex/32.png,images/complex/30.png,images/complex/119.png,images/complex/48.png,images/complex/109.png,images/complex/111.png,images/complex/71.png,images/complex/4.png,images/complex/97.png,images/complex/17.png,images/complex/98.png,images/complex/55.png,images/complex/49.png,images/complex/63.png,images/complex/1.png,images/complex/106.png,images/complex/92.png,images/complex/50.png,images/complex/86.png","0","0","","600","1882.2400000004563","","",""
"","null","html-keyboard-response","31","136811","0.0-1.0-0.15","SS1602366760417","<img src=images/blank.png width =""500"" height = ""600"" style=""border:5px solid black"">","null","","","","","","","","","","","","","",""
"","904.4950000097742","stimulus-presentation","32","138347","0.0-1.0-1.15","SS1602366760417","","40","<img src='images/complex/84.png' width ='500' height = '600' style='border:5px solid black'>","deviant","mixed_complex_deviant","images/simple/108.png","images/simple/31.png","images/complex/118.png,images/complex/23.png,images/complex/117.png,images/complex/64.png,images/complex/82.png,images/complex/54.png,images/complex/36.png,images/complex/2.png,images/complex/87.png,images/complex/77.png,images/complex/84.png,images/complex/44.png,images/complex/53.png,images/complex/75.png,images/complex/80.png,images/complex/68.png,images/complex/81.png,images/complex/70.png,images/complex/108.png,images/complex/32.png,images/complex/30.png,images/complex/119.png,images/complex/48.png,images/complex/109.png,images/complex/111.png,images/complex/71.png,images/complex/4.png,images/complex/97.png,images/complex/17.png,images/complex/98.png,images/complex/55.png,images/complex/49.png,images/complex/63.png,images/complex/1.png,images/complex/106.png,images/complex/92.png,images/complex/50.png,images/complex/86.png","0","0","","600","1504.4950000097742","","",""
"","null","html-keyboard-response","33","139303","0.0-1.0-0.16","SS1602366760417","<img src=images/blank.png width =""500"" height = ""600"" style=""border:5px solid black"">","null","","","","","","","","","","","","","",""
"","674.1000000038184","stimulus-presentation","34","140596","0.0-1.0-1.16","SS1602366760417","","40","<img src='images/simple/31.png' width ='500' height = '600' style='border:5px solid black'>","background","mixed_complex_deviant","images/simple/108.png","images/simple/31.png","images/complex/118.png,images/complex/23.png,images/complex/117.png,images/complex/64.png,images/complex/82.png,images/complex/54.png,images/complex/36.png,images/complex/2.png,images/complex/87.png,images/complex/77.png,images/complex/84.png,images/complex/44.png,images/complex/53.png,images/complex/75.png,images/complex/80.png,images/complex/68.png,images/complex/81.png,images/complex/70.png,images/complex/108.png,images/complex/32.png,images/complex/30.png,images/complex/119.png,images/complex/48.png,images/complex/109.png,images/complex/111.png,images/complex/71.png,images/complex/4.png,images/complex/97.png,images/complex/17.png,images/complex/98.png,images/complex/55.png,images/complex/49.png,images/complex/63.png,images/complex/1.png,images/complex/106.png,images/complex/92.png,images/complex/50.png,images/complex/86.png","0","0","","600","1274.1000000038184","","",""
"","null","html-keyboard-response","35","141634","0.0-1.0-0.17","SS1602366760417","<img src=images/blank.png width =""500"" height = ""600"" style=""border:5px solid black"">","null","","","","","","","","","","","","","",""
"","430.0050000019837","stimulus-presentation","36","142700","0.0-1.0-1.17","SS1602366760417","","40","<img src='images/simple/31.png' width ='500' height = '600' style='border:5px solid black'>","background","mixed_complex_deviant","images/simple/108.png","images/simple/31.png","images/complex/118.png,images/complex/23.png,images/complex/117.png,images/complex/64.png,images/complex/82.png,images/complex/54.png,images/complex/36.png,images/complex/2.png,images/complex/87.png,images/complex/77.png,images/complex/84.png,images/complex/44.png,images/complex/53.png,images/complex/75.png,images/complex/80.png,images/complex/68.png,images/complex/81.png,images/complex/70.png,images/complex/108.png,images/complex/32.png,images/complex/30.png,images/complex/119.png,images/complex/48.png,images/complex/109.png,images/complex/111.png,images/complex/71.png,images/complex/4.png,images/complex/97.png,images/complex/17.png,images/complex/98.png,images/complex/55.png,images/complex/49.png,images/complex/63.png,images/complex/1.png,images/complex/106.png,images/complex/92.png,images/complex/50.png,images/complex/86.png","0","0","","600","1030.0050000019837","","",""
"","null","html-keyboard-response","37","143856","0.0-1.0-0.18","SS1602366760417","<img src=images/blank.png width =""500"" height = ""600"" style=""border:5px solid black"">","null","","","","","","","","","","","","","",""
"","616.5800000017043","stimulus-presentation","38","145099","0.0-1.0-1.18","SS1602366760417","","40","<img src='images/simple/31.png' width ='500' height = '600' style='border:5px solid black'>","background","mixed_complex_deviant","images/simple/108.png","images/simple/31.png","images/complex/118.png,images/complex/23.png,images/complex/117.png,images/complex/64.png,images/complex/82.png,images/complex/54.png,images/complex/36.png,images/complex/2.png,images/complex/87.png,images/complex/77.png,images/complex/84.png,images/complex/44.png,images/complex/53.png,images/complex/75.png,images/complex/80.png,images/complex/68.png,images/complex/81.png,images/complex/70.png,images/complex/108.png,images/complex/32.png,images/complex/30.png,images/complex/119.png,images/complex/48.png,images/complex/109.png,images/complex/111.png,images/complex/71.png,images/complex/4.png,images/complex/97.png,images/complex/17.png,images/complex/98.png,images/complex/55.png,images/complex/49.png,images/complex/63.png,images/complex/1.png,images/complex/106.png,images/complex/92.png,images/complex/50.png,images/complex/86.png","0","0","","600","1216.5800000017043","","",""
"","null","html-keyboard-response","39","146315","0.0-1.0-0.19","SS1602366760417","<img src=images/blank.png width =""500"" height = ""600"" style=""border:5px solid black"">","null","","","","","","","","","","","","","",""
"","1642.100000011851","stimulus-presentation","40","148586","0.0-1.0-1.19","SS1602366760417","","40","<img src='images/complex/119.png' width ='500' height = '600' style='border:5px solid black'>","deviant","mixed_complex_deviant","images/simple/108.png","images/simple/31.png","images/complex/118.png,images/complex/23.png,images/complex/117.png,images/complex/64.png,images/complex/82.png,images/complex/54.png,images/complex/36.png,images/complex/2.png,images/complex/87.png,images/complex/77.png,images/complex/84.png,images/complex/44.png,images/complex/53.png,images/complex/75.png,images/complex/80.png,images/complex/68.png,images/complex/81.png,images/complex/70.png,images/complex/108.png,images/complex/32.png,images/complex/30.png,images/complex/119.png,images/complex/48.png,images/complex/109.png,images/complex/111.png,images/complex/71.png,images/complex/4.png,images/complex/97.png,images/complex/17.png,images/complex/98.png,images/complex/55.png,images/complex/49.png,images/complex/63.png,images/complex/1.png,images/complex/106.png,images/complex/92.png,images/complex/50.png,images/complex/86.png","0","0","","600","2242.100000011851","915.2150000008987","",""
"","null","html-keyboard-response","41","149462","0.0-1.0-0.20","SS1602366760417","<img src=images/blank.png width =""500"" height = ""600"" style=""border:5px solid black"">","null","","","","","","","","","","","","","",""
"","84.68999998876825","stimulus-presentation","42","150186","0.0-1.0-1.20","SS1602366760417","","40","<img src='images/simple/108.png' width ='500' height = '600' style='border:5px solid black'>","target","mixed_complex_deviant","images/simple/108.png","images/simple/31.png","images/complex/118.png,images/complex/23.png,images/complex/117.png,images/complex/64.png,images/complex/82.png,images/complex/54.png,images/complex/36.png,images/complex/2.png,images/complex/87.png,images/complex/77.png,images/complex/84.png,images/complex/44.png,images/complex/53.png,images/complex/75.png,images/complex/80.png,images/complex/68.png,images/complex/81.png,images/complex/70.png,images/complex/108.png,images/complex/32.png,images/complex/30.png,images/complex/119.png,images/complex/48.png,images/complex/109.png,images/complex/111.png,images/complex/71.png,images/complex/4.png,images/complex/97.png,images/complex/17.png,images/complex/98.png,images/complex/55.png,images/complex/49.png,images/complex/63.png,images/complex/1.png,images/complex/106.png,images/complex/92.png,images/complex/50.png,images/complex/86.png","0","0","","600","684.6899999887682","","",""
"","null","html-keyboard-response","43","151311","0.0-1.0-0.21","SS1602366760417","<img src=images/blank.png width =""500"" height = ""600"" style=""border:5px solid black"">","null","","","","","","","","","","","","","",""
"","1659.444999997504","stimulus-presentation","44","153609","0.0-1.0-1.21","SS1602366760417","","40","<img src='images/simple/31.png' width ='500' height = '600' style='border:5px solid black'>","background","mixed_complex_deviant","images/simple/108.png","images/simple/31.png","images/complex/118.png,images/complex/23.png,images/complex/117.png,images/complex/64.png,images/complex/82.png,images/complex/54.png,images/complex/36.png,images/complex/2.png,images/complex/87.png,images/complex/77.png,images/complex/84.png,images/complex/44.png,images/complex/53.png,images/complex/75.png,images/complex/80.png,images/complex/68.png,images/complex/81.png,images/complex/70.png,images/complex/108.png,images/complex/32.png,images/complex/30.png,images/complex/119.png,images/complex/48.png,images/complex/109.png,images/complex/111.png,images/complex/71.png,images/complex/4.png,images/complex/97.png,images/complex/17.png,images/complex/98.png,images/complex/55.png,images/complex/49.png,images/complex/63.png,images/complex/1.png,images/complex/106.png,images/complex/92.png,images/complex/50.png,images/complex/86.png","0","0","","600","2259.444999997504","","",""
"","null","html-keyboard-response","45","154465","0.0-1.0-0.22","SS1602366760417","<img src=images/blank.png width =""500"" height = ""600"" style=""border:5px solid black"">","null","","","","","","","","","","","","","",""
"","619.4299999915529","stimulus-presentation","46","155724","0.0-1.0-1.22","SS1602366760417","","40","<img src='images/simple/31.png' width ='500' height = '600' style='border:5px solid black'>","background","mixed_complex_deviant","images/simple/108.png","images/simple/31.png","images/complex/118.png,images/complex/23.png,images/complex/117.png,images/complex/64.png,images/complex/82.png,images/complex/54.png,images/complex/36.png,images/complex/2.png,images/complex/87.png,images/complex/77.png,images/complex/84.png,images/complex/44.png,images/complex/53.png,images/complex/75.png,images/complex/80.png,images/complex/68.png,images/complex/81.png,images/complex/70.png,images/complex/108.png,images/complex/32.png,images/complex/30.png,images/complex/119.png,images/complex/48.png,images/complex/109.png,images/complex/111.png,images/complex/71.png,images/complex/4.png,images/complex/97.png,images/complex/17.png,images/complex/98.png,images/complex/55.png,images/complex/49.png,images/complex/63.png,images/complex/1.png,images/complex/106.png,images/complex/92.png,images/complex/50.png,images/complex/86.png","0","0","","600","1219.429999991553","","",""
"","null","html-keyboard-response","47","156602","0.0-1.0-0.23","SS1602366760417","<img src=images/blank.png width =""500"" height = ""600"" style=""border:5px solid black"">","null","","","","","","","","","","","","","",""
"","323.50499999301974","stimulus-presentation","48","157565","0.0-1.0-1.23","SS1602366760417","","40","<img src='images/simple/108.png' width ='500' height = '600' style='border:5px solid black'>","target","mixed_complex_deviant","images/simple/108.png","images/simple/31.png","images/complex/118.png,images/complex/23.png,images/complex/117.png,images/complex/64.png,images/complex/82.png,images/complex/54.png,images/complex/36.png,images/complex/2.png,images/complex/87.png,images/complex/77.png,images/complex/84.png,images/complex/44.png,images/complex/53.png,images/complex/75.png,images/complex/80.png,images/complex/68.png,images/complex/81.png,images/complex/70.png,images/complex/108.png,images/complex/32.png,images/complex/30.png,images/complex/119.png,images/complex/48.png,images/complex/109.png,images/complex/111.png,images/complex/71.png,images/complex/4.png,images/complex/97.png,images/complex/17.png,images/complex/98.png,images/complex/55.png,images/complex/49.png,images/complex/63.png,images/complex/1.png,images/complex/106.png,images/complex/92.png,images/complex/50.png,images/complex/86.png","0","0","","600","923.5049999930197","","",""
"","null","html-keyboard-response","49","158680","0.0-1.0-0.24","SS1602366760417","<img src=images/blank.png width =""500"" height = ""600"" style=""border:5px solid black"">","null","","","","","","","","","","","","","",""
"","1144.7249999910127","stimulus-presentation","50","160467","0.0-1.0-1.24","SS1602366760417","","40","<img src='images/complex/82.png' width ='500' height = '600' style='border:5px solid black'>","deviant","mixed_complex_deviant","images/simple/108.png","images/simple/31.png","images/complex/118.png,images/complex/23.png,images/complex/117.png,images/complex/64.png,images/complex/82.png,images/complex/54.png,images/complex/36.png,images/complex/2.png,images/complex/87.png,images/complex/77.png,images/complex/84.png,images/complex/44.png,images/complex/53.png,images/complex/75.png,images/complex/80.png,images/complex/68.png,images/complex/81.png,images/complex/70.png,images/complex/108.png,images/complex/32.png,images/complex/30.png,images/complex/119.png,images/complex/48.png,images/complex/109.png,images/complex/111.png,images/complex/71.png,images/complex/4.png,images/complex/97.png,images/complex/17.png,images/complex/98.png,images/complex/55.png,images/complex/49.png,images/complex/63.png,images/complex/1.png,images/complex/106.png,images/complex/92.png,images/complex/50.png,images/complex/86.png","0","0","","600","1744.7249999910127","","",""
"","null","html-keyboard-response","51","161618","0.0-1.0-0.25","SS1602366760417","<img src=images/blank.png width =""500"" height = ""600"" style=""border:5px solid black"">","null","","","","","","","","","","","","","",""
"","1565.7899999932852","stimulus-presentation","52","163827","0.0-1.0-1.25","SS1602366760417","","40","<img src='images/simple/31.png' width ='500' height = '600' style='border:5px solid black'>","background","mixed_complex_deviant","images/simple/108.png","images/simple/31.png","images/complex/118.png,images/complex/23.png,images/complex/117.png,images/complex/64.png,images/complex/82.png,images/complex/54.png,images/complex/36.png,images/complex/2.png,images/complex/87.png,images/complex/77.png,images/complex/84.png,images/complex/44.png,images/complex/53.png,images/complex/75.png,images/complex/80.png,images/complex/68.png,images/complex/81.png,images/complex/70.png,images/complex/108.png,images/complex/32.png,images/complex/30.png,images/complex/119.png,images/complex/48.png,images/complex/109.png,images/complex/111.png,images/complex/71.png,images/complex/4.png,images/complex/97.png,images/complex/17.png,images/complex/98.png,images/complex/55.png,images/complex/49.png,images/complex/63.png,images/complex/1.png,images/complex/106.png,images/complex/92.png,images/complex/50.png,images/complex/86.png","0","0","","600","2165.789999993285","925.1949999888893","",""
"","null","html-keyboard-response","53","164870","0.0-1.0-0.26","SS1602366760417","<img src=images/blank.png width =""500"" height = ""600"" style=""border:5px solid black"">","null","","","","","","","","","","","","","",""
"","324.13000000815373","stimulus-presentation","54","165841","0.0-1.0-1.26","SS1602366760417","","40","<img src='images/simple/108.png' width ='500' height = '600' style='border:5px solid black'>","target","mixed_complex_deviant","images/simple/108.png","images/simple/31.png","images/complex/118.png,images/complex/23.png,images/complex/117.png,images/complex/64.png,images/complex/82.png,images/complex/54.png,images/complex/36.png,images/complex/2.png,images/complex/87.png,images/complex/77.png,images/complex/84.png,images/complex/44.png,images/complex/53.png,images/complex/75.png,images/complex/80.png,images/complex/68.png,images/complex/81.png,images/complex/70.png,images/complex/108.png,images/complex/32.png,images/complex/30.png,images/complex/119.png,images/complex/48.png,images/complex/109.png,images/complex/111.png,images/complex/71.png,images/complex/4.png,images/complex/97.png,images/complex/17.png,images/complex/98.png,images/complex/55.png,images/complex/49.png,images/complex/63.png,images/complex/1.png,images/complex/106.png,images/complex/92.png,images/complex/50.png,images/complex/86.png","0","0","","600","924.1300000081537","","",""
"","null","html-keyboard-response","55","166885","0.0-1.0-0.27","SS1602366760417","<img src=images/blank.png width =""500"" height = ""600"" style=""border:5px solid black"">","null","","","","","","","","","","","","","",""
"","911.2500000046566","stimulus-presentation","56","168440","0.0-1.0-1.27","SS1602366760417","","40","<img src='images/simple/31.png' width ='500' height = '600' style='border:5px solid black'>","background","mixed_complex_deviant","images/simple/108.png","images/simple/31.png","images/complex/118.png,images/complex/23.png,images/complex/117.png,images/complex/64.png,images/complex/82.png,images/complex/54.png,images/complex/36.png,images/complex/2.png,images/complex/87.png,images/complex/77.png,images/complex/84.png,images/complex/44.png,images/complex/53.png,images/complex/75.png,images/complex/80.png,images/complex/68.png,images/complex/81.png,images/complex/70.png,images/complex/108.png,images/complex/32.png,images/complex/30.png,images/complex/119.png,images/complex/48.png,images/complex/109.png,images/complex/111.png,images/complex/71.png,images/complex/4.png,images/complex/97.png,images/complex/17.png,images/complex/98.png,images/complex/55.png,images/complex/49.png,images/complex/63.png,images/complex/1.png,images/complex/106.png,images/complex/92.png,images/complex/50.png,images/complex/86.png","0","0","","600","1511.2500000046566","","",""
"","null","html-keyboard-response","57","169350","0.0-1.0-0.28","SS1602366760417","<img src=images/blank.png width =""500"" height = ""600"" style=""border:5px solid black"">","null","","","","","","","","","","","","","",""
"","788.8700000039535","stimulus-presentation","58","170786","0.0-1.0-1.28","SS1602366760417","","40","<img src='images/simple/31.png' width ='500' height = '600' style='border:5px solid black'>","background","mixed_complex_deviant","images/simple/108.png","images/simple/31.png","images/complex/118.png,images/complex/23.png,images/complex/117.png,images/complex/64.png,images/complex/82.png,images/complex/54.png,images/complex/36.png,images/complex/2.png,images/complex/87.png,images/complex/77.png,images/complex/84.png,images/complex/44.png,images/complex/53.png,images/complex/75.png,images/complex/80.png,images/complex/68.png,images/complex/81.png,images/complex/70.png,images/complex/108.png,images/complex/32.png,images/complex/30.png,images/complex/119.png,images/complex/48.png,images/complex/109.png,images/complex/111.png,images/complex/71.png,images/complex/4.png,images/complex/97.png,images/complex/17.png,images/complex/98.png,images/complex/55.png,images/complex/49.png,images/complex/63.png,images/complex/1.png,images/complex/106.png,images/complex/92.png,images/complex/50.png,images/complex/86.png","0","0","","600","1388.8700000039535","","",""
"","null","html-keyboard-response","59","172122","0.0-1.0-0.29","SS1602366760417","<img src=images/blank.png width =""500"" height = ""600"" style=""border:5px solid black"">","null","","","","","","","","","","","","","",""
"","687.420000002021","stimulus-presentation","60","173437","0.0-1.0-1.29","SS1602366760417","","40","<img src='images/simple/108.png' width ='500' height = '600' style='border:5px solid black'>","target","mixed_complex_deviant","images/simple/108.png","images/simple/31.png","images/complex/118.png,images/complex/23.png,images/complex/117.png,images/complex/64.png,images/complex/82.png,images/complex/54.png,images/complex/36.png,images/complex/2.png,images/complex/87.png,images/complex/77.png,images/complex/84.png,images/complex/44.png,images/complex/53.png,images/complex/75.png,images/complex/80.png,images/complex/68.png,images/complex/81.png,images/complex/70.png,images/complex/108.png,images/complex/32.png,images/complex/30.png,images/complex/119.png,images/complex/48.png,images/complex/109.png,images/complex/111.png,images/complex/71.png,images/complex/4.png,images/complex/97.png,images/complex/17.png,images/complex/98.png,images/complex/55.png,images/complex/49.png,images/complex/63.png,images/complex/1.png,images/complex/106.png,images/complex/92.png,images/complex/50.png,images/complex/86.png","0","0","","600","1287.420000002021","","",""
"","null","html-keyboard-response","61","174568","0.0-1.0-0.30","SS1602366760417","<img src=images/blank.png width =""500"" height = ""600"" style=""border:5px solid black"">","null","","","","","","","","","","","","","",""
"","2609.10000000149","stimulus-presentation","62","177829","0.0-1.0-1.30","SS1602366760417","","40","<img src='images/simple/31.png' width ='500' height = '600' style='border:5px solid black'>","background","mixed_complex_deviant","images/simple/108.png","images/simple/31.png","images/complex/118.png,images/complex/23.png,images/complex/117.png,images/complex/64.png,images/complex/82.png,images/complex/54.png,images/complex/36.png,images/complex/2.png,images/complex/87.png,images/complex/77.png,images/complex/84.png,images/complex/44.png,images/complex/53.png,images/complex/75.png,images/complex/80.png,images/complex/68.png,images/complex/81.png,images/complex/70.png,images/complex/108.png,images/complex/32.png,images/complex/30.png,images/complex/119.png,images/complex/48.png,images/complex/109.png,images/complex/111.png,images/complex/71.png,images/complex/4.png,images/complex/97.png,images/complex/17.png,images/complex/98.png,images/complex/55.png,images/complex/49.png,images/complex/63.png,images/complex/1.png,images/complex/106.png,images/complex/92.png,images/complex/50.png,images/complex/86.png","0","0","","600","3209.10000000149","","",""
"","null","html-keyboard-response","63","179080","0.0-1.0-0.31","SS1602366760417","<img src=images/blank.png width =""500"" height = ""600"" style=""border:5px solid black"">","null","","","","","","","","","","","","","",""
"","311.11999999848194","stimulus-presentation","64","180042","0.0-1.0-1.31","SS1602366760417","","40","<img src='images/simple/31.png' width ='500' height = '600' style='border:5px solid black'>","background","mixed_complex_deviant","images/simple/108.png","images/simple/31.png","images/complex/118.png,images/complex/23.png,images/complex/117.png,images/complex/64.png,images/complex/82.png,images/complex/54.png,images/complex/36.png,images/complex/2.png,images/complex/87.png,images/complex/77.png,images/complex/84.png,images/complex/44.png,images/complex/53.png,images/complex/75.png,images/complex/80.png,images/complex/68.png,images/complex/81.png,images/complex/70.png,images/complex/108.png,images/complex/32.png,images/complex/30.png,images/complex/119.png,images/complex/48.png,images/complex/109.png,images/complex/111.png,images/complex/71.png,images/complex/4.png,images/complex/97.png,images/complex/17.png,images/complex/98.png,images/complex/55.png,images/complex/49.png,images/complex/63.png,images/complex/1.png,images/complex/106.png,images/complex/92.png,images/complex/50.png,images/complex/86.png","0","0","","600","911.119999998482","","",""
"","null","html-keyboard-response","65","181323","0.0-1.0-0.32","SS1602366760417","<img src=images/blank.png width =""500"" height = ""600"" style=""border:5px solid black"">","null","","","","","","","","","","","","","",""
"","2339.575000005425","stimulus-presentation","66","184315","0.0-1.0-1.32","SS1602366760417","","40","<img src='images/simple/31.png' width ='500' height = '600' style='border:5px solid black'>","background","mixed_complex_deviant","images/simple/108.png","images/simple/31.png","images/complex/118.png,images/complex/23.png,images/complex/117.png,images/complex/64.png,images/complex/82.png,images/complex/54.png,images/complex/36.png,images/complex/2.png,images/complex/87.png,images/complex/77.png,images/complex/84.png,images/complex/44.png,images/complex/53.png,images/complex/75.png,images/complex/80.png,images/complex/68.png,images/complex/81.png,images/complex/70.png,images/complex/108.png,images/complex/32.png,images/complex/30.png,images/complex/119.png,images/complex/48.png,images/complex/109.png,images/complex/111.png,images/complex/71.png,images/complex/4.png,images/complex/97.png,images/complex/17.png,images/complex/98.png,images/complex/55.png,images/complex/49.png,images/complex/63.png,images/complex/1.png,images/complex/106.png,images/complex/92.png,images/complex/50.png,images/complex/86.png","0","0","","600","2939.575000005425","","",""
"","null","html-keyboard-response","67","185393","0.0-1.0-0.33","SS1602366760417","<img src=images/blank.png width =""500"" height = ""600"" style=""border:5px solid black"">","null","","","","","","","","","","","","","",""
"","104.2650000017602","stimulus-presentation","68","186148","0.0-1.0-1.33","SS1602366760417","","40","<img src='images/simple/31.png' width ='500' height = '600' style='border:5px solid black'>","background","mixed_complex_deviant","images/simple/108.png","images/simple/31.png","images/complex/118.png,images/complex/23.png,images/complex/117.png,images/complex/64.png,images/complex/82.png,images/complex/54.png,images/complex/36.png,images/complex/2.png,images/complex/87.png,images/complex/77.png,images/complex/84.png,images/complex/44.png,images/complex/53.png,images/complex/75.png,images/complex/80.png,images/complex/68.png,images/complex/81.png,images/complex/70.png,images/complex/108.png,images/complex/32.png,images/complex/30.png,images/complex/119.png,images/complex/48.png,images/complex/109.png,images/complex/111.png,images/complex/71.png,images/complex/4.png,images/complex/97.png,images/complex/17.png,images/complex/98.png,images/complex/55.png,images/complex/49.png,images/complex/63.png,images/complex/1.png,images/complex/106.png,images/complex/92.png,images/complex/50.png,images/complex/86.png","0","0","","600","704.2650000017602","","",""
"","null","html-keyboard-response","69","187362","0.0-1.0-0.34","SS1602366760417","<img src=images/blank.png width =""500"" height = ""600"" style=""border:5px solid black"">","null","","","","","","","","","","","","","",""
"","877.8300000121817","stimulus-presentation","70","188891","0.0-1.0-1.34","SS1602366760417","","40","<img src='images/simple/31.png' width ='500' height = '600' style='border:5px solid black'>","background","mixed_complex_deviant","images/simple/108.png","images/simple/31.png","images/complex/118.png,images/complex/23.png,images/complex/117.png,images/complex/64.png,images/complex/82.png,images/complex/54.png,images/complex/36.png,images/complex/2.png,images/complex/87.png,images/complex/77.png,images/complex/84.png,images/complex/44.png,images/complex/53.png,images/complex/75.png,images/complex/80.png,images/complex/68.png,images/complex/81.png,images/complex/70.png,images/complex/108.png,images/complex/32.png,images/complex/30.png,images/complex/119.png,images/complex/48.png,images/complex/109.png,images/complex/111.png,images/complex/71.png,images/complex/4.png,images/complex/97.png,images/complex/17.png,images/complex/98.png,images/complex/55.png,images/complex/49.png,images/complex/63.png,images/complex/1.png,images/complex/106.png,images/complex/92.png,images/complex/50.png,images/complex/86.png","0","0","","600","1477.8300000121817","","",""
"","null","html-keyboard-response","71","190002","0.0-1.0-0.35","SS1602366760417","<img src=images/blank.png width =""500"" height = ""600"" style=""border:5px solid black"">","null","","","","","","","","","","","","","",""
"","23.654999997233972","stimulus-presentation","72","190675","0.0-1.0-1.35","SS1602366760417","","40","<img src='images/complex/49.png' width ='500' height = '600' style='border:5px solid black'>","deviant","mixed_complex_deviant","images/simple/108.png","images/simple/31.png","images/complex/118.png,images/complex/23.png,images/complex/117.png,images/complex/64.png,images/complex/82.png,images/complex/54.png,images/complex/36.png,images/complex/2.png,images/complex/87.png,images/complex/77.png,images/complex/84.png,images/complex/44.png,images/complex/53.png,images/complex/75.png,images/complex/80.png,images/complex/68.png,images/complex/81.png,images/complex/70.png,images/complex/108.png,images/complex/32.png,images/complex/30.png,images/complex/119.png,images/complex/48.png,images/complex/109.png,images/complex/111.png,images/complex/71.png,images/complex/4.png,images/complex/97.png,images/complex/17.png,images/complex/98.png,images/complex/55.png,images/complex/49.png,images/complex/63.png,images/complex/1.png,images/complex/106.png,images/complex/92.png,images/complex/50.png,images/complex/86.png","0","0","","600","623.654999997234","","",""
"","null","html-keyboard-response","73","191586","0.0-1.0-0.36","SS1602366760417","<img src=images/blank.png width =""500"" height = ""600"" style=""border:5px solid black"">","null","","","","","","","","","","","","","",""
"","566.9049999996787","stimulus-presentation","74","192805","0.0-1.0-1.36","SS1602366760417","","40","<img src='images/simple/31.png' width ='500' height = '600' style='border:5px solid black'>","background","mixed_complex_deviant","images/simple/108.png","images/simple/31.png","images/complex/118.png,images/complex/23.png,images/complex/117.png,images/complex/64.png,images/complex/82.png,images/complex/54.png,images/complex/36.png,images/complex/2.png,images/complex/87.png,images/complex/77.png,images/complex/84.png,images/complex/44.png,images/complex/53.png,images/complex/75.png,images/complex/80.png,images/complex/68.png,images/complex/81.png,images/complex/70.png,images/complex/108.png,images/complex/32.png,images/complex/30.png,images/complex/119.png,images/complex/48.png,images/complex/109.png,images/complex/111.png,images/complex/71.png,images/complex/4.png,images/complex/97.png,images/complex/17.png,images/complex/98.png,images/complex/55.png,images/complex/49.png,images/complex/63.png,images/complex/1.png,images/complex/106.png,images/complex/92.png,images/complex/50.png,images/complex/86.png","0","0","","600","1166.9049999996787","","",""
"","null","html-keyboard-response","75","193762","0.0-1.0-0.37","SS1602366760417","<img src=images/blank.png width =""500"" height = ""600"" style=""border:5px solid black"">","null","","","","","","","","","","","","","",""
"","462.8250000096159","stimulus-presentation","76","194876","0.0-1.0-1.37","SS1602366760417","","40","<img src='images/simple/31.png' width ='500' height = '600' style='border:5px solid black'>","background","mixed_complex_deviant","images/simple/108.png","images/simple/31.png","images/complex/118.png,images/complex/23.png,images/complex/117.png,images/complex/64.png,images/complex/82.png,images/complex/54.png,images/complex/36.png,images/complex/2.png,images/complex/87.png,images/complex/77.png,images/complex/84.png,images/complex/44.png,images/complex/53.png,images/complex/75.png,images/complex/80.png,images/complex/68.png,images/complex/81.png,images/complex/70.png,images/complex/108.png,images/complex/32.png,images/complex/30.png,images/complex/119.png,images/complex/48.png,images/complex/109.png,images/complex/111.png,images/complex/71.png,images/complex/4.png,images/complex/97.png,images/complex/17.png,images/complex/98.png,images/complex/55.png,images/complex/49.png,images/complex/63.png,images/complex/1.png,images/complex/106.png,images/complex/92.png,images/complex/50.png,images/complex/86.png","0","0","","600","1062.825000009616","","",""
"","null","html-keyboard-response","77","196152","0.0-1.0-0.38","SS1602366760417","<img src=images/blank.png width =""500"" height = ""600"" style=""border:5px solid black"">","null","","","","","","","","","","","","","",""
"","1179.649999990943","stimulus-presentation","78","197988","0.0-1.0-1.38","SS1602366760417","","40","<img src='images/simple/31.png' width ='500' height = '600' style='border:5px solid black'>","background","mixed_complex_deviant","images/simple/108.png","images/simple/31.png","images/complex/118.png,images/complex/23.png,images/complex/117.png,images/complex/64.png,images/complex/82.png,images/complex/54.png,images/complex/36.png,images/complex/2.png,images/complex/87.png,images/complex/77.png,images/complex/84.png,images/complex/44.png,images/complex/53.png,images/complex/75.png,images/complex/80.png,images/complex/68.png,images/complex/81.png,images/complex/70.png,images/complex/108.png,images/complex/32.png,images/complex/30.png,images/complex/119.png,images/complex/48.png,images/complex/109.png,images/complex/111.png,images/complex/71.png,images/complex/4.png,images/complex/97.png,images/complex/17.png,images/complex/98.png,images/complex/55.png,images/complex/49.png,images/complex/63.png,images/complex/1.png,images/complex/106.png,images/complex/92.png,images/complex/50.png,images/complex/86.png","0","0","","600","1779.649999990943","","",""
"","null","html-keyboard-response","79","199328","0.0-1.0-0.39","SS1602366760417","<img src=images/blank.png width =""500"" height = ""600"" style=""border:5px solid black"">","null","","","","","","","","","","","","","",""
"","636.8849999998929","stimulus-presentation","80","200618","0.0-1.0-1.39","SS1602366760417","","40","<img src='images/simple/31.png' width ='500' height = '600' style='border:5px solid black'>","background","mixed_complex_deviant","images/simple/108.png","images/simple/31.png","images/complex/118.png,images/complex/23.png,images/complex/117.png,images/complex/64.png,images/complex/82.png,images/complex/54.png,images/complex/36.png,images/complex/2.png,images/complex/87.png,images/complex/77.png,images/complex/84.png,images/complex/44.png,images/complex/53.png,images/complex/75.png,images/complex/80.png,images/complex/68.png,images/complex/81.png,images/complex/70.png,images/complex/108.png,images/complex/32.png,images/complex/30.png,images/complex/119.png,images/complex/48.png,images/complex/109.png,images/complex/111.png,images/complex/71.png,images/complex/4.png,images/complex/97.png,images/complex/17.png,images/complex/98.png,images/complex/55.png,images/complex/49.png,images/complex/63.png,images/complex/1.png,images/complex/106.png,images/complex/92.png,images/complex/50.png,images/complex/86.png","0","0","","600","1236.884999999893","","",""
"","null","html-keyboard-response","81","201806","0.0-1.0-0.40","SS1602366760417","<img src=images/blank.png width =""500"" height = ""600"" style=""border:5px solid black"">","null","","","","","","","","","","","","","",""
"","1364.8149999935413","stimulus-presentation","82","203818","0.0-1.0-1.40","SS1602366760417","","40","<img src='images/simple/31.png' width ='500' height = '600' style='border:5px solid black'>","background","mixed_complex_deviant","images/simple/108.png","images/simple/31.png","images/complex/118.png,images/complex/23.png,images/complex/117.png,images/complex/64.png,images/complex/82.png,images/complex/54.png,images/complex/36.png,images/complex/2.png,images/complex/87.png,images/complex/77.png,images/complex/84.png,images/complex/44.png,images/complex/53.png,images/complex/75.png,images/complex/80.png,images/complex/68.png,images/complex/81.png,images/complex/70.png,images/complex/108.png,images/complex/32.png,images/complex/30.png,images/complex/119.png,images/complex/48.png,images/complex/109.png,images/complex/111.png,images/complex/71.png,images/complex/4.png,images/complex/97.png,images/complex/17.png,images/complex/98.png,images/complex/55.png,images/complex/49.png,images/complex/63.png,images/complex/1.png,images/complex/106.png,images/complex/92.png,images/complex/50.png,images/complex/86.png","0","0","","600","1964.8149999935413","","",""
"","null","html-keyboard-response","83","204911","0.0-1.0-0.41","SS1602366760417","<img src=images/blank.png width =""500"" height = ""600"" style=""border:5px solid black"">","null","","","","","","","","","","","","","",""
"","835.8750000043074","stimulus-presentation","84","206405","0.0-1.0-1.41","SS1602366760417","","40","<img src='images/complex/63.png' width ='500' height = '600' style='border:5px solid black'>","deviant","mixed_complex_deviant","images/simple/108.png","images/simple/31.png","images/complex/118.png,images/complex/23.png,images/complex/117.png,images/complex/64.png,images/complex/82.png,images/complex/54.png,images/complex/36.png,images/complex/2.png,images/complex/87.png,images/complex/77.png,images/complex/84.png,images/complex/44.png,images/complex/53.png,images/complex/75.png,images/complex/80.png,images/complex/68.png,images/complex/81.png,images/complex/70.png,images/complex/108.png,images/complex/32.png,images/complex/30.png,images/complex/119.png,images/complex/48.png,images/complex/109.png,images/complex/111.png,images/complex/71.png,images/complex/4.png,images/complex/97.png,images/complex/17.png,images/complex/98.png,images/complex/55.png,images/complex/49.png,images/complex/63.png,images/complex/1.png,images/complex/106.png,images/complex/92.png,images/complex/50.png,images/complex/86.png","0","0","","600","1435.8750000043074","","",""
"","null","html-keyboard-response","85","207337","0.0-1.0-0.42","SS1602366760417","<img src=images/blank.png width =""500"" height = ""600"" style=""border:5px solid black"">","null","","","","","","","","","","","","","",""
"","240.36999999952968","stimulus-presentation","86","208234","0.0-1.0-1.42","SS1602366760417","","40","<img src='images/simple/31.png' width ='500' height = '600' style='border:5px solid black'>","background","mixed_complex_deviant","images/simple/108.png","images/simple/31.png","images/complex/118.png,images/complex/23.png,images/complex/117.png,images/complex/64.png,images/complex/82.png,images/complex/54.png,images/complex/36.png,images/complex/2.png,images/complex/87.png,images/complex/77.png,images/complex/84.png,images/complex/44.png,images/complex/53.png,images/complex/75.png,images/complex/80.png,images/complex/68.png,images/complex/81.png,images/complex/70.png,images/complex/108.png,images/complex/32.png,images/complex/30.png,images/complex/119.png,images/complex/48.png,images/complex/109.png,images/complex/111.png,images/complex/71.png,images/complex/4.png,images/complex/97.png,images/complex/17.png,images/complex/98.png,images/complex/55.png,images/complex/49.png,images/complex/63.png,images/complex/1.png,images/complex/106.png,images/complex/92.png,images/complex/50.png,images/complex/86.png","0","0","","600","840.3699999995297","","",""
"","null","html-keyboard-response","87","209400","0.0-1.0-0.43","SS1602366760417","<img src=images/blank.png width =""500"" height = ""600"" style=""border:5px solid black"">","null","","","","","","","","","","","","","",""
"","1546.5649999969173","stimulus-presentation","88","211602","0.0-1.0-1.43","SS1602366760417","","40","<img src='images/simple/31.png' width ='500' height = '600' style='border:5px solid black'>","background","mixed_complex_deviant","images/simple/108.png","images/simple/31.png","images/complex/118.png,images/complex/23.png,images/complex/117.png,images/complex/64.png,images/complex/82.png,images/complex/54.png,images/complex/36.png,images/complex/2.png,images/complex/87.png,images/complex/77.png,images/complex/84.png,images/complex/44.png,images/complex/53.png,images/complex/75.png,images/complex/80.png,images/complex/68.png,images/complex/81.png,images/complex/70.png,images/complex/108.png,images/complex/32.png,images/complex/30.png,images/complex/119.png,images/complex/48.png,images/complex/109.png,images/complex/111.png,images/complex/71.png,images/complex/4.png,images/complex/97.png,images/complex/17.png,images/complex/98.png,images/complex/55.png,images/complex/49.png,images/complex/63.png,images/complex/1.png,images/complex/106.png,images/complex/92.png,images/complex/50.png,images/complex/86.png","0","0","","600","2146.5649999969173","","",""
"","null","html-keyboard-response","89","212844","0.0-1.0-0.44","SS1602366760417","<img src=images/blank.png width =""500"" height = ""600"" style=""border:5px solid black"">","null","","","","","","","","","","","","","",""
"","1300.5750000011176","stimulus-presentation","90","214801","0.0-1.0-1.44","SS1602366760417","","40","<img src='images/simple/31.png' width ='500' height = '600' style='border:5px solid black'>","background","mixed_complex_deviant","images/simple/108.png","images/simple/31.png","images/complex/118.png,images/complex/23.png,images/complex/117.png,images/complex/64.png,images/complex/82.png,images/complex/54.png,images/complex/36.png,images/complex/2.png,images/complex/87.png,images/complex/77.png,images/complex/84.png,images/complex/44.png,images/complex/53.png,images/complex/75.png,images/complex/80.png,images/complex/68.png,images/complex/81.png,images/complex/70.png,images/complex/108.png,images/complex/32.png,images/complex/30.png,images/complex/119.png,images/complex/48.png,images/complex/109.png,images/complex/111.png,images/complex/71.png,images/complex/4.png,images/complex/97.png,images/complex/17.png,images/complex/98.png,images/complex/55.png,images/complex/49.png,images/complex/63.png,images/complex/1.png,images/complex/106.png,images/complex/92.png,images/complex/50.png,images/complex/86.png","0","0","","600","1900.5750000011176","","",""
"","null","html-keyboard-response","91","215924","0.0-1.0-0.45","SS1602366760417","<img src=images/blank.png width =""500"" height = ""600"" style=""border:5px solid black"">","null","","","","","","","","","","","","","",""
"","220.12499999254942","stimulus-presentation","92","216806","0.0-1.0-1.45","SS1602366760417","","40","<img src='images/simple/31.png' width ='500' height = '600' style='border:5px solid black'>","background","mixed_complex_deviant","images/simple/108.png","images/simple/31.png","images/complex/118.png,images/complex/23.png,images/complex/117.png,images/complex/64.png,images/complex/82.png,images/complex/54.png,images/complex/36.png,images/complex/2.png,images/complex/87.png,images/complex/77.png,images/complex/84.png,images/complex/44.png,images/complex/53.png,images/complex/75.png,images/complex/80.png,images/complex/68.png,images/complex/81.png,images/complex/70.png,images/complex/108.png,images/complex/32.png,images/complex/30.png,images/complex/119.png,images/complex/48.png,images/complex/109.png,images/complex/111.png,images/complex/71.png,images/complex/4.png,images/complex/97.png,images/complex/17.png,images/complex/98.png,images/complex/55.png,images/complex/49.png,images/complex/63.png,images/complex/1.png,images/complex/106.png,images/complex/92.png,images/complex/50.png,images/complex/86.png","0","0","","600","820.1249999925494","","",""
"","null","html-keyboard-response","93","217976","0.0-1.0-0.46","SS1602366760417","<img src=images/blank.png width =""500"" height = ""600"" style=""border:5px solid black"">","null","","","","","","","","","","","","","",""
"","2397.29000000807","stimulus-presentation","94","221036","0.0-1.0-1.46","SS1602366760417","","40","<img src='images/simple/31.png' width ='500' height = '600' style='border:5px solid black'>","background","mixed_complex_deviant","images/simple/108.png","images/simple/31.png","images/complex/118.png,images/complex/23.png,images/complex/117.png,images/complex/64.png,images/complex/82.png,images/complex/54.png,images/complex/36.png,images/complex/2.png,images/complex/87.png,images/complex/77.png,images/complex/84.png,images/complex/44.png,images/complex/53.png,images/complex/75.png,images/complex/80.png,images/complex/68.png,images/complex/81.png,images/complex/70.png,images/complex/108.png,images/complex/32.png,images/complex/30.png,images/complex/119.png,images/complex/48.png,images/complex/109.png,images/complex/111.png,images/complex/71.png,images/complex/4.png,images/complex/97.png,images/complex/17.png,images/complex/98.png,images/complex/55.png,images/complex/49.png,images/complex/63.png,images/complex/1.png,images/complex/106.png,images/complex/92.png,images/complex/50.png,images/complex/86.png","0","0","","600","2997.29000000807","","",""
"","null","html-keyboard-response","95","221977","0.0-1.0-0.47","SS1602366760417","<img src=images/blank.png width =""500"" height = ""600"" style=""border:5px solid black"">","null","","","","","","","","","","","","","",""
"","628.7000000011176","stimulus-presentation","96","223267","0.0-1.0-1.47","SS1602366760417","","40","<img src='images/simple/31.png' width ='500' height = '600' style='border:5px solid black'>","background","mixed_complex_deviant","images/simple/108.png","images/simple/31.png","images/complex/118.png,images/complex/23.png,images/complex/117.png,images/complex/64.png,images/complex/82.png,images/complex/54.png,images/complex/36.png,images/complex/2.png,images/complex/87.png,images/complex/77.png,images/complex/84.png,images/complex/44.png,images/complex/53.png,images/complex/75.png,images/complex/80.png,images/complex/68.png,images/complex/81.png,images/complex/70.png,images/complex/108.png,images/complex/32.png,images/complex/30.png,images/complex/119.png,images/complex/48.png,images/complex/109.png,images/complex/111.png,images/complex/71.png,images/complex/4.png,images/complex/97.png,images/complex/17.png,images/complex/98.png,images/complex/55.png,images/complex/49.png,images/complex/63.png,images/complex/1.png,images/complex/106.png,images/complex/92.png,images/complex/50.png,images/complex/86.png","0","0","","600","1228.7000000011176","","",""
"","null","html-keyboard-response","97","224445","0.0-1.0-0.48","SS1602366760417","<img src=images/blank.png width =""500"" height = ""600"" style=""border:5px solid black"">","null","","","","","","","","","","","","","",""
"","102.51499999139924","stimulus-presentation","98","225212","0.0-1.0-1.48","SS1602366760417","","40","<img src='images/simple/108.png' width ='500' height = '600' style='border:5px solid black'>","target","mixed_complex_deviant","images/simple/108.png","images/simple/31.png","images/complex/118.png,images/complex/23.png,images/complex/117.png,images/complex/64.png,images/complex/82.png,images/complex/54.png,images/complex/36.png,images/complex/2.png,images/complex/87.png,images/complex/77.png,images/complex/84.png,images/complex/44.png,images/complex/53.png,images/complex/75.png,images/complex/80.png,images/complex/68.png,images/complex/81.png,images/complex/70.png,images/complex/108.png,images/complex/32.png,images/complex/30.png,images/complex/119.png,images/complex/48.png,images/complex/109.png,images/complex/111.png,images/complex/71.png,images/complex/4.png,images/complex/97.png,images/complex/17.png,images/complex/98.png,images/complex/55.png,images/complex/49.png,images/complex/63.png,images/complex/1.png,images/complex/106.png,images/complex/92.png,images/complex/50.png,images/complex/86.png","0","0","","600","702.5149999913992","","",""
"","null","html-keyboard-response","99","226426","0.0-1.0-0.49","SS1602366760417","<img src=images/blank.png width =""500"" height = ""600"" style=""border:5px solid black"">","null","","","","","","","","","","","","","",""
"","2313.2299999997485","stimulus-presentation","100","229404","0.0-1.0-1.49","SS1602366760417","","40","<img src='images/simple/31.png' width ='500' height = '600' style='border:5px solid black'>","background","mixed_complex_deviant","images/simple/108.png","images/simple/31.png","images/complex/118.png,images/complex/23.png,images/complex/117.png,images/complex/64.png,images/complex/82.png,images/complex/54.png,images/complex/36.png,images/complex/2.png,images/complex/87.png,images/complex/77.png,images/complex/84.png,images/complex/44.png,images/complex/53.png,images/complex/75.png,images/complex/80.png,images/complex/68.png,images/complex/81.png,images/complex/70.png,images/complex/108.png,images/complex/32.png,images/complex/30.png,images/complex/119.png,images/complex/48.png,images/complex/109.png,images/complex/111.png,images/complex/71.png,images/complex/4.png,images/complex/97.png,images/complex/17.png,images/complex/98.png,images/complex/55.png,images/complex/49.png,images/complex/63.png,images/complex/1.png,images/complex/106.png,images/complex/92.png,images/complex/50.png,images/complex/86.png","0","0","","600","2913.2299999997485","1266.6449999960605","",""
"","null","html-keyboard-response","101","230467","0.0-2.0","SS1602366760417","here's the 1 break block!","null","","","","","","","","","","","","","",""
"","null","html-keyboard-response","102","231705","0.0-3.0-0.0","SS1602366760417","<img src=images/blank.png width =""500"" height = ""600"" style=""border:5px solid black"">","null","","","","","","","","","","","","","",""
"","620.1000000000931","stimulus-presentation","103","232987","0.0-3.0-1.0","SS1602366760417","","40","<img src='images/simple/31.png' width ='500' height = '600' style='border:5px solid black'>","background","mixed_complex_deviant","images/simple/108.png","images/simple/31.png","images/complex/118.png,images/complex/23.png,images/complex/117.png,images/complex/64.png,images/complex/82.png,images/complex/54.png,images/complex/36.png,images/complex/2.png,images/complex/87.png,images/complex/77.png,images/complex/84.png,images/complex/44.png,images/complex/53.png,images/complex/75.png,images/complex/80.png,images/complex/68.png,images/complex/81.png,images/complex/70.png,images/complex/108.png,images/complex/32.png,images/complex/30.png,images/complex/119.png,images/complex/48.png,images/complex/109.png,images/complex/111.png,images/complex/71.png,images/complex/4.png,images/complex/97.png,images/complex/17.png,images/complex/98.png,images/complex/55.png,images/complex/49.png,images/complex/63.png,images/complex/1.png,images/complex/106.png,images/complex/92.png,images/complex/50.png,images/complex/86.png","0","1","","600","1220.1000000000931","","",""
"","null","html-keyboard-response","104","234349","0.0-3.0-0.1","SS1602366760417","<img src=images/blank.png width =""500"" height = ""600"" style=""border:5px solid black"">","null","","","","","","","","","","","","","",""
"","70.69000000774395","stimulus-presentation","105","235083","0.0-3.0-1.1","SS1602366760417","","40","<img src='images/simple/31.png' width ='500' height = '600' style='border:5px solid black'>","background","mixed_complex_deviant","images/simple/108.png","images/simple/31.png","images/complex/118.png,images/complex/23.png,images/complex/117.png,images/complex/64.png,images/complex/82.png,images/complex/54.png,images/complex/36.png,images/complex/2.png,images/complex/87.png,images/complex/77.png,images/complex/84.png,images/complex/44.png,images/complex/53.png,images/complex/75.png,images/complex/80.png,images/complex/68.png,images/complex/81.png,images/complex/70.png,images/complex/108.png,images/complex/32.png,images/complex/30.png,images/complex/119.png,images/complex/48.png,images/complex/109.png,images/complex/111.png,images/complex/71.png,images/complex/4.png,images/complex/97.png,images/complex/17.png,images/complex/98.png,images/complex/55.png,images/complex/49.png,images/complex/63.png,images/complex/1.png,images/complex/106.png,images/complex/92.png,images/complex/50.png,images/complex/86.png","0","1","","600","670.690000007744","","",""
"","null","html-keyboard-response","106","236444","0.0-3.0-0.2","SS1602366760417","<img src=images/blank.png width =""500"" height = ""600"" style=""border:5px solid black"">","null","","","","","","","","","","","","","",""
"","1002.3849999997765","stimulus-presentation","107","238113","0.0-3.0-1.2","SS1602366760417","","40","<img src='images/complex/86.png' width ='500' height = '600' style='border:5px solid black'>","deviant","mixed_complex_deviant","images/simple/108.png","images/simple/31.png","images/complex/118.png,images/complex/23.png,images/complex/117.png,images/complex/64.png,images/complex/82.png,images/complex/54.png,images/complex/36.png,images/complex/2.png,images/complex/87.png,images/complex/77.png,images/complex/84.png,images/complex/44.png,images/complex/53.png,images/complex/75.png,images/complex/80.png,images/complex/68.png,images/complex/81.png,images/complex/70.png,images/complex/108.png,images/complex/32.png,images/complex/30.png,images/complex/119.png,images/complex/48.png,images/complex/109.png,images/complex/111.png,images/complex/71.png,images/complex/4.png,images/complex/97.png,images/complex/17.png,images/complex/98.png,images/complex/55.png,images/complex/49.png,images/complex/63.png,images/complex/1.png,images/complex/106.png,images/complex/92.png,images/complex/50.png,images/complex/86.png","0","1","","600","1602.3849999997765","","",""
"","null","html-keyboard-response","108","239081","0.0-3.0-0.3","SS1602366760417","<img src=images/blank.png width =""500"" height = ""600"" style=""border:5px solid black"">","null","","","","","","","","","","","","","",""
"","381.80000000284053","stimulus-presentation","109","240126","0.0-3.0-1.3","SS1602366760417","","40","<img src='images/simple/31.png' width ='500' height = '600' style='border:5px solid black'>","background","mixed_complex_deviant","images/simple/108.png","images/simple/31.png","images/complex/118.png,images/complex/23.png,images/complex/117.png,images/complex/64.png,images/complex/82.png,images/complex/54.png,images/complex/36.png,images/complex/2.png,images/complex/87.png,images/complex/77.png,images/complex/84.png,images/complex/44.png,images/complex/53.png,images/complex/75.png,images/complex/80.png,images/complex/68.png,images/complex/81.png,images/complex/70.png,images/complex/108.png,images/complex/32.png,images/complex/30.png,images/complex/119.png,images/complex/48.png,images/complex/109.png,images/complex/111.png,images/complex/71.png,images/complex/4.png,images/complex/97.png,images/complex/17.png,images/complex/98.png,images/complex/55.png,images/complex/49.png,images/complex/63.png,images/complex/1.png,images/complex/106.png,images/complex/92.png,images/complex/50.png,images/complex/86.png","0","1","","600","981.8000000028405","","",""
"","null","html-keyboard-response","110","241436","0.0-3.0-0.4","SS1602366760417","<img src=images/blank.png width =""500"" height = ""600"" style=""border:5px solid black"">","null","","","","","","","","","","","","","",""
"","181.06000000261702","stimulus-presentation","111","242284","0.0-3.0-1.4","SS1602366760417","","40","<img src='images/simple/31.png' width ='500' height = '600' style='border:5px solid black'>","background","mixed_complex_deviant","images/simple/108.png","images/simple/31.png","images/complex/118.png,images/complex/23.png,images/complex/117.png,images/complex/64.png,images/complex/82.png,images/complex/54.png,images/complex/36.png,images/complex/2.png,images/complex/87.png,images/complex/77.png,images/complex/84.png,images/complex/44.png,images/complex/53.png,images/complex/75.png,images/complex/80.png,images/complex/68.png,images/complex/81.png,images/complex/70.png,images/complex/108.png,images/complex/32.png,images/complex/30.png,images/complex/119.png,images/complex/48.png,images/complex/109.png,images/complex/111.png,images/complex/71.png,images/complex/4.png,images/complex/97.png,images/complex/17.png,images/complex/98.png,images/complex/55.png,images/complex/49.png,images/complex/63.png,images/complex/1.png,images/complex/106.png,images/complex/92.png,images/complex/50.png,images/complex/86.png","0","1","","600","781.060000002617","","",""
"","null","html-keyboard-response","112","243344","0.0-3.0-0.5","SS1602366760417","<img src=images/blank.png width =""500"" height = ""600"" style=""border:5px solid black"">","null","","","","","","","","","","","","","",""
"","303.80500000319444","stimulus-presentation","113","244316","0.0-3.0-1.5","SS1602366760417","","40","<img src='images/simple/108.png' width ='500' height = '600' style='border:5px solid black'>","target","mixed_complex_deviant","images/simple/108.png","images/simple/31.png","images/complex/118.png,images/complex/23.png,images/complex/117.png,images/complex/64.png,images/complex/82.png,images/complex/54.png,images/complex/36.png,images/complex/2.png,images/complex/87.png,images/complex/77.png,images/complex/84.png,images/complex/44.png,images/complex/53.png,images/complex/75.png,images/complex/80.png,images/complex/68.png,images/complex/81.png,images/complex/70.png,images/complex/108.png,images/complex/32.png,images/complex/30.png,images/complex/119.png,images/complex/48.png,images/complex/109.png,images/complex/111.png,images/complex/71.png,images/complex/4.png,images/complex/97.png,images/complex/17.png,images/complex/98.png,images/complex/55.png,images/complex/49.png,images/complex/63.png,images/complex/1.png,images/complex/106.png,images/complex/92.png,images/complex/50.png,images/complex/86.png","0","1","","600","903.8050000031944","","",""
"","null","html-keyboard-response","114","245639","0.0-3.0-0.6","SS1602366760417","<img src=images/blank.png width =""500"" height = ""600"" style=""border:5px solid black"">","null","","","","","","","","","","","","","",""
"","462.79499999945983","stimulus-presentation","115","246771","0.0-3.0-1.6","SS1602366760417","","40","<img src='images/simple/31.png' width ='500' height = '600' style='border:5px solid black'>","background","mixed_complex_deviant","images/simple/108.png","images/simple/31.png","images/complex/118.png,images/complex/23.png,images/complex/117.png,images/complex/64.png,images/complex/82.png,images/complex/54.png,images/complex/36.png,images/complex/2.png,images/complex/87.png,images/complex/77.png,images/complex/84.png,images/complex/44.png,images/complex/53.png,images/complex/75.png,images/complex/80.png,images/complex/68.png,images/complex/81.png,images/complex/70.png,images/complex/108.png,images/complex/32.png,images/complex/30.png,images/complex/119.png,images/complex/48.png,images/complex/109.png,images/complex/111.png,images/complex/71.png,images/complex/4.png,images/complex/97.png,images/complex/17.png,images/complex/98.png,images/complex/55.png,images/complex/49.png,images/complex/63.png,images/complex/1.png,images/complex/106.png,images/complex/92.png,images/complex/50.png,images/complex/86.png","0","1","","600","1062.7949999994598","","",""
"","null","html-keyboard-response","116","247774","0.0-3.0-0.7","SS1602366760417","<img src=images/blank.png width =""500"" height = ""600"" style=""border:5px solid black"">","null","","","","","","","","","","","","","",""
"","983.2299999980023","stimulus-presentation","117","249428","0.0-3.0-1.7","SS1602366760417","","40","<img src='images/simple/31.png' width ='500' height = '600' style='border:5px solid black'>","background","mixed_complex_deviant","images/simple/108.png","images/simple/31.png","images/complex/118.png,images/complex/23.png,images/complex/117.png,images/complex/64.png,images/complex/82.png,images/complex/54.png,images/complex/36.png,images/complex/2.png,images/complex/87.png,images/complex/77.png,images/complex/84.png,images/complex/44.png,images/complex/53.png,images/complex/75.png,images/complex/80.png,images/complex/68.png,images/complex/81.png,images/complex/70.png,images/complex/108.png,images/complex/32.png,images/complex/30.png,images/complex/119.png,images/complex/48.png,images/complex/109.png,images/complex/111.png,images/complex/71.png,images/complex/4.png,images/complex/97.png,images/complex/17.png,images/complex/98.png,images/complex/55.png,images/complex/49.png,images/complex/63.png,images/complex/1.png,images/complex/106.png,images/complex/92.png,images/complex/50.png,images/complex/86.png","0","1","","600","1583.2299999980023","","",""
"","null","html-keyboard-response","118","250506","0.0-3.0-0.8","SS1602366760417","<img src=images/blank.png width =""500"" height = ""600"" style=""border:5px solid black"">","null","","","","","","","","","","","","","",""
"","1738.15000000468","stimulus-presentation","119","252912","0.0-3.0-1.8","SS1602366760417","","40","<img src='images/simple/31.png' width ='500' height = '600' style='border:5px solid black'>","background","mixed_complex_deviant","images/simple/108.png","images/simple/31.png","images/complex/118.png,images/complex/23.png,images/complex/117.png,images/complex/64.png,images/complex/82.png,images/complex/54.png,images/complex/36.png,images/complex/2.png,images/complex/87.png,images/complex/77.png,images/complex/84.png,images/complex/44.png,images/complex/53.png,images/complex/75.png,images/complex/80.png,images/complex/68.png,images/complex/81.png,images/complex/70.png,images/complex/108.png,images/complex/32.png,images/complex/30.png,images/complex/119.png,images/complex/48.png,images/complex/109.png,images/complex/111.png,images/complex/71.png,images/complex/4.png,images/complex/97.png,images/complex/17.png,images/complex/98.png,images/complex/55.png,images/complex/49.png,images/complex/63.png,images/complex/1.png,images/complex/106.png,images/complex/92.png,images/complex/50.png,images/complex/86.png","0","1","","600","2338.15000000468","","",""
"","null","html-keyboard-response","120","254068","0.0-3.0-0.9","SS1602366760417","<img src=images/blank.png width =""500"" height = ""600"" style=""border:5px solid black"">","null","","","","","","","","","","","","","",""
"","90.83000000100583","stimulus-presentation","121","254835","0.0-3.0-1.9","SS1602366760417","","40","<img src='images/complex/1.png' width ='500' height = '600' style='border:5px solid black'>","deviant","mixed_complex_deviant","images/simple/108.png","images/simple/31.png","images/complex/118.png,images/complex/23.png,images/complex/117.png,images/complex/64.png,images/complex/82.png,images/complex/54.png,images/complex/36.png,images/complex/2.png,images/complex/87.png,images/complex/77.png,images/complex/84.png,images/complex/44.png,images/complex/53.png,images/complex/75.png,images/complex/80.png,images/complex/68.png,images/complex/81.png,images/complex/70.png,images/complex/108.png,images/complex/32.png,images/complex/30.png,images/complex/119.png,images/complex/48.png,images/complex/109.png,images/complex/111.png,images/complex/71.png,images/complex/4.png,images/complex/97.png,images/complex/17.png,images/complex/98.png,images/complex/55.png,images/complex/49.png,images/complex/63.png,images/complex/1.png,images/complex/106.png,images/complex/92.png,images/complex/50.png,images/complex/86.png","0","1","","600","690.8300000010058","","",""
"","null","html-keyboard-response","122","256161","0.0-3.0-0.10","SS1602366760417","<img src=images/blank.png width =""500"" height = ""600"" style=""border:5px solid black"">","null","","","","","","","","","","","","","",""
"","1999.4000000006054","stimulus-presentation","123","258834","0.0-3.0-1.10","SS1602366760417","","40","<img src='images/simple/31.png' width ='500' height = '600' style='border:5px solid black'>","background","mixed_complex_deviant","images/simple/108.png","images/simple/31.png","images/complex/118.png,images/complex/23.png,images/complex/117.png,images/complex/64.png,images/complex/82.png,images/complex/54.png,images/complex/36.png,images/complex/2.png,images/complex/87.png,images/complex/77.png,images/complex/84.png,images/complex/44.png,images/complex/53.png,images/complex/75.png,images/complex/80.png,images/complex/68.png,images/complex/81.png,images/complex/70.png,images/complex/108.png,images/complex/32.png,images/complex/30.png,images/complex/119.png,images/complex/48.png,images/complex/109.png,images/complex/111.png,images/complex/71.png,images/complex/4.png,images/complex/97.png,images/complex/17.png,images/complex/98.png,images/complex/55.png,images/complex/49.png,images/complex/63.png,images/complex/1.png,images/complex/106.png,images/complex/92.png,images/complex/50.png,images/complex/86.png","0","1","","600","2599.4000000006054","","",""
"","null","html-keyboard-response","124","260180","0.0-3.0-0.11","SS1602366760417","<img src=images/blank.png width =""500"" height = ""600"" style=""border:5px solid black"">","null","","","","","","","","","","","","","",""
"","193.6099999875296","stimulus-presentation","125","261037","0.0-3.0-1.11","SS1602366760417","","40","<img src='images/complex/80.png' width ='500' height = '600' style='border:5px solid black'>","deviant","mixed_complex_deviant","images/simple/108.png","images/simple/31.png","images/complex/118.png,images/complex/23.png,images/complex/117.png,images/complex/64.png,images/complex/82.png,images/complex/54.png,images/complex/36.png,images/complex/2.png,images/complex/87.png,images/complex/77.png,images/complex/84.png,images/complex/44.png,images/complex/53.png,images/complex/75.png,images/complex/80.png,images/complex/68.png,images/complex/81.png,images/complex/70.png,images/complex/108.png,images/complex/32.png,images/complex/30.png,images/complex/119.png,images/complex/48.png,images/complex/109.png,images/complex/111.png,images/complex/71.png,images/complex/4.png,images/complex/97.png,images/complex/17.png,images/complex/98.png,images/complex/55.png,images/complex/49.png,images/complex/63.png,images/complex/1.png,images/complex/106.png,images/complex/92.png,images/complex/50.png,images/complex/86.png","0","1","","600","793.6099999875296","","",""
"","null","html-keyboard-response","126","262351","0.0-3.0-0.12","SS1602366760417","<img src=images/blank.png width =""500"" height = ""600"" style=""border:5px solid black"">","null","","","","","","","","","","","","","",""
"","137.95499999832828","stimulus-presentation","127","263162","0.0-3.0-1.12","SS1602366760417","","40","<img src='images/simple/31.png' width ='500' height = '600' style='border:5px solid black'>","background","mixed_complex_deviant","images/simple/108.png","images/simple/31.png","images/complex/118.png,images/complex/23.png,images/complex/117.png,images/complex/64.png,images/complex/82.png,images/complex/54.png,images/complex/36.png,images/complex/2.png,images/complex/87.png,images/complex/77.png,images/complex/84.png,images/complex/44.png,images/complex/53.png,images/complex/75.png,images/complex/80.png,images/complex/68.png,images/complex/81.png,images/complex/70.png,images/complex/108.png,images/complex/32.png,images/complex/30.png,images/complex/119.png,images/complex/48.png,images/complex/109.png,images/complex/111.png,images/complex/71.png,images/complex/4.png,images/complex/97.png,images/complex/17.png,images/complex/98.png,images/complex/55.png,images/complex/49.png,images/complex/63.png,images/complex/1.png,images/complex/106.png,images/complex/92.png,images/complex/50.png,images/complex/86.png","0","1","","600","737.9549999983283","","",""
"","null","html-keyboard-response","128","264203","0.0-3.0-0.13","SS1602366760417","<img src=images/blank.png width =""500"" height = ""600"" style=""border:5px solid black"">","null","","","","","","","","","","","","","",""
"","124.66999999014661","stimulus-presentation","129","265004","0.0-3.0-1.13","SS1602366760417","","40","<img src='images/simple/31.png' width ='500' height = '600' style='border:5px solid black'>","background","mixed_complex_deviant","images/simple/108.png","images/simple/31.png","images/complex/118.png,images/complex/23.png,images/complex/117.png,images/complex/64.png,images/complex/82.png,images/complex/54.png,images/complex/36.png,images/complex/2.png,images/complex/87.png,images/complex/77.png,images/complex/84.png,images/complex/44.png,images/complex/53.png,images/complex/75.png,images/complex/80.png,images/complex/68.png,images/complex/81.png,images/complex/70.png,images/complex/108.png,images/complex/32.png,images/complex/30.png,images/complex/119.png,images/complex/48.png,images/complex/109.png,images/complex/111.png,images/complex/71.png,images/complex/4.png,images/complex/97.png,images/complex/17.png,images/complex/98.png,images/complex/55.png,images/complex/49.png,images/complex/63.png,images/complex/1.png,images/complex/106.png,images/complex/92.png,images/complex/50.png,images/complex/86.png","0","1","","600","724.6699999901466","","",""
"","null","html-keyboard-response","130","266143","0.0-3.0-0.14","SS1602366760417","<img src=images/blank.png width =""500"" height = ""600"" style=""border:5px solid black"">","null","","","","","","","","","","","","","",""
"","2161.9449999998324","stimulus-presentation","131","268981","0.0-3.0-1.14","SS1602366760417","","40","<img src='images/simple/31.png' width ='500' height = '600' style='border:5px solid black'>","background","mixed_complex_deviant","images/simple/108.png","images/simple/31.png","images/complex/118.png,images/complex/23.png,images/complex/117.png,images/complex/64.png,images/complex/82.png,images/complex/54.png,images/complex/36.png,images/complex/2.png,images/complex/87.png,images/complex/77.png,images/complex/84.png,images/complex/44.png,images/complex/53.png,images/complex/75.png,images/complex/80.png,images/complex/68.png,images/complex/81.png,images/complex/70.png,images/complex/108.png,images/complex/32.png,images/complex/30.png,images/complex/119.png,images/complex/48.png,images/complex/109.png,images/complex/111.png,images/complex/71.png,images/complex/4.png,images/complex/97.png,images/complex/17.png,images/complex/98.png,images/complex/55.png,images/complex/49.png,images/complex/63.png,images/complex/1.png,images/complex/106.png,images/complex/92.png,images/complex/50.png,images/complex/86.png","0","1","","600","2761.9449999998324","","",""
"","null","html-keyboard-response","132","270127","0.0-3.0-0.15","SS1602366760417","<img src=images/blank.png width =""500"" height = ""600"" style=""border:5px solid black"">","null","","","","","","","","","","","","","",""
"","198.92999999865424","stimulus-presentation","133","271003","0.0-3.0-1.15","SS1602366760417","","40","<img src='images/simple/31.png' width ='500' height = '600' style='border:5px solid black'>","background","mixed_complex_deviant","images/simple/108.png","images/simple/31.png","images/complex/118.png,images/complex/23.png,images/complex/117.png,images/complex/64.png,images/complex/82.png,images/complex/54.png,images/complex/36.png,images/complex/2.png,images/complex/87.png,images/complex/77.png,images/complex/84.png,images/complex/44.png,images/complex/53.png,images/complex/75.png,images/complex/80.png,images/complex/68.png,images/complex/81.png,images/complex/70.png,images/complex/108.png,images/complex/32.png,images/complex/30.png,images/complex/119.png,images/complex/48.png,images/complex/109.png,images/complex/111.png,images/complex/71.png,images/complex/4.png,images/complex/97.png,images/complex/17.png,images/complex/98.png,images/complex/55.png,images/complex/49.png,images/complex/63.png,images/complex/1.png,images/complex/106.png,images/complex/92.png,images/complex/50.png,images/complex/86.png","0","1","","600","798.9299999986542","","",""
"","null","html-keyboard-response","134","272015","0.0-3.0-0.16","SS1602366760417","<img src=images/blank.png width =""500"" height = ""600"" style=""border:5px solid black"">","null","","","","","","","","","","","","","",""
"","969.5999999967171","stimulus-presentation","135","273657","0.0-3.0-1.16","SS1602366760417","","40","<img src='images/simple/108.png' width ='500' height = '600' style='border:5px solid black'>","target","mixed_complex_deviant","images/simple/108.png","images/simple/31.png","images/complex/118.png,images/complex/23.png,images/complex/117.png,images/complex/64.png,images/complex/82.png,images/complex/54.png,images/complex/36.png,images/complex/2.png,images/complex/87.png,images/complex/77.png,images/complex/84.png,images/complex/44.png,images/complex/53.png,images/complex/75.png,images/complex/80.png,images/complex/68.png,images/complex/81.png,images/complex/70.png,images/complex/108.png,images/complex/32.png,images/complex/30.png,images/complex/119.png,images/complex/48.png,images/complex/109.png,images/complex/111.png,images/complex/71.png,images/complex/4.png,images/complex/97.png,images/complex/17.png,images/complex/98.png,images/complex/55.png,images/complex/49.png,images/complex/63.png,images/complex/1.png,images/complex/106.png,images/complex/92.png,images/complex/50.png,images/complex/86.png","0","1","","600","1569.599999996717","","",""
"","null","html-keyboard-response","136","274585","0.0-3.0-0.17","SS1602366760417","<img src=images/blank.png width =""500"" height = ""600"" style=""border:5px solid black"">","null","","","","","","","","","","","","","",""
"","982.4650000082329","stimulus-presentation","137","276245","0.0-3.0-1.17","SS1602366760417","","40","<img src='images/complex/77.png' width ='500' height = '600' style='border:5px solid black'>","deviant","mixed_complex_deviant","images/simple/108.png","images/simple/31.png","images/complex/118.png,images/complex/23.png,images/complex/117.png,images/complex/64.png,images/complex/82.png,images/complex/54.png,images/complex/36.png,images/complex/2.png,images/complex/87.png,images/complex/77.png,images/complex/84.png,images/complex/44.png,images/complex/53.png,images/complex/75.png,images/complex/80.png,images/complex/68.png,images/complex/81.png,images/complex/70.png,images/complex/108.png,images/complex/32.png,images/complex/30.png,images/complex/119.png,images/complex/48.png,images/complex/109.png,images/complex/111.png,images/complex/71.png,images/complex/4.png,images/complex/97.png,images/complex/17.png,images/complex/98.png,images/complex/55.png,images/complex/49.png,images/complex/63.png,images/complex/1.png,images/complex/106.png,images/complex/92.png,images/complex/50.png,images/complex/86.png","0","1","","600","1582.465000008233","","",""
"","null","html-keyboard-response","138","277167","0.0-3.0-0.18","SS1602366760417","<img src=images/blank.png width =""500"" height = ""600"" style=""border:5px solid black"">","null","","","","","","","","","","","","","",""
"","410.01500000129454","stimulus-presentation","139","278259","0.0-3.0-1.18","SS1602366760417","","40","<img src='images/simple/31.png' width ='500' height = '600' style='border:5px solid black'>","background","mixed_complex_deviant","images/simple/108.png","images/simple/31.png","images/complex/118.png,images/complex/23.png,images/complex/117.png,images/complex/64.png,images/complex/82.png,images/complex/54.png,images/complex/36.png,images/complex/2.png,images/complex/87.png,images/complex/77.png,images/complex/84.png,images/complex/44.png,images/complex/53.png,images/complex/75.png,images/complex/80.png,images/complex/68.png,images/complex/81.png,images/complex/70.png,images/complex/108.png,images/complex/32.png,images/complex/30.png,images/complex/119.png,images/complex/48.png,images/complex/109.png,images/complex/111.png,images/complex/71.png,images/complex/4.png,images/complex/97.png,images/complex/17.png,images/complex/98.png,images/complex/55.png,images/complex/49.png,images/complex/63.png,images/complex/1.png,images/complex/106.png,images/complex/92.png,images/complex/50.png,images/complex/86.png","0","1","","600","1010.0150000012945","","",""
"","null","html-keyboard-response","140","279244","0.0-3.0-0.19","SS1602366760417","<img src=images/blank.png width =""500"" height = ""600"" style=""border:5px solid black"">","null","","","","","","","","","","","","","",""
"","839.0499999950407","stimulus-presentation","141","280763","0.0-3.0-1.19","SS1602366760417","","40","<img src='images/simple/31.png' width ='500' height = '600' style='border:5px solid black'>","background","mixed_complex_deviant","images/simple/108.png","images/simple/31.png","images/complex/118.png,images/complex/23.png,images/complex/117.png,images/complex/64.png,images/complex/82.png,images/complex/54.png,images/complex/36.png,images/complex/2.png,images/complex/87.png,images/complex/77.png,images/complex/84.png,images/complex/44.png,images/complex/53.png,images/complex/75.png,images/complex/80.png,images/complex/68.png,images/complex/81.png,images/complex/70.png,images/complex/108.png,images/complex/32.png,images/complex/30.png,images/complex/119.png,images/complex/48.png,images/complex/109.png,images/complex/111.png,images/complex/71.png,images/complex/4.png,images/complex/97.png,images/complex/17.png,images/complex/98.png,images/complex/55.png,images/complex/49.png,images/complex/63.png,images/complex/1.png,images/complex/106.png,images/complex/92.png,images/complex/50.png,images/complex/86.png","0","1","","600","1439.0499999950407","","",""
"","null","html-keyboard-response","142","282135","0.0-3.0-0.20","SS1602366760417","<img src=images/blank.png width =""500"" height = ""600"" style=""border:5px solid black"">","null","","","","","","","","","","","","","",""
