"view_history","rt","trial_type","trial_index","time_elapsed","internal_node_id","subject","trial_stimulus","key_press","task_type","task_target_stimulus","task_background_stimulus","task_deviant_stimuli","task_order_number","block_order_number","trial_order_number","minimum_viewing_duration","trial_looking_time","trial_pressed_space_bar","trial_space_bar_rt","stimulus","trial_stimulus_type","responses","question_order"
"[{""page_index"":0,""viewing_time"":9216.60499999416}]","9220.26500001084","instructions","0","9446","0.0-0.0","SS1604588547588","","","","","","","","","","","","","","","","",""
"[{""page_index"":0,""viewing_time"":6227.129999984754},{""page_index"":1,""viewing_time"":6376.140000007581},{""page_index"":2,""viewing_time"":3689.3700000073295},{""page_index"":3,""viewing_time"":6822.140000003856},{""page_index"":4,""viewing_time"":6257.444999995641},{""page_index"":5,""viewing_time"":6639.67999999295},{""page_index"":6,""viewing_time"":4935.365000012098},{""page_index"":7,""viewing_time"":4634.915000002366},{""page_index"":8,""viewing_time"":2093.029999989085}]","47676.17500000051","instructions","1","57130","0.0-1.0","SS1604588547588","","","","","","","","","","","","","","","","",""
"[{""page_index"":0,""viewing_time"":8003.490000002785},{""page_index"":1,""viewing_time"":9532.024999993155},{""page_index"":2,""viewing_time"":1955.034999991767}]","19495.014999993145","instructions","2","76645","0.0-2.0","SS1604588547588","","","","","","","","","","","","","","","","",""
"","1607.125000009546","practice-block","3","78477","0.0-3.0","SS1604588547588","<img src='images/practice/practice_background.jpeg' width ='500' height = '500' style='border:5px solid black'>","40","null","images/practice/practice_target.jpg","null","null","null","null","","200","1807.125000009546","","","","","",""
"","null","html-keyboard-response","4","79537","0.0-4.0","SS1604588547588","","null","","","","","","","","","","","","<img src=images/blank.png width =""500"" height = ""500"" style=""border:5px solid black"">","","",""
"","441.6499999933876","practice-block","5","80196","0.0-5.0","SS1604588547588","<img src='images/practice/practice_background.jpeg' width ='500' height = '500' style='border:5px solid black'>","40","null","images/practice/practice_target.jpg","null","null","null","null","","200","641.6499999933876","","","","","",""
"","null","html-keyboard-response","6","81398","0.0-6.0","SS1604588547588","","null","","","","","","","","","","","","<img src=images/blank.png width =""500"" height = ""500"" style=""border:5px solid black"">","","",""
"","345.0099999899976","practice-block","7","81964","0.0-7.0","SS1604588547588","<img src='images/practice/practice_deviant.jpeg' width ='500' height = '500' style='border:5px solid black'>","40","null","images/practice/practice_target.jpg","null","null","null","null","","200","545.0099999899976","","","","","",""
"","null","html-keyboard-response","8","83075","0.0-8.0","SS1604588547588","","null","","","","","","","","","","","","<img src=images/blank.png width =""500"" height = ""500"" style=""border:5px solid black"">","","",""
"","5144.0850000071805","practice-block","9","88435","0.0-9.0-0.0","SS1604588547588","<img src='images/practice/practice_target.jpg' width ='500' height = '500' style='border:5px solid black'>","40","null","images/practice/practice_target.jpg","null","null","null","null","","200","5344.0850000071805","yes","465.70999998948537","","","",""
"","null","html-keyboard-response","10","89518","0.0-10.0","SS1604588547588","","null","","","","","","","","","","","","<img src=images/blank.png width =""500"" height = ""500"" style=""border:5px solid black"">","","",""
"","705.374999990454","practice-block","11","90444","0.0-11.0","SS1604588547588","<img src='images/practice/practice_background.jpeg' width ='500' height = '500' style='border:5px solid black'>","40","null","images/practice/practice_target.jpg","null","null","null","null","","200","905.374999990454","","","","","",""
"[{""page_index"":0,""viewing_time"":15914}]","15916","task-instructions","12","106363","0.0-12.0","SS1604588547588","","","","","","","","","","","","","","","","",""
"[{""page_index"":0,""viewing_time"":4841.73000001465},{""page_index"":1,""viewing_time"":8077.714999992168},{""page_index"":2,""viewing_time"":4431.780000013532}]","17353.390000003856","instructions","13","123723","0.0-13.0","SS1604588547588","","","","","","","","","","","","","","","","",""
"","null","html-keyboard-response","14","125036","0.0-14.0-0.0","SS1604588547588","","null","","","","","","","","","","","","<img src=images/blank.png width =""500"" height = ""500"" style=""border:5px solid black"">","","",""
"","735.5450000031851","stimulus-presentation","15","125991","0.0-14.0-1.0","SS1604588547588","<img src='images/simple/11.png' width ='500' height = '500' style='border:5px solid black'>","40","all_simple","images/simple/17.png","images/simple/14.png","images/simple/7.png,images/simple/15.png,images/simple/11.png,images/simple/12.png,images/simple/18.png,images/simple/10.png,images/simple/13.png","0","null","","200","935.5450000031851","","","","deviant","",""
"","null","html-keyboard-response","16","127128","0.0-14.0-0.1","SS1604588547588","","null","","","","","","","","","","","","<img src=images/blank.png width =""500"" height = ""500"" style=""border:5px solid black"">","","",""
"","515.9049999783747","stimulus-presentation","17","127865","0.0-14.0-1.1","SS1604588547588","<img src='images/simple/14.png' width ='500' height = '500' style='border:5px solid black'>","40","all_simple","images/simple/17.png","images/simple/14.png","images/simple/7.png,images/simple/15.png,images/simple/11.png,images/simple/12.png,images/simple/18.png,images/simple/10.png,images/simple/13.png","0","null","","200","715.9049999783747","","","","background","",""
"","null","html-keyboard-response","18","128913","0.0-14.0-0.2","SS1604588547588","","null","","","","","","","","","","","","<img src=images/blank.png width =""500"" height = ""500"" style=""border:5px solid black"">","","",""
"","208.0650000134483","stimulus-presentation","19","129344","0.0-14.0-1.2","SS1604588547588","<img src='images/simple/14.png' width ='500' height = '500' style='border:5px solid black'>","40","all_simple","images/simple/17.png","images/simple/14.png","images/simple/7.png,images/simple/15.png,images/simple/11.png,images/simple/12.png,images/simple/18.png,images/simple/10.png,images/simple/13.png","0","null","","200","408.0650000134483","","","","background","",""
"","null","html-keyboard-response","20","130570","0.0-14.0-0.3","SS1604588547588","","null","","","","","","","","","","","","<img src=images/blank.png width =""500"" height = ""500"" style=""border:5px solid black"">","","",""
"","262.06000000820495","stimulus-presentation","21","131069","0.0-14.0-1.3","SS1604588547588","<img src='images/simple/14.png' width ='500' height = '500' style='border:5px solid black'>","40","all_simple","images/simple/17.png","images/simple/14.png","images/simple/7.png,images/simple/15.png,images/simple/11.png,images/simple/12.png,images/simple/18.png,images/simple/10.png,images/simple/13.png","0","null","","200","462.06000000820495","","","","background","",""
"","null","html-keyboard-response","22","132114","0.0-14.0-0.4","SS1604588547588","","null","","","","","","","","","","","","<img src=images/blank.png width =""500"" height = ""500"" style=""border:5px solid black"">","","",""
"","271.3100000109989","stimulus-presentation","23","132607","0.0-14.0-1.4","SS1604588547588","<img src='images/simple/14.png' width ='500' height = '500' style='border:5px solid black'>","40","all_simple","images/simple/17.png","images/simple/14.png","images/simple/7.png,images/simple/15.png,images/simple/11.png,images/simple/12.png,images/simple/18.png,images/simple/10.png,images/simple/13.png","0","null","","200","471.3100000109989","","","","background","",""
"","null","html-keyboard-response","24","133575","0.0-14.0-0.5","SS1604588547588","","null","","","","","","","","","","","","<img src=images/blank.png width =""500"" height = ""500"" style=""border:5px solid black"">","","",""
"","226.38000000733882","stimulus-presentation","25","134021","0.0-14.0-1.5","SS1604588547588","<img src='images/simple/14.png' width ='500' height = '500' style='border:5px solid black'>","40","all_simple","images/simple/17.png","images/simple/14.png","images/simple/7.png,images/simple/15.png,images/simple/11.png,images/simple/12.png,images/simple/18.png,images/simple/10.png,images/simple/13.png","0","null","","200","426.3800000073388","","","","background","",""
"","null","html-keyboard-response","26","135044","0.0-14.0-0.6","SS1604588547588","","null","","","","","","","","","","","","<img src=images/blank.png width =""500"" height = ""500"" style=""border:5px solid black"">","","",""
"","196.05999998748302","stimulus-presentation","27","135463","0.0-14.0-1.6","SS1604588547588","<img src='images/simple/14.png' width ='500' height = '500' style='border:5px solid black'>","40","all_simple","images/simple/17.png","images/simple/14.png","images/simple/7.png,images/simple/15.png,images/simple/11.png,images/simple/12.png,images/simple/18.png,images/simple/10.png,images/simple/13.png","0","null","","200","396.059999987483","","","","background","",""
"","null","html-keyboard-response","28","136476","0.0-14.0-0.7","SS1604588547588","","null","","","","","","","","","","","","<img src=images/blank.png width =""500"" height = ""500"" style=""border:5px solid black"">","","",""
"","386.19499999913387","stimulus-presentation","29","137085","0.0-14.0-1.7","SS1604588547588","<img src='images/simple/15.png' width ='500' height = '500' style='border:5px solid black'>","40","all_simple","images/simple/17.png","images/simple/14.png","images/simple/7.png,images/simple/15.png,images/simple/11.png,images/simple/12.png,images/simple/18.png,images/simple/10.png,images/simple/13.png","0","null","","200","586.1949999991339","","","","deviant","",""
"","null","html-keyboard-response","30","138054","0.0-14.0-0.8","SS1604588547588","","null","","","","","","","","","","","","<img src=images/blank.png width =""500"" height = ""500"" style=""border:5px solid black"">","","",""
"","198.44500001636334","stimulus-presentation","31","138463","0.0-14.0-1.8","SS1604588547588","<img src='images/simple/14.png' width ='500' height = '500' style='border:5px solid black'>","40","all_simple","images/simple/17.png","images/simple/14.png","images/simple/7.png,images/simple/15.png,images/simple/11.png,images/simple/12.png,images/simple/18.png,images/simple/10.png,images/simple/13.png","0","null","","200","398.44500001636334","","","","background","",""
"","null","html-keyboard-response","32","139293","0.0-14.0-0.9","SS1604588547588","","null","","","","","","","","","","","","<img src=images/blank.png width =""500"" height = ""500"" style=""border:5px solid black"">","","",""
"","257.59999998263083","stimulus-presentation","33","139758","0.0-14.0-1.9","SS1604588547588","<img src='images/simple/14.png' width ='500' height = '500' style='border:5px solid black'>","40","all_simple","images/simple/17.png","images/simple/14.png","images/simple/7.png,images/simple/15.png,images/simple/11.png,images/simple/12.png,images/simple/18.png,images/simple/10.png,images/simple/13.png","0","null","","200","457.59999998263083","","","","background","",""
"","null","html-keyboard-response","34","140908","0.0-14.0-0.10","SS1604588547588","","null","","","","","","","","","","","","<img src=images/blank.png width =""500"" height = ""500"" style=""border:5px solid black"">","","",""
"","2051.5549999836367","stimulus-presentation","35","143174","0.0-14.0-1.10","SS1604588547588","<img src='images/simple/17.png' width ='500' height = '500' style='border:5px solid black'>","40","all_simple","images/simple/17.png","images/simple/14.png","images/simple/7.png,images/simple/15.png,images/simple/11.png,images/simple/12.png,images/simple/18.png,images/simple/10.png,images/simple/13.png","0","null","","200","2251.5549999836367","","","","target","",""
"","null","html-keyboard-response","36","144134","0.0-14.0-0.11","SS1604588547588","","null","","","","","","","","","","","","<img src=images/blank.png width =""500"" height = ""500"" style=""border:5px solid black"">","","",""
"","359.25000000861473","stimulus-presentation","37","144716","0.0-14.0-1.11","SS1604588547588","<img src='images/simple/10.png' width ='500' height = '500' style='border:5px solid black'>","40","all_simple","images/simple/17.png","images/simple/14.png","images/simple/7.png,images/simple/15.png,images/simple/11.png,images/simple/12.png,images/simple/18.png,images/simple/10.png,images/simple/13.png","0","null","","200","559.2500000086147","","","","deviant","",""
"","null","html-keyboard-response","38","145579","0.0-14.0-0.12","SS1604588547588","","null","","","","","","","","","","","","<img src=images/blank.png width =""500"" height = ""500"" style=""border:5px solid black"">","","",""
"","278.44000002369285","stimulus-presentation","39","146076","0.0-14.0-1.12","SS1604588547588","<img src='images/simple/14.png' width ='500' height = '500' style='border:5px solid black'>","40","all_simple","images/simple/17.png","images/simple/14.png","images/simple/7.png,images/simple/15.png,images/simple/11.png,images/simple/12.png,images/simple/18.png,images/simple/10.png,images/simple/13.png","0","null","","200","478.44000002369285","","","","background","",""
"","null","html-keyboard-response","40","147195","0.0-14.0-0.13","SS1604588547588","","null","","","","","","","","","","","","<img src=images/blank.png width =""500"" height = ""500"" style=""border:5px solid black"">","","",""
"","1708.9750000159256","stimulus-presentation","41","149118","0.0-14.0-1.13","SS1604588547588","<img src='images/simple/17.png' width ='500' height = '500' style='border:5px solid black'>","40","all_simple","images/simple/17.png","images/simple/14.png","images/simple/7.png,images/simple/15.png,images/simple/11.png,images/simple/12.png,images/simple/18.png,images/simple/10.png,images/simple/13.png","0","null","","200","1908.9750000159256","yes","459.42500000819564","","target","",""
"","null","html-keyboard-response","42","150104","0.0-14.0-0.14","SS1604588547588","","null","","","","","","","","","","","","<img src=images/blank.png width =""500"" height = ""500"" style=""border:5px solid black"">","","",""
"","235.1500000222586","stimulus-presentation","43","150557","0.0-14.0-1.14","SS1604588547588","<img src='images/simple/14.png' width ='500' height = '500' style='border:5px solid black'>","40","all_simple","images/simple/17.png","images/simple/14.png","images/simple/7.png,images/simple/15.png,images/simple/11.png,images/simple/12.png,images/simple/18.png,images/simple/10.png,images/simple/13.png","0","null","","200","435.1500000222586","","","","background","",""
"","null","html-keyboard-response","44","151746","0.0-14.0-0.15","SS1604588547588","","null","","","","","","","","","","","","<img src=images/blank.png width =""500"" height = ""500"" style=""border:5px solid black"">","","",""
"","189.4849999807775","stimulus-presentation","45","152156","0.0-14.0-1.15","SS1604588547588","<img src='images/simple/14.png' width ='500' height = '500' style='border:5px solid black'>","40","all_simple","images/simple/17.png","images/simple/14.png","images/simple/7.png,images/simple/15.png,images/simple/11.png,images/simple/12.png,images/simple/18.png,images/simple/10.png,images/simple/13.png","0","null","","200","389.4849999807775","","","","background","",""
"","null","html-keyboard-response","46","153274","0.0-14.0-0.16","SS1604588547588","","null","","","","","","","","","","","","<img src=images/blank.png width =""500"" height = ""500"" style=""border:5px solid black"">","","",""
"","198.88999999966472","stimulus-presentation","47","153690","0.0-14.0-1.16","SS1604588547588","<img src='images/simple/14.png' width ='500' height = '500' style='border:5px solid black'>","40","all_simple","images/simple/17.png","images/simple/14.png","images/simple/7.png,images/simple/15.png,images/simple/11.png,images/simple/12.png,images/simple/18.png,images/simple/10.png,images/simple/13.png","0","null","","200","398.8899999996647","","","","background","",""
"","null","html-keyboard-response","48","154831","0.0-14.0-0.17","SS1604588547588","","null","","","","","","","","","","","","<img src=images/blank.png width =""500"" height = ""500"" style=""border:5px solid black"">","","",""
"","266.00000000325963","stimulus-presentation","49","155331","0.0-14.0-1.17","SS1604588547588","<img src='images/simple/18.png' width ='500' height = '500' style='border:5px solid black'>","40","all_simple","images/simple/17.png","images/simple/14.png","images/simple/7.png,images/simple/15.png,images/simple/11.png,images/simple/12.png,images/simple/18.png,images/simple/10.png,images/simple/13.png","0","null","","200","466.00000000325963","","","","deviant","",""
"","null","html-keyboard-response","50","156318","0.0-14.0-0.18","SS1604588547588","","null","","","","","","","","","","","","<img src=images/blank.png width =""500"" height = ""500"" style=""border:5px solid black"">","","",""
"","181.73500002012588","stimulus-presentation","51","156764","0.0-14.0-1.18","SS1604588547588","<img src='images/simple/14.png' width ='500' height = '500' style='border:5px solid black'>","40","all_simple","images/simple/17.png","images/simple/14.png","images/simple/7.png,images/simple/15.png,images/simple/11.png,images/simple/12.png,images/simple/18.png,images/simple/10.png,images/simple/13.png","0","null","","200","381.7350000201259","","","","background","",""
"","null","html-keyboard-response","52","157719","0.0-14.0-0.19","SS1604588547588","","null","","","","","","","","","","","","<img src=images/blank.png width =""500"" height = ""500"" style=""border:5px solid black"">","","",""
"","225.1749999995809","stimulus-presentation","53","158161","0.0-14.0-1.19","SS1604588547588","<img src='images/simple/14.png' width ='500' height = '500' style='border:5px solid black'>","40","all_simple","images/simple/17.png","images/simple/14.png","images/simple/7.png,images/simple/15.png,images/simple/11.png,images/simple/12.png,images/simple/18.png,images/simple/10.png,images/simple/13.png","0","null","","200","425.1749999995809","","","","background","",""
"","null","html-keyboard-response","54","159334","0.0-14.0-0.20","SS1604588547588","","null","","","","","","","","","","","","<img src=images/blank.png width =""500"" height = ""500"" style=""border:5px solid black"">","","",""
"","178.5749999980908","stimulus-presentation","55","159730","0.0-14.0-1.20","SS1604588547588","<img src='images/simple/14.png' width ='500' height = '500' style='border:5px solid black'>","40","all_simple","images/simple/17.png","images/simple/14.png","images/simple/7.png,images/simple/15.png,images/simple/11.png,images/simple/12.png,images/simple/18.png,images/simple/10.png,images/simple/13.png","0","null","","200","378.5749999980908","","","","background","",""
"","null","html-keyboard-response","56","160900","0.0-14.0-0.21","SS1604588547588","","null","","","","","","","","","","","","<img src=images/blank.png width =""500"" height = ""500"" style=""border:5px solid black"">","","",""
"","162.7849999931641","stimulus-presentation","57","161284","0.0-14.0-1.21","SS1604588547588","<img src='images/simple/7.png' width ='500' height = '500' style='border:5px solid black'>","40","all_simple","images/simple/17.png","images/simple/14.png","images/simple/7.png,images/simple/15.png,images/simple/11.png,images/simple/12.png,images/simple/18.png,images/simple/10.png,images/simple/13.png","0","null","","200","362.7849999931641","","","","deviant","",""
"","null","html-keyboard-response","58","162559","0.0-14.0-0.22","SS1604588547588","","null","","","","","","","","","","","","<img src=images/blank.png width =""500"" height = ""500"" style=""border:5px solid black"">","","",""
"","194.57500000135042","stimulus-presentation","59","162986","0.0-14.0-1.22","SS1604588547588","<img src='images/simple/14.png' width ='500' height = '500' style='border:5px solid black'>","40","all_simple","images/simple/17.png","images/simple/14.png","images/simple/7.png,images/simple/15.png,images/simple/11.png,images/simple/12.png,images/simple/18.png,images/simple/10.png,images/simple/13.png","0","null","","200","394.5750000013504","","","","background","",""
"","null","html-keyboard-response","60","164239","0.0-14.0-0.23","SS1604588547588","","null","","","","","","","","","","","","<img src=images/blank.png width =""500"" height = ""500"" style=""border:5px solid black"">","","",""
"","1207.2950000001583","stimulus-presentation","61","165666","0.0-14.0-1.23","SS1604588547588","<img src='images/simple/17.png' width ='500' height = '500' style='border:5px solid black'>","40","all_simple","images/simple/17.png","images/simple/14.png","images/simple/7.png,images/simple/15.png,images/simple/11.png,images/simple/12.png,images/simple/18.png,images/simple/10.png,images/simple/13.png","0","null","","200","1407.2950000001583","yes","327.8299999947194","","target","",""
"","null","html-keyboard-response","62","166865","0.0-14.0-0.24","SS1604588547588","","null","","","","","","","","","","","","<img src=images/blank.png width =""500"" height = ""500"" style=""border:5px solid black"">","","",""
"","106.6749999881722","stimulus-presentation","63","167195","0.0-14.0-1.24","SS1604588547588","<img src='images/simple/14.png' width ='500' height = '500' style='border:5px solid black'>","40","all_simple","images/simple/17.png","images/simple/14.png","images/simple/7.png,images/simple/15.png,images/simple/11.png,images/simple/12.png,images/simple/18.png,images/simple/10.png,images/simple/13.png","0","null","","200","306.6749999881722","","","","background","",""
"","null","html-keyboard-response","64","168506","0.0-14.0-0.25","SS1604588547588","","null","","","","","","","","","","","","<img src=images/blank.png width =""500"" height = ""500"" style=""border:5px solid black"">","","",""
"","148.11499998904765","stimulus-presentation","65","168907","0.0-14.0-1.25","SS1604588547588","<img src='images/simple/14.png' width ='500' height = '500' style='border:5px solid black'>","40","all_simple","images/simple/17.png","images/simple/14.png","images/simple/7.png,images/simple/15.png,images/simple/11.png,images/simple/12.png,images/simple/18.png,images/simple/10.png,images/simple/13.png","0","null","","200","348.11499998904765","","","","background","",""
"","null","html-keyboard-response","66","170114","0.0-14.0-0.26","SS1604588547588","","null","","","","","","","","","","","","<img src=images/blank.png width =""500"" height = ""500"" style=""border:5px solid black"">","","",""
"","112.01000001165085","stimulus-presentation","67","170448","0.0-14.0-1.26","SS1604588547588","<img src='images/simple/14.png' width ='500' height = '500' style='border:5px solid black'>","40","all_simple","images/simple/17.png","images/simple/14.png","images/simple/7.png,images/simple/15.png,images/simple/11.png,images/simple/12.png,images/simple/18.png,images/simple/10.png,images/simple/13.png","0","null","","200","312.01000001165085","","","","background","",""
"","null","html-keyboard-response","68","171505","0.0-14.0-0.27","SS1604588547588","","null","","","","","","","","","","","","<img src=images/blank.png width =""500"" height = ""500"" style=""border:5px solid black"">","","",""
"","1143.2199999981094","stimulus-presentation","69","172879","0.0-14.0-1.27","SS1604588547588","<img src='images/simple/17.png' width ='500' height = '500' style='border:5px solid black'>","40","all_simple","images/simple/17.png","images/simple/14.png","images/simple/7.png,images/simple/15.png,images/simple/11.png,images/simple/12.png,images/simple/18.png,images/simple/10.png,images/simple/13.png","0","null","","200","1343.2199999981094","yes","344.74000000045635","","target","",""
"","null","html-keyboard-response","70","173890","0.0-14.0-0.28","SS1604588547588","","null","","","","","","","","","","","","<img src=images/blank.png width =""500"" height = ""500"" style=""border:5px solid black"">","","",""
"","170.8900000085123","stimulus-presentation","71","174280","0.0-14.0-1.28","SS1604588547588","<img src='images/simple/14.png' width ='500' height = '500' style='border:5px solid black'>","40","all_simple","images/simple/17.png","images/simple/14.png","images/simple/7.png,images/simple/15.png,images/simple/11.png,images/simple/12.png,images/simple/18.png,images/simple/10.png,images/simple/13.png","0","null","","200","370.8900000085123","","","","background","",""
"","null","html-keyboard-response","72","175458","0.0-14.0-0.29","SS1604588547588","","null","","","","","","","","","","","","<img src=images/blank.png width =""500"" height = ""500"" style=""border:5px solid black"">","","",""
"","128.63000002107583","stimulus-presentation","73","175807","0.0-14.0-1.29","SS1604588547588","<img src='images/simple/17.png' width ='500' height = '500' style='border:5px solid black'>","40","all_simple","images/simple/17.png","images/simple/14.png","images/simple/7.png,images/simple/15.png,images/simple/11.png,images/simple/12.png,images/simple/18.png,images/simple/10.png,images/simple/13.png","0","null","","200","328.63000002107583","","","","target","",""
"","null","html-keyboard-response","74","176759","0.0-14.0-0.30","SS1604588547588","","null","","","","","","","","","","","","<img src=images/blank.png width =""500"" height = ""500"" style=""border:5px solid black"">","","",""
"","953.1499999866355","stimulus-presentation","75","177951","0.0-14.0-1.30","SS1604588547588","<img src='images/simple/17.png' width ='500' height = '500' style='border:5px solid black'>","40","all_simple","images/simple/17.png","images/simple/14.png","images/simple/7.png,images/simple/15.png,images/simple/11.png,images/simple/12.png,images/simple/18.png,images/simple/10.png,images/simple/13.png","0","null","","200","1153.1499999866355","yes","401.1199999949895","","target","",""
"","null","html-keyboard-response","76","178893","0.0-14.0-0.31","SS1604588547588","","null","","","","","","","","","","","","<img src=images/blank.png width =""500"" height = ""500"" style=""border:5px solid black"">","","",""
"","301.6250000218861","stimulus-presentation","77","179416","0.0-14.0-1.31","SS1604588547588","<img src='images/simple/14.png' width ='500' height = '500' style='border:5px solid black'>","40","all_simple","images/simple/17.png","images/simple/14.png","images/simple/7.png,images/simple/15.png,images/simple/11.png,images/simple/12.png,images/simple/18.png,images/simple/10.png,images/simple/13.png","0","null","","200","501.6250000218861","","","","background","",""
"","null","html-keyboard-response","78","180710","0.0-14.0-0.32","SS1604588547588","","null","","","","","","","","","","","","<img src=images/blank.png width =""500"" height = ""500"" style=""border:5px solid black"">","","",""
"","172.63500002445653","stimulus-presentation","79","181105","0.0-14.0-1.32","SS1604588547588","<img src='images/simple/14.png' width ='500' height = '500' style='border:5px solid black'>","40","all_simple","images/simple/17.png","images/simple/14.png","images/simple/7.png,images/simple/15.png,images/simple/11.png,images/simple/12.png,images/simple/18.png,images/simple/10.png,images/simple/13.png","0","null","","200","372.63500002445653","","","","background","",""
"","null","html-keyboard-response","80","182285","0.0-14.0-0.33","SS1604588547588","","null","","","","","","","","","","","","<img src=images/blank.png width =""500"" height = ""500"" style=""border:5px solid black"">","","",""
"","204.8849999846425","stimulus-presentation","81","182737","0.0-14.0-1.33","SS1604588547588","<img src='images/simple/14.png' width ='500' height = '500' style='border:5px solid black'>","40","all_simple","images/simple/17.png","images/simple/14.png","images/simple/7.png,images/simple/15.png,images/simple/11.png,images/simple/12.png,images/simple/18.png,images/simple/10.png,images/simple/13.png","0","null","","200","404.8849999846425","","","","background","",""
"","null","html-keyboard-response","82","183607","0.0-14.0-0.34","SS1604588547588","","null","","","","","","","","","","","","<img src=images/blank.png width =""500"" height = ""500"" style=""border:5px solid black"">","","",""
"","277.44499998516403","stimulus-presentation","83","184105","0.0-14.0-1.34","SS1604588547588","<img src='images/simple/12.png' width ='500' height = '500' style='border:5px solid black'>","40","all_simple","images/simple/17.png","images/simple/14.png","images/simple/7.png,images/simple/15.png,images/simple/11.png,images/simple/12.png,images/simple/18.png,images/simple/10.png,images/simple/13.png","0","null","","200","477.44499998516403","","","","deviant","",""
"","null","html-keyboard-response","84","185014","0.0-14.0-0.35","SS1604588547588","","null","","","","","","","","","","","","<img src=images/blank.png width =""500"" height = ""500"" style=""border:5px solid black"">","","",""
"","265.3649999992922","stimulus-presentation","85","185503","0.0-14.0-1.35","SS1604588547588","<img src='images/simple/14.png' width ='500' height = '500' style='border:5px solid black'>","40","all_simple","images/simple/17.png","images/simple/14.png","images/simple/7.png,images/simple/15.png,images/simple/11.png,images/simple/12.png,images/simple/18.png,images/simple/10.png,images/simple/13.png","0","null","","200","465.3649999992922","","","","background","",""
"","null","html-keyboard-response","86","186465","0.0-14.0-0.36","SS1604588547588","","null","","","","","","","","","","","","<img src=images/blank.png width =""500"" height = ""500"" style=""border:5px solid black"">","","",""
"","235.20000002463348","stimulus-presentation","87","186918","0.0-14.0-1.36","SS1604588547588","<img src='images/simple/14.png' width ='500' height = '500' style='border:5px solid black'>","40","all_simple","images/simple/17.png","images/simple/14.png","images/simple/7.png,images/simple/15.png,images/simple/11.png,images/simple/12.png,images/simple/18.png,images/simple/10.png,images/simple/13.png","0","null","","200","435.2000000246335","","","","background","",""
"","null","html-keyboard-response","88","188204","0.0-14.0-0.37","SS1604588547588","","null","","","","","","","","","","","","<img src=images/blank.png width =""500"" height = ""500"" style=""border:5px solid black"">","","",""
"","240.27000000933185","stimulus-presentation","89","188667","0.0-14.0-1.37","SS1604588547588","<img src='images/simple/14.png' width ='500' height = '500' style='border:5px solid black'>","40","all_simple","images/simple/17.png","images/simple/14.png","images/simple/7.png,images/simple/15.png,images/simple/11.png,images/simple/12.png,images/simple/18.png,images/simple/10.png,images/simple/13.png","0","null","","200","440.27000000933185","","","","background","",""
"","null","html-keyboard-response","90","189643","0.0-14.0-0.38","SS1604588547588","","null","","","","","","","","","","","","<img src=images/blank.png width =""500"" height = ""500"" style=""border:5px solid black"">","","",""
"","1096.9599999953061","stimulus-presentation","91","190957","0.0-14.0-1.38","SS1604588547588","<img src='images/simple/17.png' width ='500' height = '500' style='border:5px solid black'>","40","all_simple","images/simple/17.png","images/simple/14.png","images/simple/7.png,images/simple/15.png,images/simple/11.png,images/simple/12.png,images/simple/18.png,images/simple/10.png,images/simple/13.png","0","null","","200","1296.9599999953061","yes","386.04000001214445","","target","",""
"","null","html-keyboard-response","92","192246","0.0-14.0-0.39","SS1604588547588","","null","","","","","","","","","","","","<img src=images/blank.png width =""500"" height = ""500"" style=""border:5px solid black"">","","",""
"","244.9800000176765","stimulus-presentation","93","192704","0.0-14.0-1.39","SS1604588547588","<img src='images/simple/14.png' width ='500' height = '500' style='border:5px solid black'>","40","all_simple","images/simple/17.png","images/simple/14.png","images/simple/7.png,images/simple/15.png,images/simple/11.png,images/simple/12.png,images/simple/18.png,images/simple/10.png,images/simple/13.png","0","null","","200","444.9800000176765","","","","background","",""
"","null","html-keyboard-response","94","194010","0.0-14.0-0.40","SS1604588547588","","null","","","","","","","","","","","","<img src=images/blank.png width =""500"" height = ""500"" style=""border:5px solid black"">","","",""
"","185.090000013588","stimulus-presentation","95","194407","0.0-14.0-1.40","SS1604588547588","<img src='images/simple/14.png' width ='500' height = '500' style='border:5px solid black'>","40","all_simple","images/simple/17.png","images/simple/14.png","images/simple/7.png,images/simple/15.png,images/simple/11.png,images/simple/12.png,images/simple/18.png,images/simple/10.png,images/simple/13.png","0","null","","200","385.090000013588","","","","background","",""
"","null","html-keyboard-response","96","195250","0.0-14.0-0.41","SS1604588547588","","null","","","","","","","","","","","","<img src=images/blank.png width =""500"" height = ""500"" style=""border:5px solid black"">","","",""
"","393.1299999821931","stimulus-presentation","97","195854","0.0-14.0-1.41","SS1604588547588","<img src='images/simple/13.png' width ='500' height = '500' style='border:5px solid black'>","40","all_simple","images/simple/17.png","images/simple/14.png","images/simple/7.png,images/simple/15.png,images/simple/11.png,images/simple/12.png,images/simple/18.png,images/simple/10.png,images/simple/13.png","0","null","","200","593.1299999821931","","","","deviant","",""
"","null","html-keyboard-response","98","196905","0.0-14.0-0.42","SS1604588547588","","null","","","","","","","","","","","","<img src=images/blank.png width =""500"" height = ""500"" style=""border:5px solid black"">","","",""
"","173.24999999254942","stimulus-presentation","99","197301","0.0-14.0-1.42","SS1604588547588","<img src='images/simple/14.png' width ='500' height = '500' style='border:5px solid black'>","40","all_simple","images/simple/17.png","images/simple/14.png","images/simple/7.png,images/simple/15.png,images/simple/11.png,images/simple/12.png,images/simple/18.png,images/simple/10.png,images/simple/13.png","0","null","","200","373.2499999925494","","","","background","",""
"","null","html-keyboard-response","100","198546","0.0-14.0-0.43","SS1604588547588","","null","","","","","","","","","","","","<img src=images/blank.png width =""500"" height = ""500"" style=""border:5px solid black"">","","",""
"","175.22000000462867","stimulus-presentation","101","198974","0.0-14.0-1.43","SS1604588547588","<img src='images/simple/14.png' width ='500' height = '500' style='border:5px solid black'>","40","all_simple","images/simple/17.png","images/simple/14.png","images/simple/7.png,images/simple/15.png,images/simple/11.png,images/simple/12.png,images/simple/18.png,images/simple/10.png,images/simple/13.png","0","null","","200","375.2200000046287","","","","background","",""
"","null","html-keyboard-response","102","200070","0.0-14.0-0.44","SS1604588547588","","null","","","","","","","","","","","","<img src=images/blank.png width =""500"" height = ""500"" style=""border:5px solid black"">","","",""
"","172.7299999911338","stimulus-presentation","103","200461","0.0-14.0-1.44","SS1604588547588","<img src='images/simple/14.png' width ='500' height = '500' style='border:5px solid black'>","40","all_simple","images/simple/17.png","images/simple/14.png","images/simple/7.png,images/simple/15.png,images/simple/11.png,images/simple/12.png,images/simple/18.png,images/simple/10.png,images/simple/13.png","0","null","","200","372.7299999911338","","","","background","",""
"","null","html-keyboard-response","104","201635","0.0-14.0-0.45","SS1604588547588","","null","","","","","","","","","","","","<img src=images/blank.png width =""500"" height = ""500"" style=""border:5px solid black"">","","",""
"","216.31499999784864","stimulus-presentation","105","202068","0.0-14.0-1.45","SS1604588547588","<img src='images/simple/14.png' width ='500' height = '500' style='border:5px solid black'>","40","all_simple","images/simple/17.png","images/simple/14.png","images/simple/7.png,images/simple/15.png,images/simple/11.png,images/simple/12.png,images/simple/18.png,images/simple/10.png,images/simple/13.png","0","null","","200","416.31499999784864","","","","background","",""
"","null","html-keyboard-response","106","203196","0.0-14.0-0.46","SS1604588547588","","null","","","","","","","","","","","","<img src=images/blank.png width =""500"" height = ""500"" style=""border:5px solid black"">","","",""
"","199.35499998973683","stimulus-presentation","107","203613","0.0-14.0-1.46","SS1604588547588","<img src='images/simple/14.png' width ='500' height = '500' style='border:5px solid black'>","40","all_simple","images/simple/17.png","images/simple/14.png","images/simple/7.png,images/simple/15.png,images/simple/11.png,images/simple/12.png,images/simple/18.png,images/simple/10.png,images/simple/13.png","0","null","","200","399.3549999897368","","","","background","",""
"","null","html-keyboard-response","108","204727","0.0-14.0-0.47","SS1604588547588","","null","","","","","","","","","","","","<img src=images/blank.png width =""500"" height = ""500"" style=""border:5px solid black"">","","",""
"","215.20999999484047","stimulus-presentation","109","205166","0.0-14.0-1.47","SS1604588547588","<img src='images/simple/14.png' width ='500' height = '500' style='border:5px solid black'>","40","all_simple","images/simple/17.png","images/simple/14.png","images/simple/7.png,images/simple/15.png,images/simple/11.png,images/simple/12.png,images/simple/18.png,images/simple/10.png,images/simple/13.png","0","null","","200","415.2099999948405","","","","background","",""
"","null","html-keyboard-response","110","206038","0.0-14.0-0.48","SS1604588547588","","null","","","","","","","","","","","","<img src=images/blank.png width =""500"" height = ""500"" style=""border:5px solid black"">","","",""
"","311.06000000727363","stimulus-presentation","111","206585","0.0-14.0-1.48","SS1604588547588","<img src='images/simple/14.png' width ='500' height = '500' style='border:5px solid black'>","40","all_simple","images/simple/17.png","images/simple/14.png","images/simple/7.png,images/simple/15.png,images/simple/11.png,images/simple/12.png,images/simple/18.png,images/simple/10.png,images/simple/13.png","0","null","","200","511.06000000727363","","","","background","",""
"[{""page_index"":0,""viewing_time"":30447}]","30450","task-instructions","112","237044","0.0-15.0","SS1604588547588","","","","","","","","","","","","","","","","",""
"[{""page_index"":0,""viewing_time"":2057.185000012396},{""page_index"":1,""viewing_time"":9142.525000002934},{""page_index"":2,""viewing_time"":3384.025000006659}]","14585.755000007339","instructions","113","251643","0.0-16.0","SS1604588547588","","","","","","","","","","","","","","","","",""
"","null","html-keyboard-response","114","252877","0.0-17.0-0.0","SS1604588547588","","null","","","","","","","","","","","","<img src=images/blank.png width =""500"" height = ""500"" style=""border:5px solid black"">","","",""
"","802.9099999985192","stimulus-presentation","115","253918","0.0-17.0-1.0","SS1604588547588","<img src='images/complex/14.png' width ='500' height = '500' style='border:5px solid black'>","40","mixed_simple_deviant","images/complex/1.png","images/complex/14.png","images/simple/8.png,images/simple/16.png,images/simple/9.png,images/simple/2.png,images/simple/6.png,images/simple/5.png,images/simple/1.png","1","null","","200","1002.9099999985192","","","","background","",""
"","null","html-keyboard-response","116","254795","0.0-17.0-0.1","SS1604588547588","","null","","","","","","","","","","","","<img src=images/blank.png width =""500"" height = ""500"" style=""border:5px solid black"">","","",""
"","247.25999997463077","stimulus-presentation","117","255278","0.0-17.0-1.1","SS1604588547588","<img src='images/simple/6.png' width ='500' height = '500' style='border:5px solid black'>","40","mixed_simple_deviant","images/complex/1.png","images/complex/14.png","images/simple/8.png,images/simple/16.png,images/simple/9.png,images/simple/2.png,images/simple/6.png,images/simple/5.png,images/simple/1.png","1","null","","200","447.2599999746308","","","","deviant","",""
"","null","html-keyboard-response","118","256124","0.0-17.0-0.2","SS1604588547588","","null","","","","","","","","","","","","<img src=images/blank.png width =""500"" height = ""500"" style=""border:5px solid black"">","","",""
"","327.45000001159497","stimulus-presentation","119","256669","0.0-17.0-1.2","SS1604588547588","<img src='images/complex/14.png' width ='500' height = '500' style='border:5px solid black'>","40","mixed_simple_deviant","images/complex/1.png","images/complex/14.png","images/simple/8.png,images/simple/16.png,images/simple/9.png,images/simple/2.png,images/simple/6.png,images/simple/5.png,images/simple/1.png","1","null","","200","527.450000011595","","","","background","",""
"","null","html-keyboard-response","120","257658","0.0-17.0-0.3","SS1604588547588","","null","","","","","","","","","","","","<img src=images/blank.png width =""500"" height = ""500"" style=""border:5px solid black"">","","",""
"","211.79999999003485","stimulus-presentation","121","258087","0.0-17.0-1.3","SS1604588547588","<img src='images/complex/14.png' width ='500' height = '500' style='border:5px solid black'>","40","mixed_simple_deviant","images/complex/1.png","images/complex/14.png","images/simple/8.png,images/simple/16.png,images/simple/9.png,images/simple/2.png,images/simple/6.png,images/simple/5.png,images/simple/1.png","1","null","","200","411.79999999003485","","","","background","",""
"","null","html-keyboard-response","122","259018","0.0-17.0-0.4","SS1604588547588","","null","","","","","","","","","","","","<img src=images/blank.png width =""500"" height = ""500"" style=""border:5px solid black"">","","",""
"","231.25499999150634","stimulus-presentation","123","259470","0.0-17.0-1.4","SS1604588547588","<img src='images/complex/14.png' width ='500' height = '500' style='border:5px solid black'>","40","mixed_simple_deviant","images/complex/1.png","images/complex/14.png","images/simple/8.png,images/simple/16.png,images/simple/9.png,images/simple/2.png,images/simple/6.png,images/simple/5.png,images/simple/1.png","1","null","","200","431.25499999150634","","","","background","",""
"","null","html-keyboard-response","124","260757","0.0-17.0-0.5","SS1604588547588","","null","","","","","","","","","","","","<img src=images/blank.png width =""500"" height = ""500"" style=""border:5px solid black"">","","",""
"","251.30000000353903","stimulus-presentation","125","261228","0.0-17.0-1.5","SS1604588547588","<img src='images/simple/8.png' width ='500' height = '500' style='border:5px solid black'>","40","mixed_simple_deviant","images/complex/1.png","images/complex/14.png","images/simple/8.png,images/simple/16.png,images/simple/9.png,images/simple/2.png,images/simple/6.png,images/simple/5.png,images/simple/1.png","1","null","","200","451.300000003539","","","","deviant","",""
"","null","html-keyboard-response","126","262295","0.0-17.0-0.6","SS1604588547588","","null","","","","","","","","","","","","<img src=images/blank.png width =""500"" height = ""500"" style=""border:5px solid black"">","","",""
"","255.9000000183005","stimulus-presentation","127","262773","0.0-17.0-1.6","SS1604588547588","<img src='images/complex/14.png' width ='500' height = '500' style='border:5px solid black'>","40","mixed_simple_deviant","images/complex/1.png","images/complex/14.png","images/simple/8.png,images/simple/16.png,images/simple/9.png,images/simple/2.png,images/simple/6.png,images/simple/5.png,images/simple/1.png","1","null","","200","455.9000000183005","","","","background","",""
"","null","html-keyboard-response","128","264006","0.0-17.0-0.7","SS1604588547588","","null","","","","","","","","","","","","<img src=images/blank.png width =""500"" height = ""500"" style=""border:5px solid black"">","","",""
"","304.78999999468215","stimulus-presentation","129","264533","0.0-17.0-1.7","SS1604588547588","<img src='images/complex/14.png' width ='500' height = '500' style='border:5px solid black'>","40","mixed_simple_deviant","images/complex/1.png","images/complex/14.png","images/simple/8.png,images/simple/16.png,images/simple/9.png,images/simple/2.png,images/simple/6.png,images/simple/5.png,images/simple/1.png","1","null","","200","504.78999999468215","","","","background","",""
"","null","html-keyboard-response","130","265574","0.0-17.0-0.8","SS1604588547588","","null","","","","","","","","","","","","<img src=images/blank.png width =""500"" height = ""500"" style=""border:5px solid black"">","","",""
"","335.87000000989065","stimulus-presentation","131","266125","0.0-17.0-1.8","SS1604588547588","<img src='images/complex/14.png' width ='500' height = '500' style='border:5px solid black'>","40","mixed_simple_deviant","images/complex/1.png","images/complex/14.png","images/simple/8.png,images/simple/16.png,images/simple/9.png,images/simple/2.png,images/simple/6.png,images/simple/5.png,images/simple/1.png","1","null","","200","535.8700000098906","","","","background","",""
"","null","html-keyboard-response","132","267304","0.0-17.0-0.9","SS1604588547588","","null","","","","","","","","","","","","<img src=images/blank.png width =""500"" height = ""500"" style=""border:5px solid black"">","","",""
"","316.9049999851268","stimulus-presentation","133","267838","0.0-17.0-1.9","SS1604588547588","<img src='images/simple/9.png' width ='500' height = '500' style='border:5px solid black'>","40","mixed_simple_deviant","images/complex/1.png","images/complex/14.png","images/simple/8.png,images/simple/16.png,images/simple/9.png,images/simple/2.png,images/simple/6.png,images/simple/5.png,images/simple/1.png","1","null","","200","516.9049999851268","","","","deviant","",""
"","null","html-keyboard-response","134","269038","0.0-17.0-0.10","SS1604588547588","","null","","","","","","","","","","","","<img src=images/blank.png width =""500"" height = ""500"" style=""border:5px solid black"">","","",""
"","256.2200000102166","stimulus-presentation","135","269525","0.0-17.0-1.10","SS1604588547588","<img src='images/complex/14.png' width ='500' height = '500' style='border:5px solid black'>","40","mixed_simple_deviant","images/complex/1.png","images/complex/14.png","images/simple/8.png,images/simple/16.png,images/simple/9.png,images/simple/2.png,images/simple/6.png,images/simple/5.png,images/simple/1.png","1","null","","200","456.2200000102166","","","","background","",""
"","null","html-keyboard-response","136","270473","0.0-17.0-0.11","SS1604588547588","","null","","","","","","","","","","","","<img src=images/blank.png width =""500"" height = ""500"" style=""border:5px solid black"">","","",""
"","304.9800000153482","stimulus-presentation","137","270996","0.0-17.0-1.11","SS1604588547588","<img src='images/complex/14.png' width ='500' height = '500' style='border:5px solid black'>","40","mixed_simple_deviant","images/complex/1.png","images/complex/14.png","images/simple/8.png,images/simple/16.png,images/simple/9.png,images/simple/2.png,images/simple/6.png,images/simple/5.png,images/simple/1.png","1","null","","200","504.9800000153482","","","","background","",""
"","null","html-keyboard-response","138","272255","0.0-17.0-0.12","SS1604588547588","","null","","","","","","","","","","","","<img src=images/blank.png width =""500"" height = ""500"" style=""border:5px solid black"">","","",""
"","335.8099999895785","stimulus-presentation","139","272810","0.0-17.0-1.12","SS1604588547588","<img src='images/complex/14.png' width ='500' height = '500' style='border:5px solid black'>","40","mixed_simple_deviant","images/complex/1.png","images/complex/14.png","images/simple/8.png,images/simple/16.png,images/simple/9.png,images/simple/2.png,images/simple/6.png,images/simple/5.png,images/simple/1.png","1","null","","200","535.8099999895785","","","","background","",""
"","null","html-keyboard-response","140","274043","0.0-17.0-0.13","SS1604588547588","","null","","","","","","","","","","","","<img src=images/blank.png width =""500"" height = ""500"" style=""border:5px solid black"">","","",""
"","287.6399999950081","stimulus-presentation","141","274547","0.0-17.0-1.13","SS1604588547588","<img src='images/complex/14.png' width ='500' height = '500' style='border:5px solid black'>","40","mixed_simple_deviant","images/complex/1.png","images/complex/14.png","images/simple/8.png,images/simple/16.png,images/simple/9.png,images/simple/2.png,images/simple/6.png,images/simple/5.png,images/simple/1.png","1","null","","200","487.6399999950081","","","","background","",""
"","null","html-keyboard-response","142","275706","0.0-17.0-0.14","SS1604588547588","","null","","","","","","","","","","","","<img src=images/blank.png width =""500"" height = ""500"" style=""border:5px solid black"">","","",""
"","412.2300000162795","stimulus-presentation","143","276337","0.0-17.0-1.14","SS1604588547588","<img src='images/simple/1.png' width ='500' height = '500' style='border:5px solid black'>","40","mixed_simple_deviant","images/complex/1.png","images/complex/14.png","images/simple/8.png,images/simple/16.png,images/simple/9.png,images/simple/2.png,images/simple/6.png,images/simple/5.png,images/simple/1.png","1","null","","200","612.2300000162795","","","","deviant","",""
"","null","html-keyboard-response","144","277567","0.0-17.0-0.15","SS1604588547588","","null","","","","","","","","","","","","<img src=images/blank.png width =""500"" height = ""500"" style=""border:5px solid black"">","","",""
"","1449.9249999935273","stimulus-presentation","145","279236","0.0-17.0-1.15","SS1604588547588","<img src='images/complex/1.png' width ='500' height = '500' style='border:5px solid black'>","40","mixed_simple_deviant","images/complex/1.png","images/complex/14.png","images/simple/8.png,images/simple/16.png,images/simple/9.png,images/simple/2.png,images/simple/6.png,images/simple/5.png,images/simple/1.png","1","null","","200","1649.9249999935273","yes","641.6650000028312","","target","",""
"","null","html-keyboard-response","146","280521","0.0-17.0-0.16","SS1604588547588","","null","","","","","","","","","","","","<img src=images/blank.png width =""500"" height = ""500"" style=""border:5px solid black"">","","",""
"","363.3599999884609","stimulus-presentation","147","281124","0.0-17.0-1.16","SS1604588547588","<img src='images/complex/14.png' width ='500' height = '500' style='border:5px solid black'>","40","mixed_simple_deviant","images/complex/1.png","images/complex/14.png","images/simple/8.png,images/simple/16.png,images/simple/9.png,images/simple/2.png,images/simple/6.png,images/simple/5.png,images/simple/1.png","1","null","","200","563.3599999884609","","","","background","",""
"","null","html-keyboard-response","148","282365","0.0-17.0-0.17","SS1604588547588","","null","","","","","","","","","","","","<img src=images/blank.png width =""500"" height = ""500"" style=""border:5px solid black"">","","",""
"","220.18999999272637","stimulus-presentation","149","282840","0.0-17.0-1.17","SS1604588547588","<img src='images/complex/14.png' width ='500' height = '500' style='border:5px solid black'>","40","mixed_simple_deviant","images/complex/1.png","images/complex/14.png","images/simple/8.png,images/simple/16.png,images/simple/9.png,images/simple/2.png,images/simple/6.png,images/simple/5.png,images/simple/1.png","1","null","","200","420.18999999272637","","","","background","",""
"","null","html-keyboard-response","150","283957","0.0-17.0-0.18","SS1604588547588","","null","","","","","","","","","","","","<img src=images/blank.png width =""500"" height = ""500"" style=""border:5px solid black"">","","",""
"","254.480000003241","stimulus-presentation","151","284426","0.0-17.0-1.18","SS1604588547588","<img src='images/complex/14.png' width ='500' height = '500' style='border:5px solid black'>","40","mixed_simple_deviant","images/complex/1.png","images/complex/14.png","images/simple/8.png,images/simple/16.png,images/simple/9.png,images/simple/2.png,images/simple/6.png,images/simple/5.png,images/simple/1.png","1","null","","200","454.480000003241","","","","background","",""
"","null","html-keyboard-response","152","285440","0.0-17.0-0.19","SS1604588547588","","null","","","","","","","","","","","","<img src=images/blank.png width =""500"" height = ""500"" style=""border:5px solid black"">","","",""
"","534.4099999929313","stimulus-presentation","153","286188","0.0-17.0-1.19","SS1604588547588","<img src='images/complex/14.png' width ='500' height = '500' style='border:5px solid black'>","40","mixed_simple_deviant","images/complex/1.png","images/complex/14.png","images/simple/8.png,images/simple/16.png,images/simple/9.png,images/simple/2.png,images/simple/6.png,images/simple/5.png,images/simple/1.png","1","null","","200","734.4099999929313","","","","background","",""
"","null","html-keyboard-response","154","287034","0.0-17.0-0.20","SS1604588547588","","null","","","","","","","","","","","","<img src=images/blank.png width =""500"" height = ""500"" style=""border:5px solid black"">","","",""
"","412.07500000018626","stimulus-presentation","155","287696","0.0-17.0-1.20","SS1604588547588","<img src='images/complex/14.png' width ='500' height = '500' style='border:5px solid black'>","40","mixed_simple_deviant","images/complex/1.png","images/complex/14.png","images/simple/8.png,images/simple/16.png,images/simple/9.png,images/simple/2.png,images/simple/6.png,images/simple/5.png,images/simple/1.png","1","null","","200","612.0750000001863","","","","background","",""
"","null","html-keyboard-response","156","288670","0.0-17.0-0.21","SS1604588547588","","null","","","","","","","","","","","","<img src=images/blank.png width =""500"" height = ""500"" style=""border:5px solid black"">","","",""
"","564.7449999814853","stimulus-presentation","157","289466","0.0-17.0-1.21","SS1604588547588","<img src='images/complex/14.png' width ='500' height = '500' style='border:5px solid black'>","40","mixed_simple_deviant","images/complex/1.png","images/complex/14.png","images/simple/8.png,images/simple/16.png,images/simple/9.png,images/simple/2.png,images/simple/6.png,images/simple/5.png,images/simple/1.png","1","null","","200","764.7449999814853","","","","background","",""
"","null","html-keyboard-response","158","290499","0.0-17.0-0.22","SS1604588547588","","null","","","","","","","","","","","","<img src=images/blank.png width =""500"" height = ""500"" style=""border:5px solid black"">","","",""
"","1245.8399999886751","stimulus-presentation","159","291977","0.0-17.0-1.22","SS1604588547588","<img src='images/complex/1.png' width ='500' height = '500' style='border:5px solid black'>","40","mixed_simple_deviant","images/complex/1.png","images/complex/14.png","images/simple/8.png,images/simple/16.png,images/simple/9.png,images/simple/2.png,images/simple/6.png,images/simple/5.png,images/simple/1.png","1","null","","200","1445.8399999886751","yes","356.1749999935273","","target","",""
"","null","html-keyboard-response","160","292818","0.0-17.0-0.23","SS1604588547588","","null","","","","","","","","","","","","<img src=images/blank.png width =""500"" height = ""500"" style=""border:5px solid black"">","","",""
"","405.15000000596046","stimulus-presentation","161","293473","0.0-17.0-1.23","SS1604588547588","<img src='images/complex/14.png' width ='500' height = '500' style='border:5px solid black'>","40","mixed_simple_deviant","images/complex/1.png","images/complex/14.png","images/simple/8.png,images/simple/16.png,images/simple/9.png,images/simple/2.png,images/simple/6.png,images/simple/5.png,images/simple/1.png","1","null","","200","605.1500000059605","","","","background","",""
"","null","html-keyboard-response","162","294426","0.0-17.0-0.24","SS1604588547588","","null","","","","","","","","","","","","<img src=images/blank.png width =""500"" height = ""500"" style=""border:5px solid black"">","","",""
"","441.09999999636784","stimulus-presentation","163","295096","0.0-17.0-1.24","SS1604588547588","<img src='images/simple/2.png' width ='500' height = '500' style='border:5px solid black'>","40","mixed_simple_deviant","images/complex/1.png","images/complex/14.png","images/simple/8.png,images/simple/16.png,images/simple/9.png,images/simple/2.png,images/simple/6.png,images/simple/5.png,images/simple/1.png","1","null","","200","641.0999999963678","","","","deviant","",""
"","null","html-keyboard-response","164","296254","0.0-17.0-0.25","SS1604588547588","","null","","","","","","","","","","","","<img src=images/blank.png width =""500"" height = ""500"" style=""border:5px solid black"">","","",""
"","267.28000000002794","stimulus-presentation","165","296744","0.0-17.0-1.25","SS1604588547588","<img src='images/complex/14.png' width ='500' height = '500' style='border:5px solid black'>","40","mixed_simple_deviant","images/complex/1.png","images/complex/14.png","images/simple/8.png,images/simple/16.png,images/simple/9.png,images/simple/2.png,images/simple/6.png,images/simple/5.png,images/simple/1.png","1","null","","200","467.28000000002794","","","","background","",""
"","null","html-keyboard-response","166","297979","0.0-17.0-0.26","SS1604588547588","","null","","","","","","","","","","","","<img src=images/blank.png width =""500"" height = ""500"" style=""border:5px solid black"">","","",""
"","336.29500001552515","stimulus-presentation","167","298536","0.0-17.0-1.26","SS1604588547588","<img src='images/complex/14.png' width ='500' height = '500' style='border:5px solid black'>","40","mixed_simple_deviant","images/complex/1.png","images/complex/14.png","images/simple/8.png,images/simple/16.png,images/simple/9.png,images/simple/2.png,images/simple/6.png,images/simple/5.png,images/simple/1.png","1","null","","200","536.2950000155251","","","","background","",""
"","null","html-keyboard-response","168","299747","0.0-17.0-0.27","SS1604588547588","","null","","","","","","","","","","","","<img src=images/blank.png width =""500"" height = ""500"" style=""border:5px solid black"">","","",""
"","239.73499998101033","stimulus-presentation","169","300207","0.0-17.0-1.27","SS1604588547588","<img src='images/complex/14.png' width ='500' height = '500' style='border:5px solid black'>","40","mixed_simple_deviant","images/complex/1.png","images/complex/14.png","images/simple/8.png,images/simple/16.png,images/simple/9.png,images/simple/2.png,images/simple/6.png,images/simple/5.png,images/simple/1.png","1","null","","200","439.73499998101033","","","","background","",""
"","null","html-keyboard-response","170","301291","0.0-17.0-0.28","SS1604588547588","","null","","","","","","","","","","","","<img src=images/blank.png width =""500"" height = ""500"" style=""border:5px solid black"">","","",""
"","252.6300000026822","stimulus-presentation","171","301758","0.0-17.0-1.28","SS1604588547588","<img src='images/complex/14.png' width ='500' height = '500' style='border:5px solid black'>","40","mixed_simple_deviant","images/complex/1.png","images/complex/14.png","images/simple/8.png,images/simple/16.png,images/simple/9.png,images/simple/2.png,images/simple/6.png,images/simple/5.png,images/simple/1.png","1","null","","200","452.6300000026822","","","","background","",""
"","null","html-keyboard-response","172","303007","0.0-17.0-0.29","SS1604588547588","","null","","","","","","","","","","","","<img src=images/blank.png width =""500"" height = ""500"" style=""border:5px solid black"">","","",""
"","204.87499999580905","stimulus-presentation","173","303425","0.0-17.0-1.29","SS1604588547588","<img src='images/complex/14.png' width ='500' height = '500' style='border:5px solid black'>","40","mixed_simple_deviant","images/complex/1.png","images/complex/14.png","images/simple/8.png,images/simple/16.png,images/simple/9.png,images/simple/2.png,images/simple/6.png,images/simple/5.png,images/simple/1.png","1","null","","200","404.87499999580905","","","","background","",""
"","null","html-keyboard-response","174","304399","0.0-17.0-0.30","SS1604588547588","","null","","","","","","","","","","","","<img src=images/blank.png width =""500"" height = ""500"" style=""border:5px solid black"">","","",""
"","1580.3299999970477","stimulus-presentation","175","306215","0.0-17.0-1.30","SS1604588547588","<img src='images/complex/1.png' width ='500' height = '500' style='border:5px solid black'>","40","mixed_simple_deviant","images/complex/1.png","images/complex/14.png","images/simple/8.png,images/simple/16.png,images/simple/9.png,images/simple/2.png,images/simple/6.png,images/simple/5.png,images/simple/1.png","1","null","","200","1780.3299999970477","yes","403.0050000001211","","target","",""
"","null","html-keyboard-response","176","307176","0.0-17.0-0.31","SS1604588547588","","null","","","","","","","","","","","","<img src=images/blank.png width =""500"" height = ""500"" style=""border:5px solid black"">","","",""
"","394.52000000164844","stimulus-presentation","177","307789","0.0-17.0-1.31","SS1604588547588","<img src='images/simple/5.png' width ='500' height = '500' style='border:5px solid black'>","40","mixed_simple_deviant","images/complex/1.png","images/complex/14.png","images/simple/8.png,images/simple/16.png,images/simple/9.png,images/simple/2.png,images/simple/6.png,images/simple/5.png,images/simple/1.png","1","null","","200","594.5200000016484","","","","deviant","",""
"","null","html-keyboard-response","178","308849","0.0-17.0-0.32","SS1604588547588","","null","","","","","","","","","","","","<img src=images/blank.png width =""500"" height = ""500"" style=""border:5px solid black"">","","",""
"","1161.5699999965727","stimulus-presentation","179","310246","0.0-17.0-1.32","SS1604588547588","<img src='images/complex/1.png' width ='500' height = '500' style='border:5px solid black'>","40","mixed_simple_deviant","images/complex/1.png","images/complex/14.png","images/simple/8.png,images/simple/16.png,images/simple/9.png,images/simple/2.png,images/simple/6.png,images/simple/5.png,images/simple/1.png","1","null","","200","1361.5699999965727","yes","384.6250000060536","","target","",""
"","null","html-keyboard-response","180","311264","0.0-17.0-0.33","SS1604588547588","","null","","","","","","","","","","","","<img src=images/blank.png width =""500"" height = ""500"" style=""border:5px solid black"">","","",""
"","1113.5200000135228","stimulus-presentation","181","312614","0.0-17.0-1.33","SS1604588547588","<img src='images/complex/1.png' width ='500' height = '500' style='border:5px solid black'>","40","mixed_simple_deviant","images/complex/1.png","images/complex/14.png","images/simple/8.png,images/simple/16.png,images/simple/9.png,images/simple/2.png,images/simple/6.png,images/simple/5.png,images/simple/1.png","1","null","","200","1313.5200000135228","yes","448.195000004489","","target","",""
"","null","html-keyboard-response","182","313923","0.0-17.0-0.34","SS1604588547588","","null","","","","","","","","","","","","<img src=images/blank.png width =""500"" height = ""500"" style=""border:5px solid black"">","","",""
"","1034.9799999967217","stimulus-presentation","183","315177","0.0-17.0-1.34","SS1604588547588","<img src='images/complex/1.png' width ='500' height = '500' style='border:5px solid black'>","40","mixed_simple_deviant","images/complex/1.png","images/complex/14.png","images/simple/8.png,images/simple/16.png,images/simple/9.png,images/simple/2.png,images/simple/6.png,images/simple/5.png,images/simple/1.png","1","null","","200","1234.9799999967217","yes","498.9149999746587","","target","",""
"","null","html-keyboard-response","184","316445","0.0-17.0-0.35","SS1604588547588","","null","","","","","","","","","","","","<img src=images/blank.png width =""500"" height = ""500"" style=""border:5px solid black"">","","",""
"","214.77500000037253","stimulus-presentation","185","316876","0.0-17.0-1.35","SS1604588547588","<img src='images/complex/14.png' width ='500' height = '500' style='border:5px solid black'>","40","mixed_simple_deviant","images/complex/1.png","images/complex/14.png","images/simple/8.png,images/simple/16.png,images/simple/9.png,images/simple/2.png,images/simple/6.png,images/simple/5.png,images/simple/1.png","1","null","","200","414.77500000037253","","","","background","",""
"","null","html-keyboard-response","186","318160","0.0-17.0-0.36","SS1604588547588","","null","","","","","","","","","","","","<img src=images/blank.png width =""500"" height = ""500"" style=""border:5px solid black"">","","",""
"","369.8699999949895","stimulus-presentation","187","318756","0.0-17.0-1.36","SS1604588547588","<img src='images/simple/16.png' width ='500' height = '500' style='border:5px solid black'>","40","mixed_simple_deviant","images/complex/1.png","images/complex/14.png","images/simple/8.png,images/simple/16.png,images/simple/9.png,images/simple/2.png,images/simple/6.png,images/simple/5.png,images/simple/1.png","1","null","","200","569.8699999949895","","","","deviant","",""
"","null","html-keyboard-response","188","320035","0.0-17.0-0.37","SS1604588547588","","null","","","","","","","","","","","","<img src=images/blank.png width =""500"" height = ""500"" style=""border:5px solid black"">","","",""
"","244.08500001300126","stimulus-presentation","189","320525","0.0-17.0-1.37","SS1604588547588","<img src='images/complex/14.png' width ='500' height = '500' style='border:5px solid black'>","40","mixed_simple_deviant","images/complex/1.png","images/complex/14.png","images/simple/8.png,images/simple/16.png,images/simple/9.png,images/simple/2.png,images/simple/6.png,images/simple/5.png,images/simple/1.png","1","null","","200","444.08500001300126","","","","background","",""
"","null","html-keyboard-response","190","321559","0.0-17.0-0.38","SS1604588547588","","null","","","","","","","","","","","","<img src=images/blank.png width =""500"" height = ""500"" style=""border:5px solid black"">","","",""
"","235.3350000048522","stimulus-presentation","191","322019","0.0-17.0-1.38","SS1604588547588","<img src='images/complex/14.png' width ='500' height = '500' style='border:5px solid black'>","40","mixed_simple_deviant","images/complex/1.png","images/complex/14.png","images/simple/8.png,images/simple/16.png,images/simple/9.png,images/simple/2.png,images/simple/6.png,images/simple/5.png,images/simple/1.png","1","null","","200","435.3350000048522","","","","background","",""
"","null","html-keyboard-response","192","322923","0.0-17.0-0.39","SS1604588547588","","null","","","","","","","","","","","","<img src=images/blank.png width =""500"" height = ""500"" style=""border:5px solid black"">","","",""
"","327.8050000080839","stimulus-presentation","193","323499","0.0-17.0-1.39","SS1604588547588","<img src='images/complex/14.png' width ='500' height = '500' style='border:5px solid black'>","40","mixed_simple_deviant","images/complex/1.png","images/complex/14.png","images/simple/8.png,images/simple/16.png,images/simple/9.png,images/simple/2.png,images/simple/6.png,images/simple/5.png,images/simple/1.png","1","null","","200","527.8050000080839","","","","background","",""
"","null","html-keyboard-response","194","324815","0.0-17.0-0.40","SS1604588547588","","null","","","","","","","","","","","","<img src=images/blank.png width =""500"" height = ""500"" style=""border:5px solid black"">","","",""
"","225.92999998596497","stimulus-presentation","195","325284","0.0-17.0-1.40","SS1604588547588","<img src='images/complex/14.png' width ='500' height = '500' style='border:5px solid black'>","40","mixed_simple_deviant","images/complex/1.png","images/complex/14.png","images/simple/8.png,images/simple/16.png,images/simple/9.png,images/simple/2.png,images/simple/6.png,images/simple/5.png,images/simple/1.png","1","null","","200","425.92999998596497","","","","background","",""
"","null","html-keyboard-response","196","326210","0.0-17.0-0.41","SS1604588547588","","null","","","","","","","","","","","","<img src=images/blank.png width =""500"" height = ""500"" style=""border:5px solid black"">","","",""
"","245.52500000572763","stimulus-presentation","197","326668","0.0-17.0-1.41","SS1604588547588","<img src='images/complex/14.png' width ='500' height = '500' style='border:5px solid black'>","40","mixed_simple_deviant","images/complex/1.png","images/complex/14.png","images/simple/8.png,images/simple/16.png,images/simple/9.png,images/simple/2.png,images/simple/6.png,images/simple/5.png,images/simple/1.png","1","null","","200","445.52500000572763","","","","background","",""
"","null","html-keyboard-response","198","327795","0.0-17.0-0.42","SS1604588547588","","null","","","","","","","","","","","","<img src=images/blank.png width =""500"" height = ""500"" style=""border:5px solid black"">","","",""
"","205.89000001200475","stimulus-presentation","199","328218","0.0-17.0-1.42","SS1604588547588","<img src='images/complex/14.png' width ='500' height = '500' style='border:5px solid black'>","40","mixed_simple_deviant","images/complex/1.png","images/complex/14.png","images/simple/8.png,images/simple/16.png,images/simple/9.png,images/simple/2.png,images/simple/6.png,images/simple/5.png,images/simple/1.png","1","null","","200","405.89000001200475","","","","background","",""
"","null","html-keyboard-response","200","329521","0.0-17.0-0.43","SS1604588547588","","null","","","","","","","","","","","","<img src=images/blank.png width =""500"" height = ""500"" style=""border:5px solid black"">","","",""
"","285.59499999391846","stimulus-presentation","201","330027","0.0-17.0-1.43","SS1604588547588","<img src='images/complex/14.png' width ='500' height = '500' style='border:5px solid black'>","40","mixed_simple_deviant","images/complex/1.png","images/complex/14.png","images/simple/8.png,images/simple/16.png,images/simple/9.png,images/simple/2.png,images/simple/6.png,images/simple/5.png,images/simple/1.png","1","null","","200","485.59499999391846","","","","background","",""
"","null","html-keyboard-response","202","330967","0.0-17.0-0.44","SS1604588547588","","null","","","","","","","","","","","","<img src=images/blank.png width =""500"" height = ""500"" style=""border:5px solid black"">","","",""
"","346.5400000277441","stimulus-presentation","203","331578","0.0-17.0-1.44","SS1604588547588","<img src='images/complex/14.png' width ='500' height = '500' style='border:5px solid black'>","40","mixed_simple_deviant","images/complex/1.png","images/complex/14.png","images/simple/8.png,images/simple/16.png,images/simple/9.png,images/simple/2.png,images/simple/6.png,images/simple/5.png,images/simple/1.png","1","null","","200","546.5400000277441","","","","background","",""
"","null","html-keyboard-response","204","332695","0.0-17.0-0.45","SS1604588547588","","null","","","","","","","","","","","","<img src=images/blank.png width =""500"" height = ""500"" style=""border:5px solid black"">","","",""
"","266.3450000109151","stimulus-presentation","205","333195","0.0-17.0-1.45","SS1604588547588","<img src='images/complex/14.png' width ='500' height = '500' style='border:5px solid black'>","40","mixed_simple_deviant","images/complex/1.png","images/complex/14.png","images/simple/8.png,images/simple/16.png,images/simple/9.png,images/simple/2.png,images/simple/6.png,images/simple/5.png,images/simple/1.png","1","null","","200","466.3450000109151","","","","background","",""
"","null","html-keyboard-response","206","334461","0.0-17.0-0.46","SS1604588547588","","null","","","","","","","","","","","","<img src=images/blank.png width =""500"" height = ""500"" style=""border:5px solid black"">","","",""
"","233.7849999894388","stimulus-presentation","207","334932","0.0-17.0-1.46","SS1604588547588","<img src='images/complex/14.png' width ='500' height = '500' style='border:5px solid black'>","40","mixed_simple_deviant","images/complex/1.png","images/complex/14.png","images/simple/8.png,images/simple/16.png,images/simple/9.png,images/simple/2.png,images/simple/6.png,images/simple/5.png,images/simple/1.png","1","null","","200","433.7849999894388","","","","background","",""
"","null","html-keyboard-response","208","335974","0.0-17.0-0.47","SS1604588547588","","null","","","","","","","","","","","","<img src=images/blank.png width =""500"" height = ""500"" style=""border:5px solid black"">","","",""
"","409.8999999987427","stimulus-presentation","209","336605","0.0-17.0-1.47","SS1604588547588","<img src='images/complex/14.png' width ='500' height = '500' style='border:5px solid black'>","40","mixed_simple_deviant","images/complex/1.png","images/complex/14.png","images/simple/8.png,images/simple/16.png,images/simple/9.png,images/simple/2.png,images/simple/6.png,images/simple/5.png,images/simple/1.png","1","null","","200","609.8999999987427","","","","background","",""
"","null","html-keyboard-response","210","337513","0.0-17.0-0.48","SS1604588547588","","null","","","","","","","","","","","","<img src=images/blank.png width =""500"" height = ""500"" style=""border:5px solid black"">","","",""
"","994.3400000047404","stimulus-presentation","211","338730","0.0-17.0-1.48","SS1604588547588","<img src='images/complex/1.png' width ='500' height = '500' style='border:5px solid black'>","40","mixed_simple_deviant","images/complex/1.png","images/complex/14.png","images/simple/8.png,images/simple/16.png,images/simple/9.png,images/simple/2.png,images/simple/6.png,images/simple/5.png,images/simple/1.png","1","null","","200","1194.3400000047404","yes","386.80000000749715","","target","",""
"[{""page_index"":0,""viewing_time"":23837}]","23839","task-instructions","212","362579","0.0-18.0","SS1604588547588","","","","","","","","","","","","","","","","",""
"[{""page_index"":0,""viewing_time"":1601.310000027297},{""page_index"":1,""viewing_time"":9075.239999976475},{""page_index"":2,""viewing_time"":2644.830000004731}]","13322.260000015376","instructions","213","375921","0.0-19.0","SS1604588547588","","","","","","","","","","","","","","","","",""
"","null","html-keyboard-response","214","377234","0.0-20.0-0.0","SS1604588547588","","null","","","","","","","","","","","","<img src=images/blank.png width =""500"" height = ""500"" style=""border:5px solid black"">","","",""
"","545.0999999884516","stimulus-presentation","215","377996","0.0-20.0-1.0","SS1604588547588","<img src='images/complex/15.png' width ='500' height = '500' style='border:5px solid black'>","40","all_complex","images/complex/10.png","images/complex/15.png","images/complex/17.png,images/complex/7.png,images/complex/8.png,images/complex/9.png,images/complex/11.png,images/complex/18.png,images/complex/16.png","2","null","","200","745.0999999884516","","","","background","",""
"","null","html-keyboard-response","216","379249","0.0-20.0-0.1","SS1604588547588","","null","","","","","","","","","","","","<img src=images/blank.png width =""500"" height = ""500"" style=""border:5px solid black"">","","",""
"","281.92499998840503","stimulus-presentation","217","379748","0.0-20.0-1.1","SS1604588547588","<img src='images/complex/15.png' width ='500' height = '500' style='border:5px solid black'>","40","all_complex","images/complex/10.png","images/complex/15.png","images/complex/17.png,images/complex/7.png,images/complex/8.png,images/complex/9.png,images/complex/11.png,images/complex/18.png,images/complex/16.png","2","null","","200","481.92499998840503","","","","background","",""
"","null","html-keyboard-response","218","380744","0.0-20.0-0.2","SS1604588547588","","null","","","","","","","","","","","","<img src=images/blank.png width =""500"" height = ""500"" style=""border:5px solid black"">","","",""
"","269.0850000071805","stimulus-presentation","219","381259","0.0-20.0-1.2","SS1604588547588","<img src='images/complex/15.png' width ='500' height = '500' style='border:5px solid black'>","40","all_complex","images/complex/10.png","images/complex/15.png","images/complex/17.png,images/complex/7.png,images/complex/8.png,images/complex/9.png,images/complex/11.png,images/complex/18.png,images/complex/16.png","2","null","","200","469.0850000071805","","","","background","",""
"","null","html-keyboard-response","220","382202","0.0-20.0-0.3","SS1604588547588","","null","","","","","","","","","","","","<img src=images/blank.png width =""500"" height = ""500"" style=""border:5px solid black"">","","",""
"","403.42499999678694","stimulus-presentation","221","382827","0.0-20.0-1.3","SS1604588547588","<img src='images/complex/16.png' width ='500' height = '500' style='border:5px solid black'>","40","all_complex","images/complex/10.png","images/complex/15.png","images/complex/17.png,images/complex/7.png,images/complex/8.png,images/complex/9.png,images/complex/11.png,images/complex/18.png,images/complex/16.png","2","null","","200","603.4249999967869","","","","deviant","",""
"","null","html-keyboard-response","222","383793","0.0-20.0-0.4","SS1604588547588","","null","","","","","","","","","","","","<img src=images/blank.png width =""500"" height = ""500"" style=""border:5px solid black"">","","",""
"","328.63000000361353","stimulus-presentation","223","384334","0.0-20.0-1.4","SS1604588547588","<img src='images/complex/15.png' width ='500' height = '500' style='border:5px solid black'>","40","all_complex","images/complex/10.png","images/complex/15.png","images/complex/17.png,images/complex/7.png,images/complex/8.png,images/complex/9.png,images/complex/11.png,images/complex/18.png,images/complex/16.png","2","null","","200","528.6300000036135","","","","background","",""
"","null","html-keyboard-response","224","385244","0.0-20.0-0.5","SS1604588547588","","null","","","","","","","","","","","","<img src=images/blank.png width =""500"" height = ""500"" style=""border:5px solid black"">","","",""
"","362.1300000231713","stimulus-presentation","225","385819","0.0-20.0-1.5","SS1604588547588","<img src='images/complex/15.png' width ='500' height = '500' style='border:5px solid black'>","40","all_complex","images/complex/10.png","images/complex/15.png","images/complex/17.png,images/complex/7.png,images/complex/8.png,images/complex/9.png,images/complex/11.png,images/complex/18.png,images/complex/16.png","2","null","","200","562.1300000231713","","","","background","",""
"","null","html-keyboard-response","226","386847","0.0-20.0-0.6","SS1604588547588","","null","","","","","","","","","","","","<img src=images/blank.png width =""500"" height = ""500"" style=""border:5px solid black"">","","",""
"","300.6699999968987","stimulus-presentation","227","387396","0.0-20.0-1.6","SS1604588547588","<img src='images/complex/15.png' width ='500' height = '500' style='border:5px solid black'>","40","all_complex","images/complex/10.png","images/complex/15.png","images/complex/17.png,images/complex/7.png,images/complex/8.png,images/complex/9.png,images/complex/11.png,images/complex/18.png,images/complex/16.png","2","null","","200","500.6699999968987","","","","background","",""
"","null","html-keyboard-response","228","388354","0.0-20.0-0.7","SS1604588547588","","null","","","","","","","","","","","","<img src=images/blank.png width =""500"" height = ""500"" style=""border:5px solid black"">","","",""
"","315.67000001086853","stimulus-presentation","229","388893","0.0-20.0-1.7","SS1604588547588","<img src='images/complex/15.png' width ='500' height = '500' style='border:5px solid black'>","40","all_complex","images/complex/10.png","images/complex/15.png","images/complex/17.png,images/complex/7.png,images/complex/8.png,images/complex/9.png,images/complex/11.png,images/complex/18.png,images/complex/16.png","2","null","","200","515.6700000108685","","","","background","",""
"","null","html-keyboard-response","230","389801","0.0-20.0-0.8","SS1604588547588","","null","","","","","","","","","","","","<img src=images/blank.png width =""500"" height = ""500"" style=""border:5px solid black"">","","",""
"","449.239999987185","stimulus-presentation","231","390475","0.0-20.0-1.8","SS1604588547588","<img src='images/complex/18.png' width ='500' height = '500' style='border:5px solid black'>","40","all_complex","images/complex/10.png","images/complex/15.png","images/complex/17.png,images/complex/7.png,images/complex/8.png,images/complex/9.png,images/complex/11.png,images/complex/18.png,images/complex/16.png","2","null","","200","649.239999987185","","","","deviant","",""
"","null","html-keyboard-response","232","391327","0.0-20.0-0.9","SS1604588547588","","null","","","","","","","","","","","","<img src=images/blank.png width =""500"" height = ""500"" style=""border:5px solid black"">","","",""
"","928.9299999945797","stimulus-presentation","233","392476","0.0-20.0-1.9","SS1604588547588","<img src='images/complex/10.png' width ='500' height = '500' style='border:5px solid black'>","40","all_complex","images/complex/10.png","images/complex/15.png","images/complex/17.png,images/complex/7.png,images/complex/8.png,images/complex/9.png,images/complex/11.png,images/complex/18.png,images/complex/16.png","2","null","","200","1128.9299999945797","yes","392.29499999783","","target","",""
"","null","html-keyboard-response","234","393629","0.0-20.0-0.10","SS1604588547588","","null","","","","","","","","","","","","<img src=images/blank.png width =""500"" height = ""500"" style=""border:5px solid black"">","","",""
"","336.5500000072643","stimulus-presentation","235","394187","0.0-20.0-1.10","SS1604588547588","<img src='images/complex/15.png' width ='500' height = '500' style='border:5px solid black'>","40","all_complex","images/complex/10.png","images/complex/15.png","images/complex/17.png,images/complex/7.png,images/complex/8.png,images/complex/9.png,images/complex/11.png,images/complex/18.png,images/complex/16.png","2","null","","200","536.5500000072643","","","","background","",""
"","null","html-keyboard-response","236","395115","0.0-20.0-0.11","SS1604588547588","","null","","","","","","","","","","","","<img src=images/blank.png width =""500"" height = ""500"" style=""border:5px solid black"">","","",""
"","911.8799999996554","stimulus-presentation","237","396266","0.0-20.0-1.11","SS1604588547588","<img src='images/complex/10.png' width ='500' height = '500' style='border:5px solid black'>","40","all_complex","images/complex/10.png","images/complex/15.png","images/complex/17.png,images/complex/7.png,images/complex/8.png,images/complex/9.png,images/complex/11.png,images/complex/18.png,images/complex/16.png","2","null","","200","1111.8799999996554","yes","432.41999999736436","","target","",""
"","null","html-keyboard-response","238","397356","0.0-20.0-0.12","SS1604588547588","","null","","","","","","","","","","","","<img src=images/blank.png width =""500"" height = ""500"" style=""border:5px solid black"">","","",""
"","706.9749999791384","stimulus-presentation","239","398276","0.0-20.0-1.12","SS1604588547588","<img src='images/complex/9.png' width ='500' height = '500' style='border:5px solid black'>","40","all_complex","images/complex/10.png","images/complex/15.png","images/complex/17.png,images/complex/7.png,images/complex/8.png,images/complex/9.png,images/complex/11.png,images/complex/18.png,images/complex/16.png","2","null","","200","906.9749999791384","","","","deviant","",""
"","null","html-keyboard-response","240","399266","0.0-20.0-0.13","SS1604588547588","","null","","","","","","","","","","","","<img src=images/blank.png width =""500"" height = ""500"" style=""border:5px solid black"">","","",""
"","302.08000002312474","stimulus-presentation","241","399787","0.0-20.0-1.13","SS1604588547588","<img src='images/complex/15.png' width ='500' height = '500' style='border:5px solid black'>","40","all_complex","images/complex/10.png","images/complex/15.png","images/complex/17.png,images/complex/7.png,images/complex/8.png,images/complex/9.png,images/complex/11.png,images/complex/18.png,images/complex/16.png","2","null","","200","502.08000002312474","","","","background","",""
"","null","html-keyboard-response","242","400626","0.0-20.0-0.14","SS1604588547588","","null","","","","","","","","","","","","<img src=images/blank.png width =""500"" height = ""500"" style=""border:5px solid black"">","","",""
"","235.48000000300817","stimulus-presentation","243","401114","0.0-20.0-1.14","SS1604588547588","<img src='images/complex/15.png' width ='500' height = '500' style='border:5px solid black'>","40","all_complex","images/complex/10.png","images/complex/15.png","images/complex/17.png,images/complex/7.png,images/complex/8.png,images/complex/9.png,images/complex/11.png,images/complex/18.png,images/complex/16.png","2","null","","200","435.4800000030082","","","","background","",""
"","null","html-keyboard-response","244","402416","0.0-20.0-0.15","SS1604588547588","","null","","","","","","","","","","","","<img src=images/blank.png width =""500"" height = ""500"" style=""border:5px solid black"">","","",""
"","235.9500000020489","stimulus-presentation","245","402866","0.0-20.0-1.15","SS1604588547588","<img src='images/complex/15.png' width ='500' height = '500' style='border:5px solid black'>","40","all_complex","images/complex/10.png","images/complex/15.png","images/complex/17.png,images/complex/7.png,images/complex/8.png,images/complex/9.png,images/complex/11.png,images/complex/18.png,images/complex/16.png","2","null","","200","435.9500000020489","","","","background","",""
"","null","html-keyboard-response","246","404111","0.0-20.0-0.16","SS1604588547588","","null","","","","","","","","","","","","<img src=images/blank.png width =""500"" height = ""500"" style=""border:5px solid black"">","","",""
"","275.75999998953193","stimulus-presentation","247","404621","0.0-20.0-1.16","SS1604588547588","<img src='images/complex/15.png' width ='500' height = '500' style='border:5px solid black'>","40","all_complex","images/complex/10.png","images/complex/15.png","images/complex/17.png,images/complex/7.png,images/complex/8.png,images/complex/9.png,images/complex/11.png,images/complex/18.png,images/complex/16.png","2","null","","200","475.75999998953193","","","","background","",""
"","null","html-keyboard-response","248","405660","0.0-20.0-0.17","SS1604588547588","","null","","","","","","","","","","","","<img src=images/blank.png width =""500"" height = ""500"" style=""border:5px solid black"">","","",""
"","1054.6750000212342","stimulus-presentation","249","406936","0.0-20.0-1.17","SS1604588547588","<img src='images/complex/10.png' width ='500' height = '500' style='border:5px solid black'>","40","all_complex","images/complex/10.png","images/complex/15.png","images/complex/17.png,images/complex/7.png,images/complex/8.png,images/complex/9.png,images/complex/11.png,images/complex/18.png,images/complex/16.png","2","null","","200","1254.6750000212342","yes","319.93000002694316","","target","",""
"","null","html-keyboard-response","250","408008","0.0-20.0-0.18","SS1604588547588","","null","","","","","","","","","","","","<img src=images/blank.png width =""500"" height = ""500"" style=""border:5px solid black"">","","",""
"","294.64500001631677","stimulus-presentation","251","408515","0.0-20.0-1.18","SS1604588547588","<img src='images/complex/15.png' width ='500' height = '500' style='border:5px solid black'>","40","all_complex","images/complex/10.png","images/complex/15.png","images/complex/17.png,images/complex/7.png,images/complex/8.png,images/complex/9.png,images/complex/11.png,images/complex/18.png,images/complex/16.png","2","null","","200","494.64500001631677","","","","background","",""
"","null","html-keyboard-response","252","409375","0.0-20.0-0.19","SS1604588547588","","null","","","","","","","","","","","","<img src=images/blank.png width =""500"" height = ""500"" style=""border:5px solid black"">","","",""
"","501.9249999895692","stimulus-presentation","253","410097","0.0-20.0-1.19","SS1604588547588","<img src='images/complex/8.png' width ='500' height = '500' style='border:5px solid black'>","40","all_complex","images/complex/10.png","images/complex/15.png","images/complex/17.png,images/complex/7.png,images/complex/8.png,images/complex/9.png,images/complex/11.png,images/complex/18.png,images/complex/16.png","2","null","","200","701.9249999895692","","","","deviant","",""
"","null","html-keyboard-response","254","411066","0.0-20.0-0.20","SS1604588547588","","null","","","","","","","","","","","","<img src=images/blank.png width =""500"" height = ""500"" style=""border:5px solid black"">","","",""
"","336.98500000173226","stimulus-presentation","255","411616","0.0-20.0-1.20","SS1604588547588","<img src='images/complex/15.png' width ='500' height = '500' style='border:5px solid black'>","40","all_complex","images/complex/10.png","images/complex/15.png","images/complex/17.png,images/complex/7.png,images/complex/8.png,images/complex/9.png,images/complex/11.png,images/complex/18.png,images/complex/16.png","2","null","","200","536.9850000017323","","","","background","",""
"","null","html-keyboard-response","256","412827","0.0-20.0-0.21","SS1604588547588","","null","","","","","","","","","","","","<img src=images/blank.png width =""500"" height = ""500"" style=""border:5px solid black"">","","",""
"","205.20500000566244","stimulus-presentation","257","413256","0.0-20.0-1.21","SS1604588547588","<img src='images/complex/15.png' width ='500' height = '500' style='border:5px solid black'>","40","all_complex","images/complex/10.png","images/complex/15.png","images/complex/17.png,images/complex/7.png,images/complex/8.png,images/complex/9.png,images/complex/11.png,images/complex/18.png,images/complex/16.png","2","null","","200","405.20500000566244","","","","background","",""
"","null","html-keyboard-response","258","414328","0.0-20.0-0.22","SS1604588547588","","null","","","","","","","","","","","","<img src=images/blank.png width =""500"" height = ""500"" style=""border:5px solid black"">","","",""
"","244.44000000949018","stimulus-presentation","259","414840","0.0-20.0-1.22","SS1604588547588","<img src='images/complex/15.png' width ='500' height = '500' style='border:5px solid black'>","40","all_complex","images/complex/10.png","images/complex/15.png","images/complex/17.png,images/complex/7.png,images/complex/8.png,images/complex/9.png,images/complex/11.png,images/complex/18.png,images/complex/16.png","2","null","","200","444.4400000094902","","","","background","",""
"","null","html-keyboard-response","260","415980","0.0-20.0-0.23","SS1604588547588","","null","","","","","","","","","","","","<img src=images/blank.png width =""500"" height = ""500"" style=""border:5px solid black"">","","",""
"","200.3649999969639","stimulus-presentation","261","416401","0.0-20.0-1.23","SS1604588547588","<img src='images/complex/15.png' width ='500' height = '500' style='border:5px solid black'>","40","all_complex","images/complex/10.png","images/complex/15.png","images/complex/17.png,images/complex/7.png,images/complex/8.png,images/complex/9.png,images/complex/11.png,images/complex/18.png,images/complex/16.png","2","null","","200","400.3649999969639","","","","background","",""
"","null","html-keyboard-response","262","417375","0.0-20.0-0.24","SS1604588547588","","null","","","","","","","","","","","","<img src=images/blank.png width =""500"" height = ""500"" style=""border:5px solid black"">","","",""
"","267.9649999772664","stimulus-presentation","263","417856","0.0-20.0-1.24","SS1604588547588","<img src='images/complex/15.png' width ='500' height = '500' style='border:5px solid black'>","40","all_complex","images/complex/10.png","images/complex/15.png","images/complex/17.png,images/complex/7.png,images/complex/8.png,images/complex/9.png,images/complex/11.png,images/complex/18.png,images/complex/16.png","2","null","","200","467.9649999772664","","","","background","",""
"","null","html-keyboard-response","264","418959","0.0-20.0-0.25","SS1604588547588","","null","","","","","","","","","","","","<img src=images/blank.png width =""500"" height = ""500"" style=""border:5px solid black"">","","",""
"","216.2300000200048","stimulus-presentation","265","419391","0.0-20.0-1.25","SS1604588547588","<img src='images/complex/15.png' width ='500' height = '500' style='border:5px solid black'>","40","all_complex","images/complex/10.png","images/complex/15.png","images/complex/17.png,images/complex/7.png,images/complex/8.png,images/complex/9.png,images/complex/11.png,images/complex/18.png,images/complex/16.png","2","null","","200","416.2300000200048","","","","background","",""
"","null","html-keyboard-response","266","420448","0.0-20.0-0.26","SS1604588547588","","null","","","","","","","","","","","","<img src=images/blank.png width =""500"" height = ""500"" style=""border:5px solid black"">","","",""
"","209.2899999988731","stimulus-presentation","267","420874","0.0-20.0-1.26","SS1604588547588","<img src='images/complex/15.png' width ='500' height = '500' style='border:5px solid black'>","40","all_complex","images/complex/10.png","images/complex/15.png","images/complex/17.png,images/complex/7.png,images/complex/8.png,images/complex/9.png,images/complex/11.png,images/complex/18.png,images/complex/16.png","2","null","","200","409.2899999988731","","","","background","",""
"","null","html-keyboard-response","268","422200","0.0-20.0-0.27","SS1604588547588","","null","","","","","","","","","","","","<img src=images/blank.png width =""500"" height = ""500"" style=""border:5px solid black"">","","",""
"","286.1750000156462","stimulus-presentation","269","422718","0.0-20.0-1.27","SS1604588547588","<img src='images/complex/15.png' width ='500' height = '500' style='border:5px solid black'>","40","all_complex","images/complex/10.png","images/complex/15.png","images/complex/17.png,images/complex/7.png,images/complex/8.png,images/complex/9.png,images/complex/11.png,images/complex/18.png,images/complex/16.png","2","null","","200","486.1750000156462","","","","background","",""
"","null","html-keyboard-response","270","423764","0.0-20.0-0.28","SS1604588547588","","null","","","","","","","","","","","","<img src=images/blank.png width =""500"" height = ""500"" style=""border:5px solid black"">","","",""
"","226.37499999837019","stimulus-presentation","271","424206","0.0-20.0-1.28","SS1604588547588","<img src='images/complex/15.png' width ='500' height = '500' style='border:5px solid black'>","40","all_complex","images/complex/10.png","images/complex/15.png","images/complex/17.png,images/complex/7.png,images/complex/8.png,images/complex/9.png,images/complex/11.png,images/complex/18.png,images/complex/16.png","2","null","","200","426.3749999983702","","","","background","",""
"","null","html-keyboard-response","272","425457","0.0-20.0-0.29","SS1604588547588","","null","","","","","","","","","","","","<img src=images/blank.png width =""500"" height = ""500"" style=""border:5px solid black"">","","",""
"","359.88499998347834","stimulus-presentation","273","426031","0.0-20.0-1.29","SS1604588547588","<img src='images/complex/17.png' width ='500' height = '500' style='border:5px solid black'>","40","all_complex","images/complex/10.png","images/complex/15.png","images/complex/17.png,images/complex/7.png,images/complex/8.png,images/complex/9.png,images/complex/11.png,images/complex/18.png,images/complex/16.png","2","null","","200","559.8849999834783","","","","deviant","",""
"","null","html-keyboard-response","274","427178","0.0-20.0-0.30","SS1604588547588","","null","","","","","","","","","","","","<img src=images/blank.png width =""500"" height = ""500"" style=""border:5px solid black"">","","",""
"","1161.4199999894481","stimulus-presentation","275","428560","0.0-20.0-1.30","SS1604588547588","<img src='images/complex/10.png' width ='500' height = '500' style='border:5px solid black'>","40","all_complex","images/complex/10.png","images/complex/15.png","images/complex/17.png,images/complex/7.png,images/complex/8.png,images/complex/9.png,images/complex/11.png,images/complex/18.png,images/complex/16.png","2","null","","200","1361.4199999894481","yes","672.0750000094995","","target","",""
"","null","html-keyboard-response","276","429719","0.0-20.0-0.31","SS1604588547588","","null","","","","","","","","","","","","<img src=images/blank.png width =""500"" height = ""500"" style=""border:5px solid black"">","","",""
"","220.71500000311062","stimulus-presentation","277","430158","0.0-20.0-1.31","SS1604588547588","<img src='images/complex/15.png' width ='500' height = '500' style='border:5px solid black'>","40","all_complex","images/complex/10.png","images/complex/15.png","images/complex/17.png,images/complex/7.png,images/complex/8.png,images/complex/9.png,images/complex/11.png,images/complex/18.png,images/complex/16.png","2","null","","200","420.7150000031106","","","","background","",""
"","null","html-keyboard-response","278","431271","0.0-20.0-0.32","SS1604588547588","","null","","","","","","","","","","","","<img src=images/blank.png width =""500"" height = ""500"" style=""border:5px solid black"">","","",""
"","180.29499999829568","stimulus-presentation","279","431669","0.0-20.0-1.32","SS1604588547588","<img src='images/complex/15.png' width ='500' height = '500' style='border:5px solid black'>","40","all_complex","images/complex/10.png","images/complex/15.png","images/complex/17.png,images/complex/7.png,images/complex/8.png,images/complex/9.png,images/complex/11.png,images/complex/18.png,images/complex/16.png","2","null","","200","380.2949999982957","","","","background","",""
"","null","html-keyboard-response","280","432825","0.0-20.0-0.33","SS1604588547588","","null","","","","","","","","","","","","<img src=images/blank.png width =""500"" height = ""500"" style=""border:5px solid black"">","","",""
"","190.77499999548309","stimulus-presentation","281","433263","0.0-20.0-1.33","SS1604588547588","<img src='images/complex/15.png' width ='500' height = '500' style='border:5px solid black'>","40","all_complex","images/complex/10.png","images/complex/15.png","images/complex/17.png,images/complex/7.png,images/complex/8.png,images/complex/9.png,images/complex/11.png,images/complex/18.png,images/complex/16.png","2","null","","200","390.7749999954831","","","","background","",""
"","null","html-keyboard-response","282","434396","0.0-20.0-0.34","SS1604588547588","","null","","","","","","","","","","","","<img src=images/blank.png width =""500"" height = ""500"" style=""border:5px solid black"">","","",""
"","146.63999999174848","stimulus-presentation","283","434796","0.0-20.0-1.34","SS1604588547588","<img src='images/complex/15.png' width ='500' height = '500' style='border:5px solid black'>","40","all_complex","images/complex/10.png","images/complex/15.png","images/complex/17.png,images/complex/7.png,images/complex/8.png,images/complex/9.png,images/complex/11.png,images/complex/18.png,images/complex/16.png","2","null","","200","346.6399999917485","","","","background","",""
"","null","html-keyboard-response","284","435914","0.0-20.0-0.35","SS1604588547588","","null","","","","","","","","","","","","<img src=images/blank.png width =""500"" height = ""500"" style=""border:5px solid black"">","","",""
