"view_history","rt","trial_type","trial_index","time_elapsed","internal_node_id","subject","trial_stimulus","key_press","task_type","task_target_stimulus","task_background_stimulus","task_deviant_stimuli","task_order_number","block_order_number","trial_order_number","minimum_viewing_duration","trial_looking_time","trial_pressed_space_bar","trial_space_bar_rt","stimulus","trial_stimulus_type","responses","question_order"
"[{""page_index"":0,""viewing_time"":315130.84500000696}]","315132.024999999","instructions","0","315184","0.0-0.0","SS1604513375352","","","","","","","","","","","","","","","","",""
"[{""page_index"":0,""viewing_time"":5250.115000002552},{""page_index"":1,""viewing_time"":3301.760000002105},{""page_index"":2,""viewing_time"":3484.134999991511},{""page_index"":3,""viewing_time"":6534.030000009807},{""page_index"":4,""viewing_time"":4954.819999999017},{""page_index"":5,""viewing_time"":6455.939999999828},{""page_index"":6,""viewing_time"":3109.71000000427},{""page_index"":7,""viewing_time"":17202.15999998618},{""page_index"":8,""viewing_time"":2332.17500000319}]","52625.3149999975","instructions","1","367812","0.0-1.0","SS1604513375352","","","","","","","","","","","","","","","","",""
"[{""page_index"":0,""viewing_time"":1687.8449999931036},{""page_index"":1,""viewing_time"":14986.579999997048},{""page_index"":2,""viewing_time"":1497.9000000021188}]","18172.964999990654","instructions","2","385987","0.0-2.0","SS1604513375352","","","","","","","","","","","","","","","","",""
"","2211.844999997993","practice-block","3","388404","0.0-3.0","SS1604513375352","<img src='images/practice/practice_background.jpeg' width ='500' height = '500' style='border:5px solid black'>","40","null","images/practice/practice_target.jpg","null","null","null","null","","200","2411.844999997993","","","","","",""
"","null","html-keyboard-response","4","389576","0.0-4.0","SS1604513375352","","null","","","","","","","","","","","","<img src=images/blank.png width =""500"" height = ""500"" style=""border:5px solid black"">","","",""
"","368.1899999937741","practice-block","5","390147","0.0-5.0","SS1604513375352","<img src='images/practice/practice_background.jpeg' width ='500' height = '500' style='border:5px solid black'>","40","null","images/practice/practice_target.jpg","null","null","null","null","","200","568.1899999937741","","","","","",""
"","null","html-keyboard-response","6","391289","0.0-6.0","SS1604513375352","","null","","","","","","","","","","","","<img src=images/blank.png width =""500"" height = ""500"" style=""border:5px solid black"">","","",""
"","176.86500000127126","practice-block","7","391671","0.0-7.0","SS1604513375352","<img src='images/practice/practice_deviant.jpeg' width ='500' height = '500' style='border:5px solid black'>","40","null","images/practice/practice_target.jpg","null","null","null","null","","200","376.86500000127126","","","","","",""
"","null","html-keyboard-response","8","392897","0.0-8.0","SS1604513375352","","null","","","","","","","","","","","","<img src=images/blank.png width =""500"" height = ""500"" style=""border:5px solid black"">","","",""
"","6543.619999996736","practice-block","9","399644","0.0-9.0-0.0","SS1604513375352","<img src='images/practice/practice_target.jpg' width ='500' height = '500' style='border:5px solid black'>","40","null","images/practice/practice_target.jpg","null","null","null","null","","200","6743.619999996736","yes","279.9550000054296","","","",""
"","null","html-keyboard-response","10","400849","0.0-10.0","SS1604513375352","","null","","","","","","","","","","","","<img src=images/blank.png width =""500"" height = ""500"" style=""border:5px solid black"">","","",""
"","463.9500000048429","practice-block","11","401516","0.0-11.0","SS1604513375352","<img src='images/practice/practice_background.jpeg' width ='500' height = '500' style='border:5px solid black'>","40","null","images/practice/practice_target.jpg","null","null","null","null","","200","663.9500000048429","","","","","",""
"[{""page_index"":0,""viewing_time"":738851}]","738852","task-instructions","12","1140370","0.0-12.0","SS1604513375352","","","","","","","","","","","","","","","","",""
"[{""page_index"":0,""viewing_time"":2955.019999993965},{""page_index"":1,""viewing_time"":6478.890000012936},{""page_index"":2,""viewing_time"":1833.4349999933038}]","11267.995000001974","instructions","13","1151640","0.0-13.0","SS1604513375352","","","","","","","","","","","","","","","","",""
"","null","html-keyboard-response","14","1152736","0.0-14.0-0.0","SS1604513375352","","null","","","","","","","","","","","","<img src=images/blank.png width =""500"" height = ""500"" style=""border:5px solid black"">","","",""
"","3824.4750000012573","stimulus-presentation","15","1156765","0.0-14.0-1.0","SS1604513375352","<img src='images/simple/17.png' width ='500' height = '500' style='border:5px solid black'>","40","mixed_complex_deviant","images/simple/17.png","images/simple/11.png","images/complex/13.png,images/complex/11.png,images/complex/7.png,images/complex/2.png,images/complex/12.png,images/complex/9.png,images/complex/17.png","0","null","","200","4024.4750000012573","yes","601.8250000050757","","target","",""
"","null","html-keyboard-response","16","1157914","0.0-14.0-0.1","SS1604513375352","","null","","","","","","","","","","","","<img src=images/blank.png width =""500"" height = ""500"" style=""border:5px solid black"">","","",""
"","1591.6300000099","stimulus-presentation","17","1159709","0.0-14.0-1.1","SS1604513375352","<img src='images/simple/17.png' width ='500' height = '500' style='border:5px solid black'>","40","mixed_complex_deviant","images/simple/17.png","images/simple/11.png","images/complex/13.png,images/complex/11.png,images/complex/7.png,images/complex/2.png,images/complex/12.png,images/complex/9.png,images/complex/17.png","0","null","","200","1791.6300000099","yes","360.1500000075903","","target","",""
"","null","html-keyboard-response","18","1160670","0.0-14.0-0.2","SS1604513375352","","null","","","","","","","","","","","","<img src=images/blank.png width =""500"" height = ""500"" style=""border:5px solid black"">","","",""
"","2488.2999999974854","stimulus-presentation","19","1163363","0.0-14.0-1.2","SS1604513375352","<img src='images/simple/17.png' width ='500' height = '500' style='border:5px solid black'>","40","mixed_complex_deviant","images/simple/17.png","images/simple/11.png","images/complex/13.png,images/complex/11.png,images/complex/7.png,images/complex/2.png,images/complex/12.png,images/complex/9.png,images/complex/17.png","0","null","","200","2688.2999999974854","yes","612.9999999976717","","target","",""
"","null","html-keyboard-response","20","1164564","0.0-14.0-0.3","SS1604513375352","","null","","","","","","","","","","","","<img src=images/blank.png width =""500"" height = ""500"" style=""border:5px solid black"">","","",""
"","1086.704999994021","stimulus-presentation","21","1165854","0.0-14.0-1.3","SS1604513375352","<img src='images/simple/11.png' width ='500' height = '500' style='border:5px solid black'>","40","mixed_complex_deviant","images/simple/17.png","images/simple/11.png","images/complex/13.png,images/complex/11.png,images/complex/7.png,images/complex/2.png,images/complex/12.png,images/complex/9.png,images/complex/17.png","0","null","","200","1286.704999994021","","","","background","",""
"","null","html-keyboard-response","22","1166907","0.0-14.0-0.4","SS1604513375352","","null","","","","","","","","","","","","<img src=images/blank.png width =""500"" height = ""500"" style=""border:5px solid black"">","","",""
"","389.4399999990128","stimulus-presentation","23","1167501","0.0-14.0-1.4","SS1604513375352","<img src='images/simple/11.png' width ='500' height = '500' style='border:5px solid black'>","40","mixed_complex_deviant","images/simple/17.png","images/simple/11.png","images/complex/13.png,images/complex/11.png,images/complex/7.png,images/complex/2.png,images/complex/12.png,images/complex/9.png,images/complex/17.png","0","null","","200","589.4399999990128","","","","background","",""
"","null","html-keyboard-response","24","1168732","0.0-14.0-0.5","SS1604513375352","","null","","","","","","","","","","","","<img src=images/blank.png width =""500"" height = ""500"" style=""border:5px solid black"">","","",""
"","212.2499999969732","stimulus-presentation","25","1169149","0.0-14.0-1.5","SS1604513375352","<img src='images/simple/11.png' width ='500' height = '500' style='border:5px solid black'>","40","mixed_complex_deviant","images/simple/17.png","images/simple/11.png","images/complex/13.png,images/complex/11.png,images/complex/7.png,images/complex/2.png,images/complex/12.png,images/complex/9.png,images/complex/17.png","0","null","","200","412.2499999969732","","","","background","",""
"","null","html-keyboard-response","26","1170146","0.0-14.0-0.6","SS1604513375352","","null","","","","","","","","","","","","<img src=images/blank.png width =""500"" height = ""500"" style=""border:5px solid black"">","","",""
"","223.175000006333","stimulus-presentation","27","1170573","0.0-14.0-1.6","SS1604513375352","<img src='images/simple/11.png' width ='500' height = '500' style='border:5px solid black'>","40","mixed_complex_deviant","images/simple/17.png","images/simple/11.png","images/complex/13.png,images/complex/11.png,images/complex/7.png,images/complex/2.png,images/complex/12.png,images/complex/9.png,images/complex/17.png","0","null","","200","423.175000006333","","","","background","",""
"","null","html-keyboard-response","28","1171747","0.0-14.0-0.7","SS1604513375352","","null","","","","","","","","","","","","<img src=images/blank.png width =""500"" height = ""500"" style=""border:5px solid black"">","","",""
"","421.0949999978766","stimulus-presentation","29","1172373","0.0-14.0-1.7","SS1604513375352","<img src='images/simple/11.png' width ='500' height = '500' style='border:5px solid black'>","40","mixed_complex_deviant","images/simple/17.png","images/simple/11.png","images/complex/13.png,images/complex/11.png,images/complex/7.png,images/complex/2.png,images/complex/12.png,images/complex/9.png,images/complex/17.png","0","null","","200","621.0949999978766","","","","background","",""
"","null","html-keyboard-response","30","1173297","0.0-14.0-0.8","SS1604513375352","","null","","","","","","","","","","","","<img src=images/blank.png width =""500"" height = ""500"" style=""border:5px solid black"">","","",""
"","425.844999990426","stimulus-presentation","31","1173926","0.0-14.0-1.8","SS1604513375352","<img src='images/simple/11.png' width ='500' height = '500' style='border:5px solid black'>","40","mixed_complex_deviant","images/simple/17.png","images/simple/11.png","images/complex/13.png,images/complex/11.png,images/complex/7.png,images/complex/2.png,images/complex/12.png,images/complex/9.png,images/complex/17.png","0","null","","200","625.844999990426","","","","background","",""
"","null","html-keyboard-response","32","1175138","0.0-14.0-0.9","SS1604513375352","","null","","","","","","","","","","","","<img src=images/blank.png width =""500"" height = ""500"" style=""border:5px solid black"">","","",""
"","135.30500000342727","stimulus-presentation","33","1175478","0.0-14.0-1.9","SS1604513375352","<img src='images/simple/11.png' width ='500' height = '500' style='border:5px solid black'>","40","mixed_complex_deviant","images/simple/17.png","images/simple/11.png","images/complex/13.png,images/complex/11.png,images/complex/7.png,images/complex/2.png,images/complex/12.png,images/complex/9.png,images/complex/17.png","0","null","","200","335.30500000342727","","","","background","",""
"","null","html-keyboard-response","34","1176362","0.0-14.0-0.10","SS1604513375352","","null","","","","","","","","","","","","<img src=images/blank.png width =""500"" height = ""500"" style=""border:5px solid black"">","","",""
"","185.01499999547377","stimulus-presentation","35","1176750","0.0-14.0-1.10","SS1604513375352","<img src='images/simple/11.png' width ='500' height = '500' style='border:5px solid black'>","40","mixed_complex_deviant","images/simple/17.png","images/simple/11.png","images/complex/13.png,images/complex/11.png,images/complex/7.png,images/complex/2.png,images/complex/12.png,images/complex/9.png,images/complex/17.png","0","null","","200","385.0149999954738","","","","background","",""
"","null","html-keyboard-response","36","1177734","0.0-14.0-0.11","SS1604513375352","","null","","","","","","","","","","","","<img src=images/blank.png width =""500"" height = ""500"" style=""border:5px solid black"">","","",""
"","1755.5250000006054","stimulus-presentation","37","1179693","0.0-14.0-1.11","SS1604513375352","<img src='images/simple/17.png' width ='500' height = '500' style='border:5px solid black'>","40","mixed_complex_deviant","images/simple/17.png","images/simple/11.png","images/complex/13.png,images/complex/11.png,images/complex/7.png,images/complex/2.png,images/complex/12.png,images/complex/9.png,images/complex/17.png","0","null","","200","1955.5250000006054","yes","611.5199999914039","","target","",""
"","null","html-keyboard-response","38","1180776","0.0-14.0-0.12","SS1604513375352","","null","","","","","","","","","","","","<img src=images/blank.png width =""500"" height = ""500"" style=""border:5px solid black"">","","",""
"","321.3349999859929","stimulus-presentation","39","1181301","0.0-14.0-1.12","SS1604513375352","<img src='images/simple/11.png' width ='500' height = '500' style='border:5px solid black'>","40","mixed_complex_deviant","images/simple/17.png","images/simple/11.png","images/complex/13.png,images/complex/11.png,images/complex/7.png,images/complex/2.png,images/complex/12.png,images/complex/9.png,images/complex/17.png","0","null","","200","521.3349999859929","","","","background","",""
"","null","html-keyboard-response","40","1182560","0.0-14.0-0.13","SS1604513375352","","null","","","","","","","","","","","","<img src=images/blank.png width =""500"" height = ""500"" style=""border:5px solid black"">","","",""
"","505.43999999342486","stimulus-presentation","41","1183269","0.0-14.0-1.13","SS1604513375352","<img src='images/complex/2.png' width ='500' height = '500' style='border:5px solid black'>","40","mixed_complex_deviant","images/simple/17.png","images/simple/11.png","images/complex/13.png,images/complex/11.png,images/complex/7.png,images/complex/2.png,images/complex/12.png,images/complex/9.png,images/complex/17.png","0","null","","200","705.4399999934249","","","","deviant","",""
"","null","html-keyboard-response","42","1184433","0.0-14.0-0.14","SS1604513375352","","null","","","","","","","","","","","","<img src=images/blank.png width =""500"" height = ""500"" style=""border:5px solid black"">","","",""
"","274.0800000028685","stimulus-presentation","43","1184910","0.0-14.0-1.14","SS1604513375352","<img src='images/simple/11.png' width ='500' height = '500' style='border:5px solid black'>","40","mixed_complex_deviant","images/simple/17.png","images/simple/11.png","images/complex/13.png,images/complex/11.png,images/complex/7.png,images/complex/2.png,images/complex/12.png,images/complex/9.png,images/complex/17.png","0","null","","200","474.0800000028685","","","","background","",""
"","null","html-keyboard-response","44","1185918","0.0-14.0-0.15","SS1604513375352","","null","","","","","","","","","","","","<img src=images/blank.png width =""500"" height = ""500"" style=""border:5px solid black"">","","",""
"","374.91499999305233","stimulus-presentation","45","1186500","0.0-14.0-1.15","SS1604513375352","<img src='images/simple/11.png' width ='500' height = '500' style='border:5px solid black'>","40","mixed_complex_deviant","images/simple/17.png","images/simple/11.png","images/complex/13.png,images/complex/11.png,images/complex/7.png,images/complex/2.png,images/complex/12.png,images/complex/9.png,images/complex/17.png","0","null","","200","574.9149999930523","","","","background","",""
"","null","html-keyboard-response","46","1187699","0.0-14.0-0.16","SS1604513375352","","null","","","","","","","","","","","","<img src=images/blank.png width =""500"" height = ""500"" style=""border:5px solid black"">","","",""
"","359.0799999947194","stimulus-presentation","47","1188263","0.0-14.0-1.16","SS1604513375352","<img src='images/simple/11.png' width ='500' height = '500' style='border:5px solid black'>","40","mixed_complex_deviant","images/simple/17.png","images/simple/11.png","images/complex/13.png,images/complex/11.png,images/complex/7.png,images/complex/2.png,images/complex/12.png,images/complex/9.png,images/complex/17.png","0","null","","200","559.0799999947194","","","","background","",""
"","null","html-keyboard-response","48","1189188","0.0-14.0-0.17","SS1604513375352","","null","","","","","","","","","","","","<img src=images/blank.png width =""500"" height = ""500"" style=""border:5px solid black"">","","",""
"","141.38999998988584","stimulus-presentation","49","1189533","0.0-14.0-1.17","SS1604513375352","<img src='images/simple/11.png' width ='500' height = '500' style='border:5px solid black'>","40","mixed_complex_deviant","images/simple/17.png","images/simple/11.png","images/complex/13.png,images/complex/11.png,images/complex/7.png,images/complex/2.png,images/complex/12.png,images/complex/9.png,images/complex/17.png","0","null","","200","341.38999998988584","","","","background","",""
"","null","html-keyboard-response","50","1190621","0.0-14.0-0.18","SS1604513375352","","null","","","","","","","","","","","","<img src=images/blank.png width =""500"" height = ""500"" style=""border:5px solid black"">","","",""
"","131.30500000249594","stimulus-presentation","51","1190957","0.0-14.0-1.18","SS1604513375352","<img src='images/simple/11.png' width ='500' height = '500' style='border:5px solid black'>","40","mixed_complex_deviant","images/simple/17.png","images/simple/11.png","images/complex/13.png,images/complex/11.png,images/complex/7.png,images/complex/2.png,images/complex/12.png,images/complex/9.png,images/complex/17.png","0","null","","200","331.30500000249594","","","","background","",""
"","null","html-keyboard-response","52","1192096","0.0-14.0-0.19","SS1604513375352","","null","","","","","","","","","","","","<img src=images/blank.png width =""500"" height = ""500"" style=""border:5px solid black"">","","",""
"","146.56499998806976","stimulus-presentation","53","1192447","0.0-14.0-1.19","SS1604513375352","<img src='images/simple/11.png' width ='500' height = '500' style='border:5px solid black'>","40","mixed_complex_deviant","images/simple/17.png","images/simple/11.png","images/complex/13.png,images/complex/11.png,images/complex/7.png,images/complex/2.png,images/complex/12.png,images/complex/9.png,images/complex/17.png","0","null","","200","346.56499998806976","","","","background","",""
"","null","html-keyboard-response","54","1193587","0.0-14.0-0.20","SS1604513375352","","null","","","","","","","","","","","","<img src=images/blank.png width =""500"" height = ""500"" style=""border:5px solid black"">","","",""
"","2166.840000005439","stimulus-presentation","55","1195958","0.0-14.0-1.20","SS1604513375352","<img src='images/simple/17.png' width ='500' height = '500' style='border:5px solid black'>","40","mixed_complex_deviant","images/simple/17.png","images/simple/11.png","images/complex/13.png,images/complex/11.png,images/complex/7.png,images/complex/2.png,images/complex/12.png,images/complex/9.png,images/complex/17.png","0","null","","200","2366.840000005439","yes","1241.2599999953527","","target","",""
"","null","html-keyboard-response","56","1197231","0.0-14.0-0.21","SS1604513375352","","null","","","","","","","","","","","","<img src=images/blank.png width =""500"" height = ""500"" style=""border:5px solid black"">","","",""
"","393.1599999924656","stimulus-presentation","57","1197830","0.0-14.0-1.21","SS1604513375352","<img src='images/complex/17.png' width ='500' height = '500' style='border:5px solid black'>","40","mixed_complex_deviant","images/simple/17.png","images/simple/11.png","images/complex/13.png,images/complex/11.png,images/complex/7.png,images/complex/2.png,images/complex/12.png,images/complex/9.png,images/complex/17.png","0","null","","200","593.1599999924656","","","","deviant","",""
"","null","html-keyboard-response","58","1198827","0.0-14.0-0.22","SS1604513375352","","null","","","","","","","","","","","","<img src=images/blank.png width =""500"" height = ""500"" style=""border:5px solid black"">","","",""
"","253.18500000843778","stimulus-presentation","59","1199287","0.0-14.0-1.22","SS1604513375352","<img src='images/simple/11.png' width ='500' height = '500' style='border:5px solid black'>","40","mixed_complex_deviant","images/simple/17.png","images/simple/11.png","images/complex/13.png,images/complex/11.png,images/complex/7.png,images/complex/2.png,images/complex/12.png,images/complex/9.png,images/complex/17.png","0","null","","200","453.1850000084378","","","","background","",""
"","null","html-keyboard-response","60","1200402","0.0-14.0-0.23","SS1604513375352","","null","","","","","","","","","","","","<img src=images/blank.png width =""500"" height = ""500"" style=""border:5px solid black"">","","",""
"","199.85499999881722","stimulus-presentation","61","1200806","0.0-14.0-1.23","SS1604513375352","<img src='images/simple/11.png' width ='500' height = '500' style='border:5px solid black'>","40","mixed_complex_deviant","images/simple/17.png","images/simple/11.png","images/complex/13.png,images/complex/11.png,images/complex/7.png,images/complex/2.png,images/complex/12.png,images/complex/9.png,images/complex/17.png","0","null","","200","399.8549999988172","","","","background","",""
"","null","html-keyboard-response","62","1201700","0.0-14.0-0.24","SS1604513375352","","null","","","","","","","","","","","","<img src=images/blank.png width =""500"" height = ""500"" style=""border:5px solid black"">","","",""
"","231.77499999292195","stimulus-presentation","63","1202136","0.0-14.0-1.24","SS1604513375352","<img src='images/simple/17.png' width ='500' height = '500' style='border:5px solid black'>","40","mixed_complex_deviant","images/simple/17.png","images/simple/11.png","images/complex/13.png,images/complex/11.png,images/complex/7.png,images/complex/2.png,images/complex/12.png,images/complex/9.png,images/complex/17.png","0","null","","200","431.77499999292195","","","","target","",""
"","null","html-keyboard-response","64","1203291","0.0-14.0-0.25","SS1604513375352","","null","","","","","","","","","","","","<img src=images/blank.png width =""500"" height = ""500"" style=""border:5px solid black"">","","",""
"","383.0350000062026","stimulus-presentation","65","1203878","0.0-14.0-1.25","SS1604513375352","<img src='images/complex/12.png' width ='500' height = '500' style='border:5px solid black'>","40","mixed_complex_deviant","images/simple/17.png","images/simple/11.png","images/complex/13.png,images/complex/11.png,images/complex/7.png,images/complex/2.png,images/complex/12.png,images/complex/9.png,images/complex/17.png","0","null","","200","583.0350000062026","","","","deviant","",""
"","null","html-keyboard-response","66","1204811","0.0-14.0-0.26","SS1604513375352","","null","","","","","","","","","","","","<img src=images/blank.png width =""500"" height = ""500"" style=""border:5px solid black"">","","",""
"","287.70000000088476","stimulus-presentation","67","1205303","0.0-14.0-1.26","SS1604513375352","<img src='images/simple/11.png' width ='500' height = '500' style='border:5px solid black'>","40","mixed_complex_deviant","images/simple/17.png","images/simple/11.png","images/complex/13.png,images/complex/11.png,images/complex/7.png,images/complex/2.png,images/complex/12.png,images/complex/9.png,images/complex/17.png","0","null","","200","487.70000000088476","","","","background","",""
"","null","html-keyboard-response","68","1206216","0.0-14.0-0.27","SS1604513375352","","null","","","","","","","","","","","","<img src=images/blank.png width =""500"" height = ""500"" style=""border:5px solid black"">","","",""
"","237.8400000014808","stimulus-presentation","69","1206662","0.0-14.0-1.27","SS1604513375352","<img src='images/simple/11.png' width ='500' height = '500' style='border:5px solid black'>","40","mixed_complex_deviant","images/simple/17.png","images/simple/11.png","images/complex/13.png,images/complex/11.png,images/complex/7.png,images/complex/2.png,images/complex/12.png,images/complex/9.png,images/complex/17.png","0","null","","200","437.8400000014808","","","","background","",""
"","null","html-keyboard-response","70","1207526","0.0-14.0-0.28","SS1604513375352","","null","","","","","","","","","","","","<img src=images/blank.png width =""500"" height = ""500"" style=""border:5px solid black"">","","",""
"","923.9200000013225","stimulus-presentation","71","1208654","0.0-14.0-1.28","SS1604513375352","<img src='images/complex/7.png' width ='500' height = '500' style='border:5px solid black'>","40","mixed_complex_deviant","images/simple/17.png","images/simple/11.png","images/complex/13.png,images/complex/11.png,images/complex/7.png,images/complex/2.png,images/complex/12.png,images/complex/9.png,images/complex/17.png","0","null","","200","1123.9200000013225","","","","deviant","",""
"","null","html-keyboard-response","72","1209769","0.0-14.0-0.29","SS1604513375352","","null","","","","","","","","","","","","<img src=images/blank.png width =""500"" height = ""500"" style=""border:5px solid black"">","","",""
"","330.20500000566244","stimulus-presentation","73","1210303","0.0-14.0-1.29","SS1604513375352","<img src='images/simple/11.png' width ='500' height = '500' style='border:5px solid black'>","40","mixed_complex_deviant","images/simple/17.png","images/simple/11.png","images/complex/13.png,images/complex/11.png,images/complex/7.png,images/complex/2.png,images/complex/12.png,images/complex/9.png,images/complex/17.png","0","null","","200","530.2050000056624","","","","background","",""
"","null","html-keyboard-response","74","1211143","0.0-14.0-0.30","SS1604513375352","","null","","","","","","","","","","","","<img src=images/blank.png width =""500"" height = ""500"" style=""border:5px solid black"">","","",""
"","280.79499999876134","stimulus-presentation","75","1211630","0.0-14.0-1.30","SS1604513375352","<img src='images/simple/11.png' width ='500' height = '500' style='border:5px solid black'>","40","mixed_complex_deviant","images/simple/17.png","images/simple/11.png","images/complex/13.png,images/complex/11.png,images/complex/7.png,images/complex/2.png,images/complex/12.png,images/complex/9.png,images/complex/17.png","0","null","","200","480.79499999876134","","","","background","",""
"","null","html-keyboard-response","76","1212662","0.0-14.0-0.31","SS1604513375352","","null","","","","","","","","","","","","<img src=images/blank.png width =""500"" height = ""500"" style=""border:5px solid black"">","","",""
"","155.4349999933038","stimulus-presentation","77","1213022","0.0-14.0-1.31","SS1604513375352","<img src='images/simple/11.png' width ='500' height = '500' style='border:5px solid black'>","40","mixed_complex_deviant","images/simple/17.png","images/simple/11.png","images/complex/13.png,images/complex/11.png,images/complex/7.png,images/complex/2.png,images/complex/12.png,images/complex/9.png,images/complex/17.png","0","null","","200","355.4349999933038","","","","background","",""
"","null","html-keyboard-response","78","1214009","0.0-14.0-0.32","SS1604513375352","","null","","","","","","","","","","","","<img src=images/blank.png width =""500"" height = ""500"" style=""border:5px solid black"">","","",""
"","519.8600000003353","stimulus-presentation","79","1214735","0.0-14.0-1.32","SS1604513375352","<img src='images/complex/13.png' width ='500' height = '500' style='border:5px solid black'>","40","mixed_complex_deviant","images/simple/17.png","images/simple/11.png","images/complex/13.png,images/complex/11.png,images/complex/7.png,images/complex/2.png,images/complex/12.png,images/complex/9.png,images/complex/17.png","0","null","","200","719.8600000003353","","","","deviant","",""
"","null","html-keyboard-response","80","1215895","0.0-14.0-0.33","SS1604513375352","","null","","","","","","","","","","","","<img src=images/blank.png width =""500"" height = ""500"" style=""border:5px solid black"">","","",""
"","1930.875000005588","stimulus-presentation","81","1218031","0.0-14.0-1.33","SS1604513375352","<img src='images/simple/17.png' width ='500' height = '500' style='border:5px solid black'>","40","mixed_complex_deviant","images/simple/17.png","images/simple/11.png","images/complex/13.png,images/complex/11.png,images/complex/7.png,images/complex/2.png,images/complex/12.png,images/complex/9.png,images/complex/17.png","0","null","","200","2130.875000005588","yes","786.5750000057742","","target","",""
"","null","html-keyboard-response","82","1219099","0.0-14.0-0.34","SS1604513375352","","null","","","","","","","","","","","","<img src=images/blank.png width =""500"" height = ""500"" style=""border:5px solid black"">","","",""
"","182.9299999952782","stimulus-presentation","83","1219487","0.0-14.0-1.34","SS1604513375352","<img src='images/simple/11.png' width ='500' height = '500' style='border:5px solid black'>","40","mixed_complex_deviant","images/simple/17.png","images/simple/11.png","images/complex/13.png,images/complex/11.png,images/complex/7.png,images/complex/2.png,images/complex/12.png,images/complex/9.png,images/complex/17.png","0","null","","200","382.9299999952782","","","","background","",""
"","null","html-keyboard-response","84","1220494","0.0-14.0-0.35","SS1604513375352","","null","","","","","","","","","","","","<img src=images/blank.png width =""500"" height = ""500"" style=""border:5px solid black"">","","",""
"","182.22500001150183","stimulus-presentation","85","1220880","0.0-14.0-1.35","SS1604513375352","<img src='images/simple/11.png' width ='500' height = '500' style='border:5px solid black'>","40","mixed_complex_deviant","images/simple/17.png","images/simple/11.png","images/complex/13.png,images/complex/11.png,images/complex/7.png,images/complex/2.png,images/complex/12.png,images/complex/9.png,images/complex/17.png","0","null","","200","382.22500001150183","","","","background","",""
"","null","html-keyboard-response","86","1221836","0.0-14.0-0.36","SS1604513375352","","null","","","","","","","","","","","","<img src=images/blank.png width =""500"" height = ""500"" style=""border:5px solid black"">","","",""
"","132.9050000058487","stimulus-presentation","87","1222175","0.0-14.0-1.36","SS1604513375352","<img src='images/simple/11.png' width ='500' height = '500' style='border:5px solid black'>","40","mixed_complex_deviant","images/simple/17.png","images/simple/11.png","images/complex/13.png,images/complex/11.png,images/complex/7.png,images/complex/2.png,images/complex/12.png,images/complex/9.png,images/complex/17.png","0","null","","200","332.9050000058487","","","","background","",""
"","null","html-keyboard-response","88","1223027","0.0-14.0-0.37","SS1604513375352","","null","","","","","","","","","","","","<img src=images/blank.png width =""500"" height = ""500"" style=""border:5px solid black"">","","",""
"","269.56000000052154","stimulus-presentation","89","1223502","0.0-14.0-1.37","SS1604513375352","<img src='images/simple/11.png' width ='500' height = '500' style='border:5px solid black'>","40","mixed_complex_deviant","images/simple/17.png","images/simple/11.png","images/complex/13.png,images/complex/11.png,images/complex/7.png,images/complex/2.png,images/complex/12.png,images/complex/9.png,images/complex/17.png","0","null","","200","469.56000000052154","","","","background","",""
"","null","html-keyboard-response","90","1224539","0.0-14.0-0.38","SS1604513375352","","null","","","","","","","","","","","","<img src=images/blank.png width =""500"" height = ""500"" style=""border:5px solid black"">","","",""
"","499.9399999943562","stimulus-presentation","91","1225246","0.0-14.0-1.38","SS1604513375352","<img src='images/complex/9.png' width ='500' height = '500' style='border:5px solid black'>","40","mixed_complex_deviant","images/simple/17.png","images/simple/11.png","images/complex/13.png,images/complex/11.png,images/complex/7.png,images/complex/2.png,images/complex/12.png,images/complex/9.png,images/complex/17.png","0","null","","200","699.9399999943562","","","","deviant","",""
"","null","html-keyboard-response","92","1226134","0.0-14.0-0.39","SS1604513375352","","null","","","","","","","","","","","","<img src=images/blank.png width =""500"" height = ""500"" style=""border:5px solid black"">","","",""
"","330.4550000028685","stimulus-presentation","93","1226670","0.0-14.0-1.39","SS1604513375352","<img src='images/simple/11.png' width ='500' height = '500' style='border:5px solid black'>","40","mixed_complex_deviant","images/simple/17.png","images/simple/11.png","images/complex/13.png,images/complex/11.png,images/complex/7.png,images/complex/2.png,images/complex/12.png,images/complex/9.png,images/complex/17.png","0","null","","200","530.4550000028685","","","","background","",""
"","null","html-keyboard-response","94","1227953","0.0-14.0-0.40","SS1604513375352","","null","","","","","","","","","","","","<img src=images/blank.png width =""500"" height = ""500"" style=""border:5px solid black"">","","",""
"","159.22500001033768","stimulus-presentation","95","1228318","0.0-14.0-1.40","SS1604513375352","<img src='images/simple/11.png' width ='500' height = '500' style='border:5px solid black'>","40","mixed_complex_deviant","images/simple/17.png","images/simple/11.png","images/complex/13.png,images/complex/11.png,images/complex/7.png,images/complex/2.png,images/complex/12.png,images/complex/9.png,images/complex/17.png","0","null","","200","359.2250000103377","","","","background","",""
"","null","html-keyboard-response","96","1229327","0.0-14.0-0.41","SS1604513375352","","null","","","","","","","","","","","","<img src=images/blank.png width =""500"" height = ""500"" style=""border:5px solid black"">","","",""
"","210.5299999967683","stimulus-presentation","97","1229743","0.0-14.0-1.41","SS1604513375352","<img src='images/simple/11.png' width ='500' height = '500' style='border:5px solid black'>","40","mixed_complex_deviant","images/simple/17.png","images/simple/11.png","images/complex/13.png,images/complex/11.png,images/complex/7.png,images/complex/2.png,images/complex/12.png,images/complex/9.png,images/complex/17.png","0","null","","200","410.5299999967683","","","","background","",""
"","null","html-keyboard-response","98","1230557","0.0-14.0-0.42","SS1604513375352","","null","","","","","","","","","","","","<img src=images/blank.png width =""500"" height = ""500"" style=""border:5px solid black"">","","",""
"","244.7249999968335","stimulus-presentation","99","1231008","0.0-14.0-1.42","SS1604513375352","<img src='images/simple/11.png' width ='500' height = '500' style='border:5px solid black'>","40","mixed_complex_deviant","images/simple/17.png","images/simple/11.png","images/complex/13.png,images/complex/11.png,images/complex/7.png,images/complex/2.png,images/complex/12.png,images/complex/9.png,images/complex/17.png","0","null","","200","444.7249999968335","","","","background","",""
"","null","html-keyboard-response","100","1232070","0.0-14.0-0.43","SS1604513375352","","null","","","","","","","","","","","","<img src=images/blank.png width =""500"" height = ""500"" style=""border:5px solid black"">","","",""
"","219.7549999980256","stimulus-presentation","101","1232495","0.0-14.0-1.43","SS1604513375352","<img src='images/simple/11.png' width ='500' height = '500' style='border:5px solid black'>","40","mixed_complex_deviant","images/simple/17.png","images/simple/11.png","images/complex/13.png,images/complex/11.png,images/complex/7.png,images/complex/2.png,images/complex/12.png,images/complex/9.png,images/complex/17.png","0","null","","200","419.7549999980256","","","","background","",""
"","null","html-keyboard-response","102","1233744","0.0-14.0-0.44","SS1604513375352","","null","","","","","","","","","","","","<img src=images/blank.png width =""500"" height = ""500"" style=""border:5px solid black"">","","",""
"","128.98999999742955","stimulus-presentation","103","1234079","0.0-14.0-1.44","SS1604513375352","<img src='images/simple/11.png' width ='500' height = '500' style='border:5px solid black'>","40","mixed_complex_deviant","images/simple/17.png","images/simple/11.png","images/complex/13.png,images/complex/11.png,images/complex/7.png,images/complex/2.png,images/complex/12.png,images/complex/9.png,images/complex/17.png","0","null","","200","328.98999999742955","","","","background","",""
"","null","html-keyboard-response","104","1235335","0.0-14.0-0.45","SS1604513375352","","null","","","","","","","","","","","","<img src=images/blank.png width =""500"" height = ""500"" style=""border:5px solid black"">","","",""
"","753.9899999974295","stimulus-presentation","105","1236295","0.0-14.0-1.45","SS1604513375352","<img src='images/complex/11.png' width ='500' height = '500' style='border:5px solid black'>","40","mixed_complex_deviant","images/simple/17.png","images/simple/11.png","images/complex/13.png,images/complex/11.png,images/complex/7.png,images/complex/2.png,images/complex/12.png,images/complex/9.png,images/complex/17.png","0","null","","200","953.9899999974295","","","","deviant","",""
"","null","html-keyboard-response","106","1237130","0.0-14.0-0.46","SS1604513375352","","null","","","","","","","","","","","","<img src=images/blank.png width =""500"" height = ""500"" style=""border:5px solid black"">","","",""
"","447.5200000014156","stimulus-presentation","107","1237783","0.0-14.0-1.46","SS1604513375352","<img src='images/simple/11.png' width ='500' height = '500' style='border:5px solid black'>","40","mixed_complex_deviant","images/simple/17.png","images/simple/11.png","images/complex/13.png,images/complex/11.png,images/complex/7.png,images/complex/2.png,images/complex/12.png,images/complex/9.png,images/complex/17.png","0","null","","200","647.5200000014156","","","","background","",""
"","null","html-keyboard-response","108","1238704","0.0-14.0-0.47","SS1604513375352","","null","","","","","","","","","","","","<img src=images/blank.png width =""500"" height = ""500"" style=""border:5px solid black"">","","",""
"","168.0199999974575","stimulus-presentation","109","1239079","0.0-14.0-1.47","SS1604513375352","<img src='images/simple/11.png' width ='500' height = '500' style='border:5px solid black'>","40","mixed_complex_deviant","images/simple/17.png","images/simple/11.png","images/complex/13.png,images/complex/11.png,images/complex/7.png,images/complex/2.png,images/complex/12.png,images/complex/9.png,images/complex/17.png","0","null","","200","368.0199999974575","","","","background","",""
"","null","html-keyboard-response","110","1240136","0.0-14.0-0.48","SS1604513375352","","null","","","","","","","","","","","","<img src=images/blank.png width =""500"" height = ""500"" style=""border:5px solid black"">","","",""
"","160.98000000044703","stimulus-presentation","111","1240503","0.0-14.0-1.48","SS1604513375352","<img src='images/simple/11.png' width ='500' height = '500' style='border:5px solid black'>","40","mixed_complex_deviant","images/simple/17.png","images/simple/11.png","images/complex/13.png,images/complex/11.png,images/complex/7.png,images/complex/2.png,images/complex/12.png,images/complex/9.png,images/complex/17.png","0","null","","200","360.98000000044703","","","","background","",""
"[{""page_index"":0,""viewing_time"":36427}]","36427","task-instructions","112","1276934","0.0-15.0","SS1604513375352","","","","","","","","","","","","","","","","",""
"[{""page_index"":0,""viewing_time"":1285.465000008},{""page_index"":1,""viewing_time"":2411.6899999936577},{""page_index"":2,""viewing_time"":1087.9600000043865}]","4785.619999995222","instructions","113","1281727","0.0-16.0","SS1604513375352","","","","","","","","","","","","","","","","",""
"","null","html-keyboard-response","114","1282985","0.0-17.0-0.0","SS1604513375352","","null","","","","","","","","","","","","<img src=images/blank.png width =""500"" height = ""500"" style=""border:5px solid black"">","","",""
"","839.7350000014994","stimulus-presentation","115","1284031","0.0-17.0-1.0","SS1604513375352","<img src='images/simple/16.png' width ='500' height = '500' style='border:5px solid black'>","40","all_simple","images/simple/7.png","images/simple/16.png","images/simple/8.png,images/simple/18.png,images/simple/10.png,images/simple/13.png,images/simple/6.png,images/simple/1.png,images/simple/5.png","1","null","","200","1039.7350000014994","","","","background","",""
"","null","html-keyboard-response","116","1285131","0.0-17.0-0.1","SS1604513375352","","null","","","","","","","","","","","","<img src=images/blank.png width =""500"" height = ""500"" style=""border:5px solid black"">","","",""
"","246.15500000072643","stimulus-presentation","117","1285584","0.0-17.0-1.1","SS1604513375352","<img src='images/simple/6.png' width ='500' height = '500' style='border:5px solid black'>","40","all_simple","images/simple/7.png","images/simple/16.png","images/simple/8.png,images/simple/18.png,images/simple/10.png,images/simple/13.png,images/simple/6.png,images/simple/1.png,images/simple/5.png","1","null","","200","446.15500000072643","","","","deviant","",""
"","null","html-keyboard-response","118","1286770","0.0-17.0-0.2","SS1604513375352","","null","","","","","","","","","","","","<img src=images/blank.png width =""500"" height = ""500"" style=""border:5px solid black"">","","",""
"","187.15500000701286","stimulus-presentation","119","1287168","0.0-17.0-1.2","SS1604513375352","<img src='images/simple/16.png' width ='500' height = '500' style='border:5px solid black'>","40","all_simple","images/simple/7.png","images/simple/16.png","images/simple/8.png,images/simple/18.png,images/simple/10.png,images/simple/13.png,images/simple/6.png,images/simple/1.png,images/simple/5.png","1","null","","200","387.15500000701286","","","","background","",""
"","null","html-keyboard-response","120","1287976","0.0-17.0-0.3","SS1604513375352","","null","","","","","","","","","","","","<img src=images/blank.png width =""500"" height = ""500"" style=""border:5px solid black"">","","",""
"","153.12000000290573","stimulus-presentation","121","1288335","0.0-17.0-1.3","SS1604513375352","<img src='images/simple/16.png' width ='500' height = '500' style='border:5px solid black'>","40","all_simple","images/simple/7.png","images/simple/16.png","images/simple/8.png,images/simple/18.png,images/simple/10.png,images/simple/13.png,images/simple/6.png,images/simple/1.png,images/simple/5.png","1","null","","200","353.1200000029057","","","","background","",""
"","null","html-keyboard-response","122","1289277","0.0-17.0-0.4","SS1604513375352","","null","","","","","","","","","","","","<img src=images/blank.png width =""500"" height = ""500"" style=""border:5px solid black"">","","",""
"","92.11499999207444","stimulus-presentation","123","1289576","0.0-17.0-1.4","SS1604513375352","<img src='images/simple/16.png' width ='500' height = '500' style='border:5px solid black'>","40","all_simple","images/simple/7.png","images/simple/16.png","images/simple/8.png,images/simple/18.png,images/simple/10.png,images/simple/13.png,images/simple/6.png,images/simple/1.png,images/simple/5.png","1","null","","200","292.11499999207444","","","","background","",""
"","null","html-keyboard-response","124","1290703","0.0-17.0-0.5","SS1604513375352","","null","","","","","","","","","","","","<img src=images/blank.png width =""500"" height = ""500"" style=""border:5px solid black"">","","",""
"","122.2449999912642","stimulus-presentation","125","1291033","0.0-17.0-1.5","SS1604513375352","<img src='images/simple/16.png' width ='500' height = '500' style='border:5px solid black'>","40","all_simple","images/simple/7.png","images/simple/16.png","images/simple/8.png,images/simple/18.png,images/simple/10.png,images/simple/13.png,images/simple/6.png,images/simple/1.png,images/simple/5.png","1","null","","200","322.2449999912642","","","","background","",""
"","null","html-keyboard-response","126","1292236","0.0-17.0-0.6","SS1604513375352","","null","","","","","","","","","","","","<img src=images/blank.png width =""500"" height = ""500"" style=""border:5px solid black"">","","",""
"","107.24500000639819","stimulus-presentation","127","1292551","0.0-17.0-1.6","SS1604513375352","<img src='images/simple/16.png' width ='500' height = '500' style='border:5px solid black'>","40","all_simple","images/simple/7.png","images/simple/16.png","images/simple/8.png,images/simple/18.png,images/simple/10.png,images/simple/13.png,images/simple/6.png,images/simple/1.png,images/simple/5.png","1","null","","200","307.2450000063982","","","","background","",""
"","null","html-keyboard-response","128","1293468","0.0-17.0-0.7","SS1604513375352","","null","","","","","","","","","","","","<img src=images/blank.png width =""500"" height = ""500"" style=""border:5px solid black"">","","",""
"","1908.0700000049546","stimulus-presentation","129","1295584","0.0-17.0-1.7","SS1604513375352","<img src='images/simple/7.png' width ='500' height = '500' style='border:5px solid black'>","40","all_simple","images/simple/7.png","images/simple/16.png","images/simple/8.png,images/simple/18.png,images/simple/10.png,images/simple/13.png,images/simple/6.png,images/simple/1.png,images/simple/5.png","1","null","","200","2108.0700000049546","yes","548.0800000075251","","target","",""
"","null","html-keyboard-response","130","1296615","0.0-17.0-0.8","SS1604513375352","","null","","","","","","","","","","","","<img src=images/blank.png width =""500"" height = ""500"" style=""border:5px solid black"">","","",""
"","1329.5749999959953","stimulus-presentation","131","1298152","0.0-17.0-1.8","SS1604513375352","<img src='images/simple/7.png' width ='500' height = '500' style='border:5px solid black'>","40","all_simple","images/simple/7.png","images/simple/16.png","images/simple/8.png,images/simple/18.png,images/simple/10.png,images/simple/13.png,images/simple/6.png,images/simple/1.png,images/simple/5.png","1","null","","200","1529.5749999959953","yes","473.320000004489","","target","",""
"","null","html-keyboard-response","132","1298993","0.0-17.0-0.9","SS1604513375352","","null","","","","","","","","","","","","<img src=images/blank.png width =""500"" height = ""500"" style=""border:5px solid black"">","","",""
"","215.2150000038091","stimulus-presentation","133","1299416","0.0-17.0-1.9","SS1604513375352","<img src='images/simple/16.png' width ='500' height = '500' style='border:5px solid black'>","40","all_simple","images/simple/7.png","images/simple/16.png","images/simple/8.png,images/simple/18.png,images/simple/10.png,images/simple/13.png,images/simple/6.png,images/simple/1.png,images/simple/5.png","1","null","","200","415.2150000038091","","","","background","",""
"","null","html-keyboard-response","134","1300471","0.0-17.0-0.10","SS1604513375352","","null","","","","","","","","","","","","<img src=images/blank.png width =""500"" height = ""500"" style=""border:5px solid black"">","","",""
"","161.2650000024587","stimulus-presentation","135","1300840","0.0-17.0-1.10","SS1604513375352","<img src='images/simple/1.png' width ='500' height = '500' style='border:5px solid black'>","40","all_simple","images/simple/7.png","images/simple/16.png","images/simple/8.png,images/simple/18.png,images/simple/10.png,images/simple/13.png,images/simple/6.png,images/simple/1.png,images/simple/5.png","1","null","","200","361.2650000024587","","","","deviant","",""
"","null","html-keyboard-response","136","1301925","0.0-17.0-0.11","SS1604513375352","","null","","","","","","","","","","","","<img src=images/blank.png width =""500"" height = ""500"" style=""border:5px solid black"">","","",""
"","305.07500001136214","stimulus-presentation","137","1302438","0.0-17.0-1.11","SS1604513375352","<img src='images/simple/16.png' width ='500' height = '500' style='border:5px solid black'>","40","all_simple","images/simple/7.png","images/simple/16.png","images/simple/8.png,images/simple/18.png,images/simple/10.png,images/simple/13.png,images/simple/6.png,images/simple/1.png,images/simple/5.png","1","null","","200","505.07500001136214","","","","background","",""
"","null","html-keyboard-response","138","1303330","0.0-17.0-0.12","SS1604513375352","","null","","","","","","","","","","","","<img src=images/blank.png width =""500"" height = ""500"" style=""border:5px solid black"">","","",""
"","412.33500000089407","stimulus-presentation","139","1303949","0.0-17.0-1.12","SS1604513375352","<img src='images/simple/16.png' width ='500' height = '500' style='border:5px solid black'>","40","all_simple","images/simple/7.png","images/simple/16.png","images/simple/8.png,images/simple/18.png,images/simple/10.png,images/simple/13.png,images/simple/6.png,images/simple/1.png,images/simple/5.png","1","null","","200","612.3350000008941","","","","background","",""
"","null","html-keyboard-response","140","1305233","0.0-17.0-0.13","SS1604513375352","","null","","","","","","","","","","","","<img src=images/blank.png width =""500"" height = ""500"" style=""border:5px solid black"">","","",""
"","151.65500000864267","stimulus-presentation","141","1305592","0.0-17.0-1.13","SS1604513375352","<img src='images/simple/16.png' width ='500' height = '500' style='border:5px solid black'>","40","all_simple","images/simple/7.png","images/simple/16.png","images/simple/8.png,images/simple/18.png,images/simple/10.png,images/simple/13.png,images/simple/6.png,images/simple/1.png,images/simple/5.png","1","null","","200","351.6550000086427","","","","background","",""
"","null","html-keyboard-response","142","1306566","0.0-17.0-0.14","SS1604513375352","","null","","","","","","","","","","","","<img src=images/blank.png width =""500"" height = ""500"" style=""border:5px solid black"">","","",""
"","308.8149999966845","stimulus-presentation","143","1307083","0.0-17.0-1.14","SS1604513375352","<img src='images/simple/16.png' width ='500' height = '500' style='border:5px solid black'>","40","all_simple","images/simple/7.png","images/simple/16.png","images/simple/8.png,images/simple/18.png,images/simple/10.png,images/simple/13.png,images/simple/6.png,images/simple/1.png,images/simple/5.png","1","null","","200","508.8149999966845","","","","background","",""
"","null","html-keyboard-response","144","1308062","0.0-17.0-0.15","SS1604513375352","","null","","","","","","","","","","","","<img src=images/blank.png width =""500"" height = ""500"" style=""border:5px solid black"">","","",""
"","202.76499999454245","stimulus-presentation","145","1308472","0.0-17.0-1.15","SS1604513375352","<img src='images/simple/16.png' width ='500' height = '500' style='border:5px solid black'>","40","all_simple","images/simple/7.png","images/simple/16.png","images/simple/8.png,images/simple/18.png,images/simple/10.png,images/simple/13.png,images/simple/6.png,images/simple/1.png,images/simple/5.png","1","null","","200","402.76499999454245","","","","background","",""
"","null","html-keyboard-response","146","1309550","0.0-17.0-0.16","SS1604513375352","","null","","","","","","","","","","","","<img src=images/blank.png width =""500"" height = ""500"" style=""border:5px solid black"">","","",""
"","169.28000000189058","stimulus-presentation","147","1309929","0.0-17.0-1.16","SS1604513375352","<img src='images/simple/16.png' width ='500' height = '500' style='border:5px solid black'>","40","all_simple","images/simple/7.png","images/simple/16.png","images/simple/8.png,images/simple/18.png,images/simple/10.png,images/simple/13.png,images/simple/6.png,images/simple/1.png,images/simple/5.png","1","null","","200","369.2800000018906","","","","background","",""
"","null","html-keyboard-response","148","1311072","0.0-17.0-0.17","SS1604513375352","","null","","","","","","","","","","","","<img src=images/blank.png width =""500"" height = ""500"" style=""border:5px solid black"">","","",""
"","138.6750000093598","stimulus-presentation","149","1311419","0.0-17.0-1.17","SS1604513375352","<img src='images/simple/16.png' width ='500' height = '500' style='border:5px solid black'>","40","all_simple","images/simple/7.png","images/simple/16.png","images/simple/8.png,images/simple/18.png,images/simple/10.png,images/simple/13.png,images/simple/6.png,images/simple/1.png,images/simple/5.png","1","null","","200","338.6750000093598","","","","background","",""
"","null","html-keyboard-response","150","1312511","0.0-17.0-0.18","SS1604513375352","","null","","","","","","","","","","","","<img src=images/blank.png width =""500"" height = ""500"" style=""border:5px solid black"">","","",""
"","410.9900000039488","stimulus-presentation","151","1313130","0.0-17.0-1.18","SS1604513375352","<img src='images/simple/8.png' width ='500' height = '500' style='border:5px solid black'>","40","all_simple","images/simple/7.png","images/simple/16.png","images/simple/8.png,images/simple/18.png,images/simple/10.png,images/simple/13.png,images/simple/6.png,images/simple/1.png,images/simple/5.png","1","null","","200","610.9900000039488","","","","deviant","",""
"","null","html-keyboard-response","152","1314228","0.0-17.0-0.19","SS1604513375352","","null","","","","","","","","","","","","<img src=images/blank.png width =""500"" height = ""500"" style=""border:5px solid black"">","","",""
"","1790.1300000087358","stimulus-presentation","153","1316225","0.0-17.0-1.19","SS1604513375352","<img src='images/simple/7.png' width ='500' height = '500' style='border:5px solid black'>","40","all_simple","images/simple/7.png","images/simple/16.png","images/simple/8.png,images/simple/18.png,images/simple/10.png,images/simple/13.png,images/simple/6.png,images/simple/1.png,images/simple/5.png","1","null","","200","1990.1300000087358","yes","654.4399999985471","","target","",""
"","null","html-keyboard-response","154","1317267","0.0-17.0-0.20","SS1604513375352","","null","","","","","","","","","","","","<img src=images/blank.png width =""500"" height = ""500"" style=""border:5px solid black"">","","",""
"","266.0850000102073","stimulus-presentation","155","1317745","0.0-17.0-1.20","SS1604513375352","<img src='images/simple/16.png' width ='500' height = '500' style='border:5px solid black'>","40","all_simple","images/simple/7.png","images/simple/16.png","images/simple/8.png,images/simple/18.png,images/simple/10.png,images/simple/13.png,images/simple/6.png,images/simple/1.png,images/simple/5.png","1","null","","200","466.0850000102073","","","","background","",""
"","null","html-keyboard-response","156","1318617","0.0-17.0-0.21","SS1604513375352","","null","","","","","","","","","","","","<img src=images/blank.png width =""500"" height = ""500"" style=""border:5px solid black"">","","",""
"","406.8949999930337","stimulus-presentation","157","1319232","0.0-17.0-1.21","SS1604513375352","<img src='images/simple/16.png' width ='500' height = '500' style='border:5px solid black'>","40","all_simple","images/simple/7.png","images/simple/16.png","images/simple/8.png,images/simple/18.png,images/simple/10.png,images/simple/13.png,images/simple/6.png,images/simple/1.png,images/simple/5.png","1","null","","200","606.8949999930337","","","","background","",""
"","null","html-keyboard-response","158","1320177","0.0-17.0-0.22","SS1604513375352","","null","","","","","","","","","","","","<img src=images/blank.png width =""500"" height = ""500"" style=""border:5px solid black"">","","",""
"","240.06499999086373","stimulus-presentation","159","1320625","0.0-17.0-1.22","SS1604513375352","<img src='images/simple/16.png' width ='500' height = '500' style='border:5px solid black'>","40","all_simple","images/simple/7.png","images/simple/16.png","images/simple/8.png,images/simple/18.png,images/simple/10.png,images/simple/13.png,images/simple/6.png,images/simple/1.png,images/simple/5.png","1","null","","200","440.0649999908637","","","","background","",""
"","null","html-keyboard-response","160","1321876","0.0-17.0-0.23","SS1604513375352","","null","","","","","","","","","","","","<img src=images/blank.png width =""500"" height = ""500"" style=""border:5px solid black"">","","",""
"","189.144999996759","stimulus-presentation","161","1322273","0.0-17.0-1.23","SS1604513375352","<img src='images/simple/16.png' width ='500' height = '500' style='border:5px solid black'>","40","all_simple","images/simple/7.png","images/simple/16.png","images/simple/8.png,images/simple/18.png,images/simple/10.png,images/simple/13.png,images/simple/6.png,images/simple/1.png,images/simple/5.png","1","null","","200","389.144999996759","","","","background","",""
"","null","html-keyboard-response","162","1323486","0.0-17.0-0.24","SS1604513375352","","null","","","","","","","","","","","","<img src=images/blank.png width =""500"" height = ""500"" style=""border:5px solid black"">","","",""
"","1586.9799999929965","stimulus-presentation","163","1325281","0.0-17.0-1.24","SS1604513375352","<img src='images/simple/7.png' width ='500' height = '500' style='border:5px solid black'>","40","all_simple","images/simple/7.png","images/simple/16.png","images/simple/8.png,images/simple/18.png,images/simple/10.png,images/simple/13.png,images/simple/6.png,images/simple/1.png,images/simple/5.png","1","null","","200","1786.9799999929965","yes","732.2699999932665","","target","",""
"","null","html-keyboard-response","164","1326509","0.0-17.0-0.25","SS1604513375352","","null","","","","","","","","","","","","<img src=images/blank.png width =""500"" height = ""500"" style=""border:5px solid black"">","","",""
"","244.15499999304302","stimulus-presentation","165","1326960","0.0-17.0-1.25","SS1604513375352","<img src='images/simple/16.png' width ='500' height = '500' style='border:5px solid black'>","40","all_simple","images/simple/7.png","images/simple/16.png","images/simple/8.png,images/simple/18.png,images/simple/10.png,images/simple/13.png,images/simple/6.png,images/simple/1.png,images/simple/5.png","1","null","","200","444.154999993043","","","","background","",""
"","null","html-keyboard-response","166","1327775","0.0-17.0-0.26","SS1604513375352","","null","","","","","","","","","","","","<img src=images/blank.png width =""500"" height = ""500"" style=""border:5px solid black"">","","",""
"","273.13500001025386","stimulus-presentation","167","1328256","0.0-17.0-1.26","SS1604513375352","<img src='images/simple/16.png' width ='500' height = '500' style='border:5px solid black'>","40","all_simple","images/simple/7.png","images/simple/16.png","images/simple/8.png,images/simple/18.png,images/simple/10.png,images/simple/13.png,images/simple/6.png,images/simple/1.png,images/simple/5.png","1","null","","200","473.13500001025386","","","","background","",""
"","null","html-keyboard-response","168","1329336","0.0-17.0-0.27","SS1604513375352","","null","","","","","","","","","","","","<img src=images/blank.png width =""500"" height = ""500"" style=""border:5px solid black"">","","",""
"","264.9150000070222","stimulus-presentation","169","1329811","0.0-17.0-1.27","SS1604513375352","<img src='images/simple/16.png' width ='500' height = '500' style='border:5px solid black'>","40","all_simple","images/simple/7.png","images/simple/16.png","images/simple/8.png,images/simple/18.png,images/simple/10.png,images/simple/13.png,images/simple/6.png,images/simple/1.png,images/simple/5.png","1","null","","200","464.9150000070222","","","","background","",""
"","null","html-keyboard-response","170","1330746","0.0-17.0-0.28","SS1604513375352","","null","","","","","","","","","","","","<img src=images/blank.png width =""500"" height = ""500"" style=""border:5px solid black"">","","",""
"","720.3899999875575","stimulus-presentation","171","1331674","0.0-17.0-1.28","SS1604513375352","<img src='images/simple/16.png' width ='500' height = '500' style='border:5px solid black'>","40","all_simple","images/simple/7.png","images/simple/16.png","images/simple/8.png,images/simple/18.png,images/simple/10.png,images/simple/13.png,images/simple/6.png,images/simple/1.png,images/simple/5.png","1","null","","200","920.3899999875575","","","","background","",""
"","null","html-keyboard-response","172","1332911","0.0-17.0-0.29","SS1604513375352","","null","","","","","","","","","","","","<img src=images/blank.png width =""500"" height = ""500"" style=""border:5px solid black"">","","",""
"","1787.8499999931082","stimulus-presentation","173","1334906","0.0-17.0-1.29","SS1604513375352","<img src='images/simple/7.png' width ='500' height = '500' style='border:5px solid black'>","40","all_simple","images/simple/7.png","images/simple/16.png","images/simple/8.png,images/simple/18.png,images/simple/10.png,images/simple/13.png,images/simple/6.png,images/simple/1.png,images/simple/5.png","1","null","","200","1987.8499999931082","yes","642.7750000001397","","target","",""
"","null","html-keyboard-response","174","1335918","0.0-17.0-0.30","SS1604513375352","","null","","","","","","","","","","","","<img src=images/blank.png width =""500"" height = ""500"" style=""border:5px solid black"">","","",""
"","296.560000002617","stimulus-presentation","175","1336425","0.0-17.0-1.30","SS1604513375352","<img src='images/simple/13.png' width ='500' height = '500' style='border:5px solid black'>","40","all_simple","images/simple/7.png","images/simple/16.png","images/simple/8.png,images/simple/18.png,images/simple/10.png,images/simple/13.png,images/simple/6.png,images/simple/1.png,images/simple/5.png","1","null","","200","496.560000002617","","","","deviant","",""
"","null","html-keyboard-response","176","1337473","0.0-17.0-0.31","SS1604513375352","","null","","","","","","","","","","","","<img src=images/blank.png width =""500"" height = ""500"" style=""border:5px solid black"">","","",""
"","576.2700000049081","stimulus-presentation","177","1338257","0.0-17.0-1.31","SS1604513375352","<img src='images/simple/16.png' width ='500' height = '500' style='border:5px solid black'>","40","all_simple","images/simple/7.png","images/simple/16.png","images/simple/8.png,images/simple/18.png,images/simple/10.png,images/simple/13.png,images/simple/6.png,images/simple/1.png,images/simple/5.png","1","null","","200","776.2700000049081","","","","background","",""
"","null","html-keyboard-response","178","1339350","0.0-17.0-0.32","SS1604513375352","","null","","","","","","","","","","","","<img src=images/blank.png width =""500"" height = ""500"" style=""border:5px solid black"">","","",""
"","122.35499999951571","stimulus-presentation","179","1339681","0.0-17.0-1.32","SS1604513375352","<img src='images/simple/16.png' width ='500' height = '500' style='border:5px solid black'>","40","all_simple","images/simple/7.png","images/simple/16.png","images/simple/8.png,images/simple/18.png,images/simple/10.png,images/simple/13.png,images/simple/6.png,images/simple/1.png,images/simple/5.png","1","null","","200","322.3549999995157","","","","background","",""
"","null","html-keyboard-response","180","1340826","0.0-17.0-0.33","SS1604513375352","","null","","","","","","","","","","","","<img src=images/blank.png width =""500"" height = ""500"" style=""border:5px solid black"">","","",""
"","167.5950000062585","stimulus-presentation","181","1341202","0.0-17.0-1.33","SS1604513375352","<img src='images/simple/16.png' width ='500' height = '500' style='border:5px solid black'>","40","all_simple","images/simple/7.png","images/simple/16.png","images/simple/8.png,images/simple/18.png,images/simple/10.png,images/simple/13.png,images/simple/6.png,images/simple/1.png,images/simple/5.png","1","null","","200","367.5950000062585","","","","background","",""
"","null","html-keyboard-response","182","1342238","0.0-17.0-0.34","SS1604513375352","","null","","","","","","","","","","","","<img src=images/blank.png width =""500"" height = ""500"" style=""border:5px solid black"">","","",""
"","114.30499999551103","stimulus-presentation","183","1342561","0.0-17.0-1.34","SS1604513375352","<img src='images/simple/16.png' width ='500' height = '500' style='border:5px solid black'>","40","all_simple","images/simple/7.png","images/simple/16.png","images/simple/8.png,images/simple/18.png,images/simple/10.png,images/simple/13.png,images/simple/6.png,images/simple/1.png,images/simple/5.png","1","null","","200","314.304999995511","","","","background","",""
"","null","html-keyboard-response","184","1343539","0.0-17.0-0.35","SS1604513375352","","null","","","","","","","","","","","","<img src=images/blank.png width =""500"" height = ""500"" style=""border:5px solid black"">","","",""
"","1855.7849999924656","stimulus-presentation","185","1345604","0.0-17.0-1.35","SS1604513375352","<img src='images/simple/7.png' width ='500' height = '500' style='border:5px solid black'>","40","all_simple","images/simple/7.png","images/simple/16.png","images/simple/8.png,images/simple/18.png,images/simple/10.png,images/simple/13.png,images/simple/6.png,images/simple/1.png,images/simple/5.png","1","null","","200","2055.7849999924656","yes","1050.6400000012945","","target","",""
"","null","html-keyboard-response","186","1346509","0.0-17.0-0.36","SS1604513375352","","null","","","","","","","","","","","","<img src=images/blank.png width =""500"" height = ""500"" style=""border:5px solid black"">","","",""
"","471.10999999847263","stimulus-presentation","187","1347187","0.0-17.0-1.36","SS1604513375352","<img src='images/simple/10.png' width ='500' height = '500' style='border:5px solid black'>","40","all_simple","images/simple/7.png","images/simple/16.png","images/simple/8.png,images/simple/18.png,images/simple/10.png,images/simple/13.png,images/simple/6.png,images/simple/1.png,images/simple/5.png","1","null","","200","671.1099999984726","","","","deviant","",""
"","null","html-keyboard-response","188","1348125","0.0-17.0-0.37","SS1604513375352","","null","","","","","","","","","","","","<img src=images/blank.png width =""500"" height = ""500"" style=""border:5px solid black"">","","",""
"","276.3300000077579","stimulus-presentation","189","1348609","0.0-17.0-1.37","SS1604513375352","<img src='images/simple/16.png' width ='500' height = '500' style='border:5px solid black'>","40","all_simple","images/simple/7.png","images/simple/16.png","images/simple/8.png,images/simple/18.png,images/simple/10.png,images/simple/13.png,images/simple/6.png,images/simple/1.png,images/simple/5.png","1","null","","200","476.3300000077579","","","","background","",""
"","null","html-keyboard-response","190","1349886","0.0-17.0-0.38","SS1604513375352","","null","","","","","","","","","","","","<img src=images/blank.png width =""500"" height = ""500"" style=""border:5px solid black"">","","",""
"","261.10500001208857","stimulus-presentation","191","1350355","0.0-17.0-1.38","SS1604513375352","<img src='images/simple/16.png' width ='500' height = '500' style='border:5px solid black'>","40","all_simple","images/simple/7.png","images/simple/16.png","images/simple/8.png,images/simple/18.png,images/simple/10.png,images/simple/13.png,images/simple/6.png,images/simple/1.png,images/simple/5.png","1","null","","200","461.10500001208857","","","","background","",""
"","null","html-keyboard-response","192","1351393","0.0-17.0-0.39","SS1604513375352","","null","","","","","","","","","","","","<img src=images/blank.png width =""500"" height = ""500"" style=""border:5px solid black"">","","",""
"","1566.7749999992084","stimulus-presentation","193","1353170","0.0-17.0-1.39","SS1604513375352","<img src='images/simple/7.png' width ='500' height = '500' style='border:5px solid black'>","40","all_simple","images/simple/7.png","images/simple/16.png","images/simple/8.png,images/simple/18.png,images/simple/10.png,images/simple/13.png,images/simple/6.png,images/simple/1.png,images/simple/5.png","1","null","","200","1766.7749999992084","yes","646.6599999985192","","target","",""
"","null","html-keyboard-response","194","1354338","0.0-17.0-0.40","SS1604513375352","","null","","","","","","","","","","","","<img src=images/blank.png width =""500"" height = ""500"" style=""border:5px solid black"">","","",""
"","431.6699999908451","stimulus-presentation","195","1354977","0.0-17.0-1.40","SS1604513375352","<img src='images/simple/5.png' width ='500' height = '500' style='border:5px solid black'>","40","all_simple","images/simple/7.png","images/simple/16.png","images/simple/8.png,images/simple/18.png,images/simple/10.png,images/simple/13.png,images/simple/6.png,images/simple/1.png,images/simple/5.png","1","null","","200","631.6699999908451","","","","deviant","",""
"","null","html-keyboard-response","196","1356143","0.0-17.0-0.41","SS1604513375352","","null","","","","","","","","","","","","<img src=images/blank.png width =""500"" height = ""500"" style=""border:5px solid black"">","","",""
"","302.10500000976026","stimulus-presentation","197","1356653","0.0-17.0-1.41","SS1604513375352","<img src='images/simple/16.png' width ='500' height = '500' style='border:5px solid black'>","40","all_simple","images/simple/7.png","images/simple/16.png","images/simple/8.png,images/simple/18.png,images/simple/10.png,images/simple/13.png,images/simple/6.png,images/simple/1.png,images/simple/5.png","1","null","","200","502.10500000976026","","","","background","",""
"","null","html-keyboard-response","198","1357850","0.0-17.0-0.42","SS1604513375352","","null","","","","","","","","","","","","<img src=images/blank.png width =""500"" height = ""500"" style=""border:5px solid black"">","","",""
"","495.969999989029","stimulus-presentation","199","1358555","0.0-17.0-1.42","SS1604513375352","<img src='images/simple/18.png' width ='500' height = '500' style='border:5px solid black'>","40","all_simple","images/simple/7.png","images/simple/16.png","images/simple/8.png,images/simple/18.png,images/simple/10.png,images/simple/13.png,images/simple/6.png,images/simple/1.png,images/simple/5.png","1","null","","200","695.969999989029","","","","deviant","",""
"","null","html-keyboard-response","200","1359385","0.0-17.0-0.43","SS1604513375352","","null","","","","","","","","","","","","<img src=images/blank.png width =""500"" height = ""500"" style=""border:5px solid black"">","","",""
"","286.5299999974668","stimulus-presentation","201","1359882","0.0-17.0-1.43","SS1604513375352","<img src='images/simple/16.png' width ='500' height = '500' style='border:5px solid black'>","40","all_simple","images/simple/7.png","images/simple/16.png","images/simple/8.png,images/simple/18.png,images/simple/10.png,images/simple/13.png,images/simple/6.png,images/simple/1.png,images/simple/5.png","1","null","","200","486.5299999974668","","","","background","",""
"","null","html-keyboard-response","202","1360782","0.0-17.0-0.44","SS1604513375352","","null","","","","","","","","","","","","<img src=images/blank.png width =""500"" height = ""500"" style=""border:5px solid black"">","","",""
"","251.80499999248423","stimulus-presentation","203","1361242","0.0-17.0-1.44","SS1604513375352","<img src='images/simple/16.png' width ='500' height = '500' style='border:5px solid black'>","40","all_simple","images/simple/7.png","images/simple/16.png","images/simple/8.png,images/simple/18.png,images/simple/10.png,images/simple/13.png,images/simple/6.png,images/simple/1.png,images/simple/5.png","1","null","","200","451.8049999924842","","","","background","",""
"","null","html-keyboard-response","204","1362181","0.0-17.0-0.45","SS1604513375352","","null","","","","","","","","","","","","<img src=images/blank.png width =""500"" height = ""500"" style=""border:5px solid black"">","","",""
"","180.28499999502674","stimulus-presentation","205","1362570","0.0-17.0-1.45","SS1604513375352","<img src='images/simple/16.png' width ='500' height = '500' style='border:5px solid black'>","40","all_simple","images/simple/7.png","images/simple/16.png","images/simple/8.png,images/simple/18.png,images/simple/10.png,images/simple/13.png,images/simple/6.png,images/simple/1.png,images/simple/5.png","1","null","","200","380.28499999502674","","","","background","",""
"","null","html-keyboard-response","206","1363796","0.0-17.0-0.46","SS1604513375352","","null","","","","","","","","","","","","<img src=images/blank.png width =""500"" height = ""500"" style=""border:5px solid black"">","","",""
"","309.6900000090245","stimulus-presentation","207","1364314","0.0-17.0-1.46","SS1604513375352","<img src='images/simple/16.png' width ='500' height = '500' style='border:5px solid black'>","40","all_simple","images/simple/7.png","images/simple/16.png","images/simple/8.png,images/simple/18.png,images/simple/10.png,images/simple/13.png,images/simple/6.png,images/simple/1.png,images/simple/5.png","1","null","","200","509.6900000090245","","","","background","",""
"","null","html-keyboard-response","208","1365481","0.0-17.0-0.47","SS1604513375352","","null","","","","","","","","","","","","<img src=images/blank.png width =""500"" height = ""500"" style=""border:5px solid black"">","","",""
"","931.2199999983422","stimulus-presentation","209","1366622","0.0-17.0-1.47","SS1604513375352","<img src='images/simple/16.png' width ='500' height = '500' style='border:5px solid black'>","40","all_simple","images/simple/7.png","images/simple/16.png","images/simple/8.png,images/simple/18.png,images/simple/10.png,images/simple/13.png,images/simple/6.png,images/simple/1.png,images/simple/5.png","1","null","","200","1131.2199999983422","","","","background","",""
"","null","html-keyboard-response","210","1367655","0.0-17.0-0.48","SS1604513375352","","null","","","","","","","","","","","","<img src=images/blank.png width =""500"" height = ""500"" style=""border:5px solid black"">","","",""
"","125.32000000658445","stimulus-presentation","211","1367987","0.0-17.0-1.48","SS1604513375352","<img src='images/simple/16.png' width ='500' height = '500' style='border:5px solid black'>","40","all_simple","images/simple/7.png","images/simple/16.png","images/simple/8.png,images/simple/18.png,images/simple/10.png,images/simple/13.png,images/simple/6.png,images/simple/1.png,images/simple/5.png","1","null","","200","325.32000000658445","","","","background","",""
"[{""page_index"":0,""viewing_time"":38591}]","38592","task-instructions","212","1406586","0.0-18.0","SS1604513375352","","","","","","","","","","","","","","","","",""
"[{""page_index"":0,""viewing_time"":1001.445000001695},{""page_index"":1,""viewing_time"":1858.4499999997206},{""page_index"":2,""viewing_time"":1221.4199999871198}]","4081.6300000005867","instructions","213","1410676","0.0-19.0","SS1604513375352","","","","","","","","","","","","","","","","",""
"","null","html-keyboard-response","214","1411961","0.0-20.0-0.0","SS1604513375352","","null","","","","","","","","","","","","<img src=images/blank.png width =""500"" height = ""500"" style=""border:5px solid black"">","","",""
"","486.1700000038836","stimulus-presentation","215","1412659","0.0-20.0-1.0","SS1604513375352","<img src='images/simple/14.png' width ='500' height = '500' style='border:5px solid black'>","40","mixed_simple_deviant","images/complex/18.png","images/complex/15.png","images/simple/14.png,images/simple/9.png,images/simple/4.png,images/simple/3.png,images/simple/12.png,images/simple/2.png,images/simple/15.png","2","null","","200","686.1700000038836","","","","deviant","",""
"","null","html-keyboard-response","216","1413697","0.0-20.0-0.1","SS1604513375352","","null","","","","","","","","","","","","<img src=images/blank.png width =""500"" height = ""500"" style=""border:5px solid black"">","","",""
"","1084.2449999910314","stimulus-presentation","217","1414992","0.0-20.0-1.1","SS1604513375352","<img src='images/complex/15.png' width ='500' height = '500' style='border:5px solid black'>","40","mixed_simple_deviant","images/complex/18.png","images/complex/15.png","images/simple/14.png,images/simple/9.png,images/simple/4.png,images/simple/3.png,images/simple/12.png,images/simple/2.png,images/simple/15.png","2","null","","200","1284.2449999910314","","","","background","",""
"","null","html-keyboard-response","218","1416146","0.0-20.0-0.2","SS1604513375352","","null","","","","","","","","","","","","<img src=images/blank.png width =""500"" height = ""500"" style=""border:5px solid black"">","","",""
"","135.1399999987334","stimulus-presentation","219","1416491","0.0-20.0-1.2","SS1604513375352","<img src='images/complex/15.png' width ='500' height = '500' style='border:5px solid black'>","40","mixed_simple_deviant","images/complex/18.png","images/complex/15.png","images/simple/14.png,images/simple/9.png,images/simple/4.png,images/simple/3.png,images/simple/12.png,images/simple/2.png,images/simple/15.png","2","null","","200","335.1399999987334","","","","background","",""
"","null","html-keyboard-response","220","1417415","0.0-20.0-0.3","SS1604513375352","","null","","","","","","","","","","","","<img src=images/blank.png width =""500"" height = ""500"" style=""border:5px solid black"">","","",""
"","162.24499999941327","stimulus-presentation","221","1417787","0.0-20.0-1.3","SS1604513375352","<img src='images/simple/12.png' width ='500' height = '500' style='border:5px solid black'>","40","mixed_simple_deviant","images/complex/18.png","images/complex/15.png","images/simple/14.png,images/simple/9.png,images/simple/4.png,images/simple/3.png,images/simple/12.png,images/simple/2.png,images/simple/15.png","2","null","","200","362.24499999941327","","","","deviant","",""
"","null","html-keyboard-response","222","1418689","0.0-20.0-0.4","SS1604513375352","","null","","","","","","","","","","","","<img src=images/blank.png width =""500"" height = ""500"" style=""border:5px solid black"">","","",""
"","217.17000000341795","stimulus-presentation","223","1419115","0.0-20.0-1.4","SS1604513375352","<img src='images/complex/15.png' width ='500' height = '500' style='border:5px solid black'>","40","mixed_simple_deviant","images/complex/18.png","images/complex/15.png","images/simple/14.png,images/simple/9.png,images/simple/4.png,images/simple/3.png,images/simple/12.png,images/simple/2.png,images/simple/15.png","2","null","","200","417.17000000341795","","","","background","",""
"","null","html-keyboard-response","224","1420266","0.0-20.0-0.5","SS1604513375352","","null","","","","","","","","","","","","<img src=images/blank.png width =""500"" height = ""500"" style=""border:5px solid black"">","","",""
"","161.4899999985937","stimulus-presentation","225","1420637","0.0-20.0-1.5","SS1604513375352","<img src='images/complex/15.png' width ='500' height = '500' style='border:5px solid black'>","40","mixed_simple_deviant","images/complex/18.png","images/complex/15.png","images/simple/14.png,images/simple/9.png,images/simple/4.png,images/simple/3.png,images/simple/12.png,images/simple/2.png,images/simple/15.png","2","null","","200","361.4899999985937","","","","background","",""
"","null","html-keyboard-response","226","1421570","0.0-20.0-0.6","SS1604513375352","","null","","","","","","","","","","","","<img src=images/blank.png width =""500"" height = ""500"" style=""border:5px solid black"">","","",""
"","343.05500000482425","stimulus-presentation","227","1422123","0.0-20.0-1.6","SS1604513375352","<img src='images/complex/15.png' width ='500' height = '500' style='border:5px solid black'>","40","mixed_simple_deviant","images/complex/18.png","images/complex/15.png","images/simple/14.png,images/simple/9.png,images/simple/4.png,images/simple/3.png,images/simple/12.png,images/simple/2.png,images/simple/15.png","2","null","","200","543.0550000048243","","","","background","",""
"","null","html-keyboard-response","228","1422966","0.0-20.0-0.7","SS1604513375352","","null","","","","","","","","","","","","<img src=images/blank.png width =""500"" height = ""500"" style=""border:5px solid black"">","","",""
"","371.8349999981001","stimulus-presentation","229","1423547","0.0-20.0-1.7","SS1604513375352","<img src='images/complex/15.png' width ='500' height = '500' style='border:5px solid black'>","40","mixed_simple_deviant","images/complex/18.png","images/complex/15.png","images/simple/14.png,images/simple/9.png,images/simple/4.png,images/simple/3.png,images/simple/12.png,images/simple/2.png,images/simple/15.png","2","null","","200","571.8349999981001","","","","background","",""
"","null","html-keyboard-response","230","1424579","0.0-20.0-0.8","SS1604513375352","","null","","","","","","","","","","","","<img src=images/blank.png width =""500"" height = ""500"" style=""border:5px solid black"">","","",""
"","460.0349999964237","stimulus-presentation","231","1425247","0.0-20.0-1.8","SS1604513375352","<img src='images/simple/3.png' width ='500' height = '500' style='border:5px solid black'>","40","mixed_simple_deviant","images/complex/18.png","images/complex/15.png","images/simple/14.png,images/simple/9.png,images/simple/4.png,images/simple/3.png,images/simple/12.png,images/simple/2.png,images/simple/15.png","2","null","","200","660.0349999964237","","","","deviant","",""
"","null","html-keyboard-response","232","1426231","0.0-20.0-0.9","SS1604513375352","","null","","","","","","","","","","","","<img src=images/blank.png width =""500"" height = ""500"" style=""border:5px solid black"">","","",""
"","430.45999998855405","stimulus-presentation","233","1426870","0.0-20.0-1.9","SS1604513375352","<img src='images/complex/15.png' width ='500' height = '500' style='border:5px solid black'>","40","mixed_simple_deviant","images/complex/18.png","images/complex/15.png","images/simple/14.png,images/simple/9.png,images/simple/4.png,images/simple/3.png,images/simple/12.png,images/simple/2.png,images/simple/15.png","2","null","","200","630.459999988554","","","","background","",""
"","null","html-keyboard-response","234","1428029","0.0-20.0-0.10","SS1604513375352","","null","","","","","","","","","","","","<img src=images/blank.png width =""500"" height = ""500"" style=""border:5px solid black"">","","",""
"","157.07000000099652","stimulus-presentation","235","1428395","0.0-20.0-1.10","SS1604513375352","<img src='images/complex/15.png' width ='500' height = '500' style='border:5px solid black'>","40","mixed_simple_deviant","images/complex/18.png","images/complex/15.png","images/simple/14.png,images/simple/9.png,images/simple/4.png,images/simple/3.png,images/simple/12.png,images/simple/2.png,images/simple/15.png","2","null","","200","357.0700000009965","","","","background","",""
"","null","html-keyboard-response","236","1429559","0.0-20.0-0.11","SS1604513375352","","null","","","","","","","","","","","","<img src=images/blank.png width =""500"" height = ""500"" style=""border:5px solid black"">","","",""
"","235.74499999801628","stimulus-presentation","237","1430004","0.0-20.0-1.11","SS1604513375352","<img src='images/complex/15.png' width ='500' height = '500' style='border:5px solid black'>","40","mixed_simple_deviant","images/complex/18.png","images/complex/15.png","images/simple/14.png,images/simple/9.png,images/simple/4.png,images/simple/3.png,images/simple/12.png,images/simple/2.png,images/simple/15.png","2","null","","200","435.7449999980163","","","","background","",""
"","null","html-keyboard-response","238","1431138","0.0-20.0-0.12","SS1604513375352","","null","","","","","","","","","","","","<img src=images/blank.png width =""500"" height = ""500"" style=""border:5px solid black"">","","",""
"","2017.0199999990873","stimulus-presentation","239","1433363","0.0-20.0-1.12","SS1604513375352","<img src='images/complex/18.png' width ='500' height = '500' style='border:5px solid black'>","40","mixed_simple_deviant","images/complex/18.png","images/complex/15.png","images/simple/14.png,images/simple/9.png,images/simple/4.png,images/simple/3.png,images/simple/12.png,images/simple/2.png,images/simple/15.png","2","null","","200","2217.0199999990873","yes","874.7849999926984","","target","",""
"","null","html-keyboard-response","240","1434437","0.0-20.0-0.13","SS1604513375352","","null","","","","","","","","","","","","<img src=images/blank.png width =""500"" height = ""500"" style=""border:5px solid black"">","","",""
"","334.07500000623986","stimulus-presentation","241","1434979","0.0-20.0-1.13","SS1604513375352","<img src='images/complex/18.png' width ='500' height = '500' style='border:5px solid black'>","40","mixed_simple_deviant","images/complex/18.png","images/complex/15.png","images/simple/14.png,images/simple/9.png,images/simple/4.png,images/simple/3.png,images/simple/12.png,images/simple/2.png,images/simple/15.png","2","null","","200","534.0750000062399","","","","target","",""
"","null","html-keyboard-response","242","1436067","0.0-20.0-0.14","SS1604513375352","","null","","","","","","","","","","","","<img src=images/blank.png width =""500"" height = ""500"" style=""border:5px solid black"">","","",""
"","190.0049999966286","stimulus-presentation","243","1436468","0.0-20.0-1.14","SS1604513375352","<img src='images/simple/15.png' width ='500' height = '500' style='border:5px solid black'>","40","mixed_simple_deviant","images/complex/18.png","images/complex/15.png","images/simple/14.png,images/simple/9.png,images/simple/4.png,images/simple/3.png,images/simple/12.png,images/simple/2.png,images/simple/15.png","2","null","","200","390.0049999966286","","","","deviant","",""
"","null","html-keyboard-response","244","1437431","0.0-20.0-0.15","SS1604513375352","","null","","","","","","","","","","","","<img src=images/blank.png width =""500"" height = ""500"" style=""border:5px solid black"">","","",""
"","182.99000000115484","stimulus-presentation","245","1437827","0.0-20.0-1.15","SS1604513375352","<img src='images/complex/15.png' width ='500' height = '500' style='border:5px solid black'>","40","mixed_simple_deviant","images/complex/18.png","images/complex/15.png","images/simple/14.png,images/simple/9.png,images/simple/4.png,images/simple/3.png,images/simple/12.png,images/simple/2.png,images/simple/15.png","2","null","","200","382.99000000115484","","","","background","",""
"","null","html-keyboard-response","246","1438800","0.0-20.0-0.16","SS1604513375352","","null","","","","","","","","","","","","<img src=images/blank.png width =""500"" height = ""500"" style=""border:5px solid black"">","","",""
"","924.2699999888428","stimulus-presentation","247","1439937","0.0-20.0-1.16","SS1604513375352","<img src='images/complex/15.png' width ='500' height = '500' style='border:5px solid black'>","40","mixed_simple_deviant","images/complex/18.png","images/complex/15.png","images/simple/14.png,images/simple/9.png,images/simple/4.png,images/simple/3.png,images/simple/12.png,images/simple/2.png,images/simple/15.png","2","null","","200","1124.2699999888428","","","","background","",""
"","null","html-keyboard-response","248","1440935","0.0-20.0-0.17","SS1604513375352","","null","","","","","","","","","","","","<img src=images/blank.png width =""500"" height = ""500"" style=""border:5px solid black"">","","",""
"","161.05999999842606","stimulus-presentation","249","1441307","0.0-20.0-1.17","SS1604513375352","<img src='images/complex/15.png' width ='500' height = '500' style='border:5px solid black'>","40","mixed_simple_deviant","images/complex/18.png","images/complex/15.png","images/simple/14.png,images/simple/9.png,images/simple/4.png,images/simple/3.png,images/simple/12.png,images/simple/2.png,images/simple/15.png","2","null","","200","361.05999999842606","","","","background","",""
"","null","html-keyboard-response","250","1442365","0.0-20.0-0.18","SS1604513375352","","null","","","","","","","","","","","","<img src=images/blank.png width =""500"" height = ""500"" style=""border:5px solid black"">","","",""
"","122.18000000575557","stimulus-presentation","251","1442702","0.0-20.0-1.18","SS1604513375352","<img src='images/complex/15.png' width ='500' height = '500' style='border:5px solid black'>","40","mixed_simple_deviant","images/complex/18.png","images/complex/15.png","images/simple/14.png,images/simple/9.png,images/simple/4.png,images/simple/3.png,images/simple/12.png,images/simple/2.png,images/simple/15.png","2","null","","200","322.1800000057556","","","","background","",""
"","null","html-keyboard-response","252","1443970","0.0-20.0-0.19","SS1604513375352","","null","","","","","","","","","","","","<img src=images/blank.png width =""500"" height = ""500"" style=""border:5px solid black"">","","",""
"","136.2000000081025","stimulus-presentation","253","1444316","0.0-20.0-1.19","SS1604513375352","<img src='images/complex/15.png' width ='500' height = '500' style='border:5px solid black'>","40","mixed_simple_deviant","images/complex/18.png","images/complex/15.png","images/simple/14.png,images/simple/9.png,images/simple/4.png,images/simple/3.png,images/simple/12.png,images/simple/2.png,images/simple/15.png","2","null","","200","336.2000000081025","","","","background","",""
"","null","html-keyboard-response","254","1445207","0.0-20.0-0.20","SS1604513375352","","null","","","","","","","","","","","","<img src=images/blank.png width =""500"" height = ""500"" style=""border:5px solid black"">","","",""
"","195.67499999515712","stimulus-presentation","255","1445611","0.0-20.0-1.20","SS1604513375352","<img src='images/complex/15.png' width ='500' height = '500' style='border:5px solid black'>","40","mixed_simple_deviant","images/complex/18.png","images/complex/15.png","images/simple/14.png,images/simple/9.png,images/simple/4.png,images/simple/3.png,images/simple/12.png,images/simple/2.png,images/simple/15.png","2","null","","200","395.6749999951571","","","","background","",""
"","null","html-keyboard-response","256","1446617","0.0-20.0-0.21","SS1604513375352","","null","","","","","","","","","","","","<img src=images/blank.png width =""500"" height = ""500"" style=""border:5px solid black"">","","",""
"","428.8749999979045","stimulus-presentation","257","1447256","0.0-20.0-1.21","SS1604513375352","<img src='images/complex/15.png' width ='500' height = '500' style='border:5px solid black'>","40","mixed_simple_deviant","images/complex/18.png","images/complex/15.png","images/simple/14.png,images/simple/9.png,images/simple/4.png,images/simple/3.png,images/simple/12.png,images/simple/2.png,images/simple/15.png","2","null","","200","628.8749999979045","","","","background","",""
"","null","html-keyboard-response","258","1448545","0.0-20.0-0.22","SS1604513375352","","null","","","","","","","","","","","","<img src=images/blank.png width =""500"" height = ""500"" style=""border:5px solid black"">","","",""
"","431.3899999980349","stimulus-presentation","259","1449188","0.0-20.0-1.22","SS1604513375352","<img src='images/simple/4.png' width ='500' height = '500' style='border:5px solid black'>","40","mixed_simple_deviant","images/complex/18.png","images/complex/15.png","images/simple/14.png,images/simple/9.png,images/simple/4.png,images/simple/3.png,images/simple/12.png,images/simple/2.png,images/simple/15.png","2","null","","200","631.3899999980349","","","","deviant","",""
"","null","html-keyboard-response","260","1450297","0.0-20.0-0.23","SS1604513375352","","null","","","","","","","","","","","","<img src=images/blank.png width =""500"" height = ""500"" style=""border:5px solid black"">","","",""
"","264.0749999990221","stimulus-presentation","261","1450771","0.0-20.0-1.23","SS1604513375352","<img src='images/complex/15.png' width ='500' height = '500' style='border:5px solid black'>","40","mixed_simple_deviant","images/complex/18.png","images/complex/15.png","images/simple/14.png,images/simple/9.png,images/simple/4.png,images/simple/3.png,images/simple/12.png,images/simple/2.png,images/simple/15.png","2","null","","200","464.0749999990221","","","","background","",""
"","null","html-keyboard-response","262","1451840","0.0-20.0-0.24","SS1604513375352","","null","","","","","","","","","","","","<img src=images/blank.png width =""500"" height = ""500"" style=""border:5px solid black"">","","",""
"","940.0199999944307","stimulus-presentation","263","1452989","0.0-20.0-1.24","SS1604513375352","<img src='images/complex/18.png' width ='500' height = '500' style='border:5px solid black'>","40","mixed_simple_deviant","images/complex/18.png","images/complex/15.png","images/simple/14.png,images/simple/9.png,images/simple/4.png,images/simple/3.png,images/simple/12.png,images/simple/2.png,images/simple/15.png","2","null","","200","1140.0199999944307","yes","210.8250000020489","","target","",""
"","null","html-keyboard-response","264","1454172","0.0-20.0-0.25","SS1604513375352","","null","","","","","","","","","","","","<img src=images/blank.png width =""500"" height = ""500"" style=""border:5px solid black"">","","",""
"","285.8350000025239","stimulus-presentation","265","1454668","0.0-20.0-1.25","SS1604513375352","<img src='images/complex/15.png' width ='500' height = '500' style='border:5px solid black'>","40","mixed_simple_deviant","images/complex/18.png","images/complex/15.png","images/simple/14.png,images/simple/9.png,images/simple/4.png,images/simple/3.png,images/simple/12.png,images/simple/2.png,images/simple/15.png","2","null","","200","485.8350000025239","","","","background","",""
"","null","html-keyboard-response","266","1455744","0.0-20.0-0.26","SS1604513375352","","null","","","","","","","","","","","","<img src=images/blank.png width =""500"" height = ""500"" style=""border:5px solid black"">","","",""
"","235.83000000496395","stimulus-presentation","267","1456188","0.0-20.0-1.26","SS1604513375352","<img src='images/simple/2.png' width ='500' height = '500' style='border:5px solid black'>","40","mixed_simple_deviant","images/complex/18.png","images/complex/15.png","images/simple/14.png,images/simple/9.png,images/simple/4.png,images/simple/3.png,images/simple/12.png,images/simple/2.png,images/simple/15.png","2","null","","200","435.83000000496395","","","","deviant","",""
"","null","html-keyboard-response","268","1457388","0.0-20.0-0.27","SS1604513375352","","null","","","","","","","","","","","","<img src=images/blank.png width =""500"" height = ""500"" style=""border:5px solid black"">","","",""
"","995.8950000000186","stimulus-presentation","269","1458596","0.0-20.0-1.27","SS1604513375352","<img src='images/complex/18.png' width ='500' height = '500' style='border:5px solid black'>","40","mixed_simple_deviant","images/complex/18.png","images/complex/15.png","images/simple/14.png,images/simple/9.png,images/simple/4.png,images/simple/3.png,images/simple/12.png,images/simple/2.png,images/simple/15.png","2","null","","200","1195.8950000000186","yes","355.8349999948405","","target","",""
"","null","html-keyboard-response","270","1459568","0.0-20.0-0.28","SS1604513375352","","null","","","","","","","","","","","","<img src=images/blank.png width =""500"" height = ""500"" style=""border:5px solid black"">","","",""
"","362.2599999944214","stimulus-presentation","271","1460140","0.0-20.0-1.28","SS1604513375352","<img src='images/complex/15.png' width ='500' height = '500' style='border:5px solid black'>","40","mixed_simple_deviant","images/complex/18.png","images/complex/15.png","images/simple/14.png,images/simple/9.png,images/simple/4.png,images/simple/3.png,images/simple/12.png,images/simple/2.png,images/simple/15.png","2","null","","200","562.2599999944214","","","","background","",""
"","null","html-keyboard-response","272","1460950","0.0-20.0-0.29","SS1604513375352","","null","","","","","","","","","","","","<img src=images/blank.png width =""500"" height = ""500"" style=""border:5px solid black"">","","",""
"","221.03000000072643","stimulus-presentation","273","1461380","0.0-20.0-1.29","SS1604513375352","<img src='images/complex/15.png' width ='500' height = '500' style='border:5px solid black'>","40","mixed_simple_deviant","images/complex/18.png","images/complex/15.png","images/simple/14.png,images/simple/9.png,images/simple/4.png,images/simple/3.png,images/simple/12.png,images/simple/2.png,images/simple/15.png","2","null","","200","421.03000000072643","","","","background","",""
"","null","html-keyboard-response","274","1462326","0.0-20.0-0.30","SS1604513375352","","null","","","","","","","","","","","","<img src=images/blank.png width =""500"" height = ""500"" style=""border:5px solid black"">","","",""
"","997.5649999978486","stimulus-presentation","275","1463533","0.0-20.0-1.30","SS1604513375352","<img src='images/complex/18.png' width ='500' height = '500' style='border:5px solid black'>","40","mixed_simple_deviant","images/complex/18.png","images/complex/15.png","images/simple/14.png,images/simple/9.png,images/simple/4.png,images/simple/3.png,images/simple/12.png,images/simple/2.png,images/simple/15.png","2","null","","200","1197.5649999978486","yes","332.67499999771826","","target","",""
"","null","html-keyboard-response","276","1464694","0.0-20.0-0.31","SS1604513375352","","null","","","","","","","","","","","","<img src=images/blank.png width =""500"" height = ""500"" style=""border:5px solid black"">","","",""
"","876.4050000028219","stimulus-presentation","277","1465780","0.0-20.0-1.31","SS1604513375352","<img src='images/complex/18.png' width ='500' height = '500' style='border:5px solid black'>","40","mixed_simple_deviant","images/complex/18.png","images/complex/15.png","images/simple/14.png,images/simple/9.png,images/simple/4.png,images/simple/3.png,images/simple/12.png,images/simple/2.png,images/simple/15.png","2","null","","200","1076.405000002822","yes","524.8049999936484","","target","",""
"","null","html-keyboard-response","278","1467077","0.0-20.0-0.32","SS1604513375352","","null","","","","","","","","","","","","<img src=images/blank.png width =""500"" height = ""500"" style=""border:5px solid black"">","","",""
"","422.72000000206754","stimulus-presentation","279","1467708","0.0-20.0-1.32","SS1604513375352","<img src='images/complex/15.png' width ='500' height = '500' style='border:5px solid black'>","40","mixed_simple_deviant","images/complex/18.png","images/complex/15.png","images/simple/14.png,images/simple/9.png,images/simple/4.png,images/simple/3.png,images/simple/12.png,images/simple/2.png,images/simple/15.png","2","null","","200","622.7200000020675","","","","background","",""
"","null","html-keyboard-response","280","1468953","0.0-20.0-0.33","SS1604513375352","","null","","","","","","","","","","","","<img src=images/blank.png width =""500"" height = ""500"" style=""border:5px solid black"">","","",""
"","257.62000000383705","stimulus-presentation","281","1469421","0.0-20.0-1.33","SS1604513375352","<img src='images/complex/15.png' width ='500' height = '500' style='border:5px solid black'>","40","mixed_simple_deviant","images/complex/18.png","images/complex/15.png","images/simple/14.png,images/simple/9.png,images/simple/4.png,images/simple/3.png,images/simple/12.png,images/simple/2.png,images/simple/15.png","2","null","","200","457.62000000383705","","","","background","",""
"","null","html-keyboard-response","282","1470642","0.0-20.0-0.34","SS1604513375352","","null","","","","","","","","","","","","<img src=images/blank.png width =""500"" height = ""500"" style=""border:5px solid black"">","","",""
