"view_history","rt","trial_type","trial_index","time_elapsed","internal_node_id","subject","trial_stimulus","key_press","task_type","task_target_stimulus","task_background_stimulus","task_deviant_stimuli","task_order_number","block_order_number","trial_order_number","minimum_viewing_duration","trial_looking_time","trial_pressed_space_bar","trial_space_bar_rt","stimulus","trial_stimulus_type","responses","question_order"
"[{""page_index"":0,""viewing_time"":3473.9999999292195}]","3474.999999976717","instructions","0","3491","0.0-0.0","SS1604513263693","","","","","","","","","","","","","","","","",""
"[{""page_index"":0,""viewing_time"":15927.999999956228},{""page_index"":1,""viewing_time"":5360.0000001024455},{""page_index"":2,""viewing_time"":1750},{""page_index"":3,""viewing_time"":2888.9999999664724},{""page_index"":4,""viewing_time"":1429.9999999348074},{""page_index"":5,""viewing_time"":1840.000000083819},{""page_index"":6,""viewing_time"":1761.9999999878928},{""page_index"":7,""viewing_time"":2797.999999951571},{""page_index"":8,""viewing_time"":1040.000000037253}]","34797.99999995157","instructions","1","38291","0.0-1.0","SS1604513263693","","","","","","","","","","","","","","","","",""
"[{""page_index"":0,""viewing_time"":2238.000000012107},{""page_index"":1,""viewing_time"":6719.99999997206},{""page_index"":2,""viewing_time"":1760.0000000093132}]","10717.99999999348","instructions","2","49010","0.0-2.0","SS1604513263693","","","","","","","","","","","","","","","","",""
"","2753.000000026077","practice-block","3","51970","0.0-3.0","SS1604513263693","<img src='images/practice/practice_background.jpeg' width ='500' height = '500' style='border:5px solid black'>","40","null","images/practice/practice_target.jpg","null","null","null","null","","200","2953.000000026077","","","","","",""
"","null","html-keyboard-response","4","53172","0.0-4.0","SS1604513263693","","null","","","","","","","","","","","","<img src=images/blank.png width =""500"" height = ""500"" style=""border:5px solid black"">","","",""
"","1155.9999999590218","practice-block","5","54531","0.0-5.0","SS1604513263693","<img src='images/practice/practice_background.jpeg' width ='500' height = '500' style='border:5px solid black'>","40","null","images/practice/practice_target.jpg","null","null","null","null","","200","1355.9999999590218","","","","","",""
"","null","html-keyboard-response","6","55822","0.0-6.0","SS1604513263693","","null","","","","","","","","","","","","<img src=images/blank.png width =""500"" height = ""500"" style=""border:5px solid black"">","","",""
"","4984.000000054948","practice-block","7","61010","0.0-7.0","SS1604513263693","<img src='images/practice/practice_deviant.jpeg' width ='500' height = '500' style='border:5px solid black'>","40","null","images/practice/practice_target.jpg","null","null","null","null","","200","5184.000000054948","","","","","",""
"","null","html-keyboard-response","8","62005","0.0-8.0","SS1604513263693","","null","","","","","","","","","","","","<img src=images/blank.png width =""500"" height = ""500"" style=""border:5px solid black"">","","",""
"","1442.9999999701977","practice-block","9","65491","0.0-9.0-0.0","SS1604513263693","<img src='images/practice/practice_target.jpg' width ='500' height = '500' style='border:5px solid black'>","40","null","images/practice/practice_target.jpg","null","null","null","null","","200","1642.9999999701977","","","","","",""
"","7074.999999953434","practice-block","10","72770","0.0-9.1-0.1","SS1604513263693","<img src='images/practice/practice_target.jpg' width ='500' height = '500' style='border:5px solid black'>","40","null","images/practice/practice_target.jpg","null","null","null","null","","200","7274.999999953434","yes","2756.000000052154","","","",""
"","null","html-keyboard-response","11","73747","0.0-10.0","SS1604513263693","","null","","","","","","","","","","","","<img src=images/blank.png width =""500"" height = ""500"" style=""border:5px solid black"">","","",""
"","1381.9999999832362","practice-block","12","75332","0.0-11.0","SS1604513263693","<img src='images/practice/practice_background.jpeg' width ='500' height = '500' style='border:5px solid black'>","40","null","images/practice/practice_target.jpg","null","null","null","null","","200","1581.9999999832362","","","","","",""
"[{""page_index"":0,""viewing_time"":1276}]","1276","task-instructions","13","76610","0.0-12.0","SS1604513263693","","","","","","","","","","","","","","","","",""
"[{""page_index"":0,""viewing_time"":1599.0000000456348},{""page_index"":1,""viewing_time"":5518.999999971129},{""page_index"":2,""viewing_time"":1440.000000060536}]","8559.000000008382","instructions","14","85171","0.0-13.0","SS1604513263693","","","","","","","","","","","","","","","","",""
"","null","html-keyboard-response","15","86023","0.0-14.0-0.0","SS1604513263693","","null","","","","","","","","","","","","<img src=images/blank.png width =""500"" height = ""500"" style=""border:5px solid black"">","","",""
"","2222.9999999981374","stimulus-presentation","16","88451","0.0-14.0-1.0","SS1604513263693","<img src='images/complex/10.png' width ='500' height = '500' style='border:5px solid black'>","40","mixed_simple_deviant","images/complex/16.png","images/complex/10.png","images/simple/8.png,images/simple/5.png,images/simple/11.png,images/simple/12.png,images/simple/3.png,images/simple/4.png,images/simple/13.png","0","null","","200","2422.9999999981374","","","","background","",""
"","null","html-keyboard-response","17","89350","0.0-14.0-0.1","SS1604513263693","","null","","","","","","","","","","","","<img src=images/blank.png width =""500"" height = ""500"" style=""border:5px solid black"">","","",""
"","2092.9999999934807","stimulus-presentation","18","91651","0.0-14.0-1.1","SS1604513263693","<img src='images/simple/5.png' width ='500' height = '500' style='border:5px solid black'>","40","mixed_simple_deviant","images/complex/16.png","images/complex/10.png","images/simple/8.png,images/simple/5.png,images/simple/11.png,images/simple/12.png,images/simple/3.png,images/simple/4.png,images/simple/13.png","0","null","","200","2292.9999999934807","","","","deviant","",""
"","null","html-keyboard-response","19","92874","0.0-14.0-0.2","SS1604513263693","","null","","","","","","","","","","","","<img src=images/blank.png width =""500"" height = ""500"" style=""border:5px solid black"">","","",""
"","1771.999999997206","stimulus-presentation","20","94850","0.0-14.0-1.2","SS1604513263693","<img src='images/complex/10.png' width ='500' height = '500' style='border:5px solid black'>","40","mixed_simple_deviant","images/complex/16.png","images/complex/10.png","images/simple/8.png,images/simple/5.png,images/simple/11.png,images/simple/12.png,images/simple/3.png,images/simple/4.png,images/simple/13.png","0","null","","200","1971.999999997206","yes","731.9999999599531","","background","",""
"","null","html-keyboard-response","21","95722","0.0-14.0-0.3","SS1604513263693","","null","","","","","","","","","","","","<img src=images/blank.png width =""500"" height = ""500"" style=""border:5px solid black"">","","",""
"","1084.000000031665","stimulus-presentation","22","97010","0.0-14.0-1.3","SS1604513263693","<img src='images/complex/10.png' width ='500' height = '500' style='border:5px solid black'>","40","mixed_simple_deviant","images/complex/16.png","images/complex/10.png","images/simple/8.png,images/simple/5.png,images/simple/11.png,images/simple/12.png,images/simple/3.png,images/simple/4.png,images/simple/13.png","0","null","","200","1284.000000031665","","","","background","",""
"","null","html-keyboard-response","23","97963","0.0-14.0-0.4","SS1604513263693","","null","","","","","","","","","","","","<img src=images/blank.png width =""500"" height = ""500"" style=""border:5px solid black"">","","",""
"","1484.9999999860302","stimulus-presentation","24","99650","0.0-14.0-1.4","SS1604513263693","<img src='images/complex/16.png' width ='500' height = '500' style='border:5px solid black'>","40","mixed_simple_deviant","images/complex/16.png","images/complex/10.png","images/simple/8.png,images/simple/5.png,images/simple/11.png,images/simple/12.png,images/simple/3.png,images/simple/4.png,images/simple/13.png","0","null","","200","1684.9999999860302","","","","target","",""
"","null","html-keyboard-response","25","100473","0.0-14.0-0.5","SS1604513263693","","null","","","","","","","","","","","","<img src=images/blank.png width =""500"" height = ""500"" style=""border:5px solid black"">","","",""
"","655.0000000279397","stimulus-presentation","26","101330","0.0-14.0-1.5","SS1604513263693","<img src='images/complex/10.png' width ='500' height = '500' style='border:5px solid black'>","40","mixed_simple_deviant","images/complex/16.png","images/complex/10.png","images/simple/8.png,images/simple/5.png,images/simple/11.png,images/simple/12.png,images/simple/3.png,images/simple/4.png,images/simple/13.png","0","null","","200","855.0000000279397","","","","background","",""
"","null","html-keyboard-response","27","102393","0.0-14.0-0.6","SS1604513263693","","null","","","","","","","","","","","","<img src=images/blank.png width =""500"" height = ""500"" style=""border:5px solid black"">","","",""
"","892.9999999236315","stimulus-presentation","28","103490","0.0-14.0-1.6","SS1604513263693","<img src='images/complex/10.png' width ='500' height = '500' style='border:5px solid black'>","40","mixed_simple_deviant","images/complex/16.png","images/complex/10.png","images/simple/8.png,images/simple/5.png,images/simple/11.png,images/simple/12.png,images/simple/3.png,images/simple/4.png,images/simple/13.png","0","null","","200","1092.9999999236315","","","","background","",""
"","null","html-keyboard-response","29","104378","0.0-14.0-0.7","SS1604513263693","","null","","","","","","","","","","","","<img src=images/blank.png width =""500"" height = ""500"" style=""border:5px solid black"">","","",""
"","844.9999999720603","stimulus-presentation","30","105430","0.0-14.0-1.7","SS1604513263693","<img src='images/complex/10.png' width ='500' height = '500' style='border:5px solid black'>","40","mixed_simple_deviant","images/complex/16.png","images/complex/10.png","images/simple/8.png,images/simple/5.png,images/simple/11.png,images/simple/12.png,images/simple/3.png,images/simple/4.png,images/simple/13.png","0","null","","200","1044.9999999720603","","","","background","",""
"","null","html-keyboard-response","31","106504","0.0-14.0-0.8","SS1604513263693","","null","","","","","","","","","","","","<img src=images/blank.png width =""500"" height = ""500"" style=""border:5px solid black"">","","",""
"","712.9999999888241","stimulus-presentation","32","107421","0.0-14.0-1.8","SS1604513263693","<img src='images/complex/10.png' width ='500' height = '500' style='border:5px solid black'>","40","mixed_simple_deviant","images/complex/16.png","images/complex/10.png","images/simple/8.png,images/simple/5.png,images/simple/11.png,images/simple/12.png,images/simple/3.png,images/simple/4.png,images/simple/13.png","0","null","","200","912.9999999888241","","","","background","",""
"","null","html-keyboard-response","33","108259","0.0-14.0-0.9","SS1604513263693","","null","","","","","","","","","","","","<img src=images/blank.png width =""500"" height = ""500"" style=""border:5px solid black"">","","",""
"","1187.999999965541","stimulus-presentation","34","109650","0.0-14.0-1.9","SS1604513263693","<img src='images/complex/10.png' width ='500' height = '500' style='border:5px solid black'>","40","mixed_simple_deviant","images/complex/16.png","images/complex/10.png","images/simple/8.png,images/simple/5.png,images/simple/11.png,images/simple/12.png,images/simple/3.png,images/simple/4.png,images/simple/13.png","0","null","","200","1387.999999965541","","","","background","",""
"","null","html-keyboard-response","35","110583","0.0-14.0-0.10","SS1604513263693","","null","","","","","","","","","","","","<img src=images/blank.png width =""500"" height = ""500"" style=""border:5px solid black"">","","",""
"","943.000000086613","stimulus-presentation","36","111730","0.0-14.0-1.10","SS1604513263693","<img src='images/complex/10.png' width ='500' height = '500' style='border:5px solid black'>","40","mixed_simple_deviant","images/complex/16.png","images/complex/10.png","images/simple/8.png,images/simple/5.png,images/simple/11.png,images/simple/12.png,images/simple/3.png,images/simple/4.png,images/simple/13.png","0","null","","200","1143.000000086613","","","","background","",""
"","null","html-keyboard-response","37","112950","0.0-14.0-0.11","SS1604513263693","","null","","","","","","","","","","","","<img src=images/blank.png width =""500"" height = ""500"" style=""border:5px solid black"">","","",""
"","896.0000000661239","stimulus-presentation","38","114050","0.0-14.0-1.11","SS1604513263693","<img src='images/complex/16.png' width ='500' height = '500' style='border:5px solid black'>","40","mixed_simple_deviant","images/complex/16.png","images/complex/10.png","images/simple/8.png,images/simple/5.png,images/simple/11.png,images/simple/12.png,images/simple/3.png,images/simple/4.png,images/simple/13.png","0","null","","200","1096.000000066124","","","","target","",""
"","null","html-keyboard-response","39","115051","0.0-14.0-0.12","SS1604513263693","","null","","","","","","","","","","","","<img src=images/blank.png width =""500"" height = ""500"" style=""border:5px solid black"">","","",""
"","184.99999993946403","stimulus-presentation","40","115440","0.0-14.0-1.12","SS1604513263693","<img src='images/simple/8.png' width ='500' height = '500' style='border:5px solid black'>","40","mixed_simple_deviant","images/complex/16.png","images/complex/10.png","images/simple/8.png,images/simple/5.png,images/simple/11.png,images/simple/12.png,images/simple/3.png,images/simple/4.png,images/simple/13.png","0","null","","200","384.99999993946403","","","","deviant","",""
"","null","html-keyboard-response","41","116394","0.0-14.0-0.13","SS1604513263693","","null","","","","","","","","","","","","<img src=images/blank.png width =""500"" height = ""500"" style=""border:5px solid black"">","","",""
"","669.9999999254942","stimulus-presentation","42","117270","0.0-14.0-1.13","SS1604513263693","<img src='images/complex/10.png' width ='500' height = '500' style='border:5px solid black'>","40","mixed_simple_deviant","images/complex/16.png","images/complex/10.png","images/simple/8.png,images/simple/5.png,images/simple/11.png,images/simple/12.png,images/simple/3.png,images/simple/4.png,images/simple/13.png","0","null","","200","869.9999999254942","","","","background","",""
"","null","html-keyboard-response","43","118524","0.0-14.0-0.14","SS1604513263693","","null","","","","","","","","","","","","<img src=images/blank.png width =""500"" height = ""500"" style=""border:5px solid black"">","","",""
"","3160.9999999636784","stimulus-presentation","44","121890","0.0-14.0-1.14","SS1604513263693","<img src='images/complex/10.png' width ='500' height = '500' style='border:5px solid black'>","40","mixed_simple_deviant","images/complex/16.png","images/complex/10.png","images/simple/8.png,images/simple/5.png,images/simple/11.png,images/simple/12.png,images/simple/3.png,images/simple/4.png,images/simple/13.png","0","null","","200","3360.9999999636784","","","","background","",""
"","null","html-keyboard-response","45","123122","0.0-14.0-0.15","SS1604513263693","","null","","","","","","","","","","","","<img src=images/blank.png width =""500"" height = ""500"" style=""border:5px solid black"">","","",""
"","2811.9999999180436","stimulus-presentation","46","126140","0.0-14.0-1.15","SS1604513263693","<img src='images/complex/10.png' width ='500' height = '500' style='border:5px solid black'>","40","mixed_simple_deviant","images/complex/16.png","images/complex/10.png","images/simple/8.png,images/simple/5.png,images/simple/11.png,images/simple/12.png,images/simple/3.png,images/simple/4.png,images/simple/13.png","0","null","","200","3011.9999999180436","","","","background","",""
"","null","html-keyboard-response","47","127249","0.0-14.0-0.16","SS1604513263693","","null","","","","","","","","","","","","<img src=images/blank.png width =""500"" height = ""500"" style=""border:5px solid black"">","","",""
"","2916.0000000847504","stimulus-presentation","48","130370","0.0-14.0-1.16","SS1604513263693","<img src='images/complex/10.png' width ='500' height = '500' style='border:5px solid black'>","40","mixed_simple_deviant","images/complex/16.png","images/complex/10.png","images/simple/8.png,images/simple/5.png,images/simple/11.png,images/simple/12.png,images/simple/3.png,images/simple/4.png,images/simple/13.png","0","null","","200","3116.0000000847504","","","","background","",""
"","null","html-keyboard-response","49","131595","0.0-14.0-0.17","SS1604513263693","","null","","","","","","","","","","","","<img src=images/blank.png width =""500"" height = ""500"" style=""border:5px solid black"">","","",""
"","1050.0000000465661","stimulus-presentation","50","132850","0.0-14.0-1.17","SS1604513263693","<img src='images/complex/10.png' width ='500' height = '500' style='border:5px solid black'>","40","mixed_simple_deviant","images/complex/16.png","images/complex/10.png","images/simple/8.png,images/simple/5.png,images/simple/11.png,images/simple/12.png,images/simple/3.png,images/simple/4.png,images/simple/13.png","0","null","","200","1250.0000000465661","","","","background","",""
"","null","html-keyboard-response","51","133913","0.0-14.0-0.18","SS1604513263693","","null","","","","","","","","","","","","<img src=images/blank.png width =""500"" height = ""500"" style=""border:5px solid black"">","","",""
"","9853.000000002794","stimulus-presentation","52","143969","0.0-14.0-1.18","SS1604513263693","<img src='images/complex/16.png' width ='500' height = '500' style='border:5px solid black'>","40","mixed_simple_deviant","images/complex/16.png","images/complex/10.png","images/simple/8.png,images/simple/5.png,images/simple/11.png,images/simple/12.png,images/simple/3.png,images/simple/4.png,images/simple/13.png","0","null","","200","10053.000000002794","","","","target","",""
"","null","html-keyboard-response","53","144863","0.0-14.0-0.19","SS1604513263693","","null","","","","","","","","","","","","<img src=images/blank.png width =""500"" height = ""500"" style=""border:5px solid black"">","","",""
"","8521.999999997206","stimulus-presentation","54","153589","0.0-14.0-1.19","SS1604513263693","<img src='images/complex/10.png' width ='500' height = '500' style='border:5px solid black'>","40","mixed_simple_deviant","images/complex/16.png","images/complex/10.png","images/simple/8.png,images/simple/5.png,images/simple/11.png,images/simple/12.png,images/simple/3.png,images/simple/4.png,images/simple/13.png","0","null","","200","8721.999999997206","","","","background","",""
"","null","html-keyboard-response","55","154786","0.0-14.0-0.20","SS1604513263693","","null","","","","","","","","","","","","<img src=images/blank.png width =""500"" height = ""500"" style=""border:5px solid black"">","","",""
"","3875.999999931082","stimulus-presentation","56","158866","0.0-14.0-1.20","SS1604513263693","<img src='images/simple/11.png' width ='500' height = '500' style='border:5px solid black'>","40","mixed_simple_deviant","images/complex/16.png","images/complex/10.png","images/simple/8.png,images/simple/5.png,images/simple/11.png,images/simple/12.png,images/simple/3.png,images/simple/4.png,images/simple/13.png","0","null","","200","4075.999999931082","","","","deviant","",""
"","null","html-keyboard-response","57","159717","0.0-14.0-0.21","SS1604513263693","","null","","","","","","","","","","","","<img src=images/blank.png width =""500"" height = ""500"" style=""border:5px solid black"">","","",""
"","21329.00000002701","stimulus-presentation","58","181251","0.0-14.0-1.21","SS1604513263693","<img src='images/complex/10.png' width ='500' height = '500' style='border:5px solid black'>","40","mixed_simple_deviant","images/complex/16.png","images/complex/10.png","images/simple/8.png,images/simple/5.png,images/simple/11.png,images/simple/12.png,images/simple/3.png,images/simple/4.png,images/simple/13.png","0","null","","200","21529.00000002701","","","","background","",""
"","null","html-keyboard-response","59","182527","0.0-14.0-0.22","SS1604513263693","","null","","","","","","","","","","","","<img src=images/blank.png width =""500"" height = ""500"" style=""border:5px solid black"">","","",""
"","10393.999999971129","stimulus-presentation","60","193126","0.0-14.0-1.22","SS1604513263693","<img src='images/complex/10.png' width ='500' height = '500' style='border:5px solid black'>","40","mixed_simple_deviant","images/complex/16.png","images/complex/10.png","images/simple/8.png,images/simple/5.png,images/simple/11.png,images/simple/12.png,images/simple/3.png,images/simple/4.png,images/simple/13.png","0","null","","200","10593.999999971129","","","","background","",""
"","null","html-keyboard-response","61","193954","0.0-14.0-0.23","SS1604513263693","","null","","","","","","","","","","","","<img src=images/blank.png width =""500"" height = ""500"" style=""border:5px solid black"">","","",""
"","3570.0000000651926","stimulus-presentation","62","197730","0.0-14.0-1.23","SS1604513263693","<img src='images/complex/10.png' width ='500' height = '500' style='border:5px solid black'>","40","mixed_simple_deviant","images/complex/16.png","images/complex/10.png","images/simple/8.png,images/simple/5.png,images/simple/11.png,images/simple/12.png,images/simple/3.png,images/simple/4.png,images/simple/13.png","0","null","","200","3770.0000000651926","","","","background","",""
"","null","html-keyboard-response","63","198681","0.0-14.0-0.24","SS1604513263693","","null","","","","","","","","","","","","<img src=images/blank.png width =""500"" height = ""500"" style=""border:5px solid black"">","","",""
"","3499.000000068918","stimulus-presentation","64","202384","0.0-14.0-1.24","SS1604513263693","<img src='images/complex/10.png' width ='500' height = '500' style='border:5px solid black'>","40","mixed_simple_deviant","images/complex/16.png","images/complex/10.png","images/simple/8.png,images/simple/5.png,images/simple/11.png,images/simple/12.png,images/simple/3.png,images/simple/4.png,images/simple/13.png","0","null","","200","3699.000000068918","","","","background","",""
"","null","html-keyboard-response","65","203479","0.0-14.0-0.25","SS1604513263693","","null","","","","","","","","","","","","<img src=images/blank.png width =""500"" height = ""500"" style=""border:5px solid black"">","","",""
"","285.9999999636784","stimulus-presentation","66","203970","0.0-14.0-1.25","SS1604513263693","<img src='images/complex/10.png' width ='500' height = '500' style='border:5px solid black'>","40","mixed_simple_deviant","images/complex/16.png","images/complex/10.png","images/simple/8.png,images/simple/5.png,images/simple/11.png,images/simple/12.png,images/simple/3.png,images/simple/4.png,images/simple/13.png","0","null","","200","485.9999999636784","","","","background","",""
"","null","html-keyboard-response","67","204828","0.0-14.0-0.26","SS1604513263693","","null","","","","","","","","","","","","<img src=images/blank.png width =""500"" height = ""500"" style=""border:5px solid black"">","","",""
"","777.9999999329448","stimulus-presentation","68","205809","0.0-14.0-1.26","SS1604513263693","<img src='images/complex/10.png' width ='500' height = '500' style='border:5px solid black'>","40","mixed_simple_deviant","images/complex/16.png","images/complex/10.png","images/simple/8.png,images/simple/5.png,images/simple/11.png,images/simple/12.png,images/simple/3.png,images/simple/4.png,images/simple/13.png","0","null","","200","977.9999999329448","","","","background","",""
"","null","html-keyboard-response","69","207101","0.0-14.0-0.27","SS1604513263693","","null","","","","","","","","","","","","<img src=images/blank.png width =""500"" height = ""500"" style=""border:5px solid black"">","","",""
"","12996.00000004284","stimulus-presentation","70","220302","0.0-14.0-1.27","SS1604513263693","<img src='images/complex/10.png' width ='500' height = '500' style='border:5px solid black'>","40","mixed_simple_deviant","images/complex/16.png","images/complex/10.png","images/simple/8.png,images/simple/5.png,images/simple/11.png,images/simple/12.png,images/simple/3.png,images/simple/4.png,images/simple/13.png","0","null","","200","13196.00000004284","","","","background","",""
"","null","html-keyboard-response","71","221134","0.0-14.0-0.28","SS1604513263693","","null","","","","","","","","","","","","<img src=images/blank.png width =""500"" height = ""500"" style=""border:5px solid black"">","","",""
"","2711.0000000102445","stimulus-presentation","72","224049","0.0-14.0-1.28","SS1604513263693","<img src='images/simple/4.png' width ='500' height = '500' style='border:5px solid black'>","40","mixed_simple_deviant","images/complex/16.png","images/complex/10.png","images/simple/8.png,images/simple/5.png,images/simple/11.png,images/simple/12.png,images/simple/3.png,images/simple/4.png,images/simple/13.png","0","null","","200","2911.0000000102445","","","","deviant","",""
"","null","html-keyboard-response","73","225101","0.0-14.0-0.29","SS1604513263693","","null","","","","","","","","","","","","<img src=images/blank.png width =""500"" height = ""500"" style=""border:5px solid black"">","","",""
"","2343.999999924563","stimulus-presentation","74","227649","0.0-14.0-1.29","SS1604513263693","<img src='images/complex/10.png' width ='500' height = '500' style='border:5px solid black'>","40","mixed_simple_deviant","images/complex/16.png","images/complex/10.png","images/simple/8.png,images/simple/5.png,images/simple/11.png,images/simple/12.png,images/simple/3.png,images/simple/4.png,images/simple/13.png","0","null","","200","2543.999999924563","","","","background","",""
"","null","html-keyboard-response","75","228710","0.0-14.0-0.30","SS1604513263693","","null","","","","","","","","","","","","<img src=images/blank.png width =""500"" height = ""500"" style=""border:5px solid black"">","","",""
"","30736.000000033528","stimulus-presentation","76","259650","0.0-14.0-1.30","SS1604513263693","<img src='images/complex/10.png' width ='500' height = '500' style='border:5px solid black'>","40","mixed_simple_deviant","images/complex/16.png","images/complex/10.png","images/simple/8.png,images/simple/5.png,images/simple/11.png,images/simple/12.png,images/simple/3.png,images/simple/4.png,images/simple/13.png","0","null","","200","30936.000000033528","","","","background","",""
"","null","html-keyboard-response","77","260730","0.0-14.0-0.31","SS1604513263693","","null","","","","","","","","","","","","<img src=images/blank.png width =""500"" height = ""500"" style=""border:5px solid black"">","","",""
"","324.00000002235174","stimulus-presentation","78","261259","0.0-14.0-1.31","SS1604513263693","<img src='images/complex/16.png' width ='500' height = '500' style='border:5px solid black'>","40","mixed_simple_deviant","images/complex/16.png","images/complex/10.png","images/simple/8.png,images/simple/5.png,images/simple/11.png,images/simple/12.png,images/simple/3.png,images/simple/4.png,images/simple/13.png","0","null","","200","524.0000000223517","","","","target","",""
"","null","html-keyboard-response","79","262078","0.0-14.0-0.32","SS1604513263693","","null","","","","","","","","","","","","<img src=images/blank.png width =""500"" height = ""500"" style=""border:5px solid black"">","","",""
"","87.99999998882413","stimulus-presentation","80","262369","0.0-14.0-1.32","SS1604513263693","<img src='images/complex/16.png' width ='500' height = '500' style='border:5px solid black'>","40","mixed_simple_deviant","images/complex/16.png","images/complex/10.png","images/simple/8.png,images/simple/5.png,images/simple/11.png,images/simple/12.png,images/simple/3.png,images/simple/4.png,images/simple/13.png","0","null","","200","287.99999998882413","","","","target","",""
"","null","html-keyboard-response","81","263594","0.0-14.0-0.33","SS1604513263693","","null","","","","","","","","","","","","<img src=images/blank.png width =""500"" height = ""500"" style=""border:5px solid black"">","","",""
"","12.000000104308128","stimulus-presentation","82","263809","0.0-14.0-1.33","SS1604513263693","<img src='images/complex/10.png' width ='500' height = '500' style='border:5px solid black'>","40","mixed_simple_deviant","images/complex/16.png","images/complex/10.png","images/simple/8.png,images/simple/5.png,images/simple/11.png,images/simple/12.png,images/simple/3.png,images/simple/4.png,images/simple/13.png","0","null","","200","212.00000010430813","","","","background","",""
"","null","html-keyboard-response","83","264805","0.0-14.0-0.34","SS1604513263693","","null","","","","","","","","","","","","<img src=images/blank.png width =""500"" height = ""500"" style=""border:5px solid black"">","","",""
"","78.99999991059303","stimulus-presentation","84","265089","0.0-14.0-1.34","SS1604513263693","<img src='images/complex/10.png' width ='500' height = '500' style='border:5px solid black'>","40","mixed_simple_deviant","images/complex/16.png","images/complex/10.png","images/simple/8.png,images/simple/5.png,images/simple/11.png,images/simple/12.png,images/simple/3.png,images/simple/4.png,images/simple/13.png","0","null","","200","278.99999991059303","","","","background","",""
"","null","html-keyboard-response","85","266186","0.0-14.0-0.35","SS1604513263693","","null","","","","","","","","","","","","<img src=images/blank.png width =""500"" height = ""500"" style=""border:5px solid black"">","","",""
"","859.000000054948","stimulus-presentation","86","267249","0.0-14.0-1.35","SS1604513263693","<img src='images/complex/10.png' width ='500' height = '500' style='border:5px solid black'>","40","mixed_simple_deviant","images/complex/16.png","images/complex/10.png","images/simple/8.png,images/simple/5.png,images/simple/11.png,images/simple/12.png,images/simple/3.png,images/simple/4.png,images/simple/13.png","0","null","","200","1059.000000054948","","","","background","",""
"","null","html-keyboard-response","87","268155","0.0-14.0-0.36","SS1604513263693","","null","","","","","","","","","","","","<img src=images/blank.png width =""500"" height = ""500"" style=""border:5px solid black"">","","",""
"","251.00000004749745","stimulus-presentation","88","268609","0.0-14.0-1.36","SS1604513263693","<img src='images/complex/10.png' width ='500' height = '500' style='border:5px solid black'>","40","mixed_simple_deviant","images/complex/16.png","images/complex/10.png","images/simple/8.png,images/simple/5.png,images/simple/11.png,images/simple/12.png,images/simple/3.png,images/simple/4.png,images/simple/13.png","0","null","","200","451.00000004749745","","","","background","",""
"","null","html-keyboard-response","89","269815","0.0-14.0-0.37","SS1604513263693","","null","","","","","","","","","","","","<img src=images/blank.png width =""500"" height = ""500"" style=""border:5px solid black"">","","",""
"","510.0000000093132","stimulus-presentation","90","270530","0.0-14.0-1.37","SS1604513263693","<img src='images/simple/13.png' width ='500' height = '500' style='border:5px solid black'>","40","mixed_simple_deviant","images/complex/16.png","images/complex/10.png","images/simple/8.png,images/simple/5.png,images/simple/11.png,images/simple/12.png,images/simple/3.png,images/simple/4.png,images/simple/13.png","0","null","","200","710.0000000093132","","","","deviant","",""
"","null","html-keyboard-response","91","271806","0.0-14.0-0.38","SS1604513263693","","null","","","","","","","","","","","","<img src=images/blank.png width =""500"" height = ""500"" style=""border:5px solid black"">","","",""
"","370.9999999264255","stimulus-presentation","92","272382","0.0-14.0-1.38","SS1604513263693","<img src='images/complex/10.png' width ='500' height = '500' style='border:5px solid black'>","40","mixed_simple_deviant","images/complex/16.png","images/complex/10.png","images/simple/8.png,images/simple/5.png,images/simple/11.png,images/simple/12.png,images/simple/3.png,images/simple/4.png,images/simple/13.png","0","null","","200","570.9999999264255","","","","background","",""
"","null","html-keyboard-response","93","273561","0.0-14.0-0.39","SS1604513263693","","null","","","","","","","","","","","","<img src=images/blank.png width =""500"" height = ""500"" style=""border:5px solid black"">","","",""
"","1402.9999999329448","stimulus-presentation","94","275170","0.0-14.0-1.39","SS1604513263693","<img src='images/complex/10.png' width ='500' height = '500' style='border:5px solid black'>","40","mixed_simple_deviant","images/complex/16.png","images/complex/10.png","images/simple/8.png,images/simple/5.png,images/simple/11.png,images/simple/12.png,images/simple/3.png,images/simple/4.png,images/simple/13.png","0","null","","200","1602.9999999329448","","","","background","",""
"","null","html-keyboard-response","95","276378","0.0-14.0-0.40","SS1604513263693","","null","","","","","","","","","","","","<img src=images/blank.png width =""500"" height = ""500"" style=""border:5px solid black"">","","",""
"","936.9999999180436","stimulus-presentation","96","277519","0.0-14.0-1.40","SS1604513263693","<img src='images/complex/10.png' width ='500' height = '500' style='border:5px solid black'>","40","mixed_simple_deviant","images/complex/16.png","images/complex/10.png","images/simple/8.png,images/simple/5.png,images/simple/11.png,images/simple/12.png,images/simple/3.png,images/simple/4.png,images/simple/13.png","0","null","","200","1136.9999999180436","","","","background","",""
"","null","html-keyboard-response","97","278751","0.0-14.0-0.41","SS1604513263693","","null","","","","","","","","","","","","<img src=images/blank.png width =""500"" height = ""500"" style=""border:5px solid black"">","","",""
"","614.9999999906868","stimulus-presentation","98","279569","0.0-14.0-1.41","SS1604513263693","<img src='images/complex/16.png' width ='500' height = '500' style='border:5px solid black'>","40","mixed_simple_deviant","images/complex/16.png","images/complex/10.png","images/simple/8.png,images/simple/5.png,images/simple/11.png,images/simple/12.png,images/simple/3.png,images/simple/4.png,images/simple/13.png","0","null","","200","814.9999999906868","","","","target","",""
"","null","html-keyboard-response","99","280689","0.0-14.0-0.42","SS1604513263693","","null","","","","","","","","","","","","<img src=images/blank.png width =""500"" height = ""500"" style=""border:5px solid black"">","","",""
"","4695.999999996275","stimulus-presentation","100","285590","0.0-14.0-1.42","SS1604513263693","<img src='images/simple/12.png' width ='500' height = '500' style='border:5px solid black'>","40","mixed_simple_deviant","images/complex/16.png","images/complex/10.png","images/simple/8.png,images/simple/5.png,images/simple/11.png,images/simple/12.png,images/simple/3.png,images/simple/4.png,images/simple/13.png","0","null","","200","4895.999999996275","","","","deviant","",""
"","null","html-keyboard-response","101","286702","0.0-14.0-0.43","SS1604513263693","","null","","","","","","","","","","","","<img src=images/blank.png width =""500"" height = ""500"" style=""border:5px solid black"">","","",""
"","902.9999999329448","stimulus-presentation","102","287809","0.0-14.0-1.43","SS1604513263693","<img src='images/complex/10.png' width ='500' height = '500' style='border:5px solid black'>","40","mixed_simple_deviant","images/complex/16.png","images/complex/10.png","images/simple/8.png,images/simple/5.png,images/simple/11.png,images/simple/12.png,images/simple/3.png,images/simple/4.png,images/simple/13.png","0","null","","200","1102.9999999329448","","","","background","",""
"","null","html-keyboard-response","103","289016","0.0-14.0-0.44","SS1604513263693","","null","","","","","","","","","","","","<img src=images/blank.png width =""500"" height = ""500"" style=""border:5px solid black"">","","",""
"","4185.9999999869615","stimulus-presentation","104","293410","0.0-14.0-1.44","SS1604513263693","<img src='images/complex/10.png' width ='500' height = '500' style='border:5px solid black'>","40","mixed_simple_deviant","images/complex/16.png","images/complex/10.png","images/simple/8.png,images/simple/5.png,images/simple/11.png,images/simple/12.png,images/simple/3.png,images/simple/4.png,images/simple/13.png","0","null","","200","4385.9999999869615","","","","background","",""
"","null","html-keyboard-response","105","294499","0.0-14.0-0.45","SS1604513263693","","null","","","","","","","","","","","","<img src=images/blank.png width =""500"" height = ""500"" style=""border:5px solid black"">","","",""
"","5675.000000046566","stimulus-presentation","106","300380","0.0-14.0-1.45","SS1604513263693","<img src='images/complex/16.png' width ='500' height = '500' style='border:5px solid black'>","40","mixed_simple_deviant","images/complex/16.png","images/complex/10.png","images/simple/8.png,images/simple/5.png,images/simple/11.png,images/simple/12.png,images/simple/3.png,images/simple/4.png,images/simple/13.png","0","null","","200","5875.000000046566","","","","target","",""
"","null","html-keyboard-response","107","301376","0.0-14.0-0.46","SS1604513263693","","null","","","","","","","","","","","","<img src=images/blank.png width =""500"" height = ""500"" style=""border:5px solid black"">","","",""
"","3902.0000000018626","stimulus-presentation","108","305489","0.0-14.0-1.46","SS1604513263693","<img src='images/simple/3.png' width ='500' height = '500' style='border:5px solid black'>","40","mixed_simple_deviant","images/complex/16.png","images/complex/10.png","images/simple/8.png,images/simple/5.png,images/simple/11.png,images/simple/12.png,images/simple/3.png,images/simple/4.png,images/simple/13.png","0","null","","200","4102.000000001863","","","","deviant","",""
"","null","html-keyboard-response","109","306297","0.0-14.0-0.47","SS1604513263693","","null","","","","","","","","","","","","<img src=images/blank.png width =""500"" height = ""500"" style=""border:5px solid black"">","","",""
"","3006.999999983236","stimulus-presentation","110","309509","0.0-14.0-1.47","SS1604513263693","<img src='images/complex/10.png' width ='500' height = '500' style='border:5px solid black'>","40","mixed_simple_deviant","images/complex/16.png","images/complex/10.png","images/simple/8.png,images/simple/5.png,images/simple/11.png,images/simple/12.png,images/simple/3.png,images/simple/4.png,images/simple/13.png","0","null","","200","3206.999999983236","","","","background","",""
"","null","html-keyboard-response","111","310515","0.0-14.0-0.48","SS1604513263693","","null","","","","","","","","","","","","<img src=images/blank.png width =""500"" height = ""500"" style=""border:5px solid black"">","","",""
"","1569.0000000176951","stimulus-presentation","112","312290","0.0-14.0-1.48","SS1604513263693","<img src='images/complex/10.png' width ='500' height = '500' style='border:5px solid black'>","40","mixed_simple_deviant","images/complex/16.png","images/complex/10.png","images/simple/8.png,images/simple/5.png,images/simple/11.png,images/simple/12.png,images/simple/3.png,images/simple/4.png,images/simple/13.png","0","null","","200","1769.0000000176951","yes","770.0000000186265","","background","",""
"[{""page_index"":0,""viewing_time"":2556}]","2556","task-instructions","113","314849","0.0-15.0","SS1604513263693","","","","","","","","","","","","","","","","",""
"[{""page_index"":0,""viewing_time"":2956.000000005588},{""page_index"":1,""viewing_time"":5521.000000066124},{""page_index"":2,""viewing_time"":1438.9999998966232}]","9917.000000015832","instructions","114","324770","0.0-16.0","SS1604513263693","","","","","","","","","","","","","","","","",""
"","null","html-keyboard-response","115","325964","0.0-17.0-0.0","SS1604513263693","","null","","","","","","","","","","","","<img src=images/blank.png width =""500"" height = ""500"" style=""border:5px solid black"">","","",""
"","1478.999999933876","stimulus-presentation","116","327649","0.0-17.0-1.0","SS1604513263693","<img src='images/complex/9.png' width ='500' height = '500' style='border:5px solid black'>","40","mixed_complex_deviant","images/simple/15.png","images/simple/14.png","images/complex/6.png,images/complex/15.png,images/complex/8.png,images/complex/9.png,images/complex/5.png,images/complex/14.png,images/complex/7.png","1","null","","200","1678.999999933876","","","","deviant","",""
"","null","html-keyboard-response","117","328612","0.0-17.0-0.1","SS1604513263693","","null","","","","","","","","","","","","<img src=images/blank.png width =""500"" height = ""500"" style=""border:5px solid black"">","","",""
"","751.9999999785796","stimulus-presentation","118","329569","0.0-17.0-1.1","SS1604513263693","<img src='images/simple/14.png' width ='500' height = '500' style='border:5px solid black'>","40","mixed_complex_deviant","images/simple/15.png","images/simple/14.png","images/complex/6.png,images/complex/15.png,images/complex/8.png,images/complex/9.png,images/complex/5.png,images/complex/14.png,images/complex/7.png","1","null","","200","951.9999999785796","","","","background","",""
"","null","html-keyboard-response","119","330540","0.0-17.0-0.2","SS1604513263693","","null","","","","","","","","","","","","<img src=images/blank.png width =""500"" height = ""500"" style=""border:5px solid black"">","","",""
"","1074.0000000223517","stimulus-presentation","120","331819","0.0-17.0-1.2","SS1604513263693","<img src='images/simple/14.png' width ='500' height = '500' style='border:5px solid black'>","40","mixed_complex_deviant","images/simple/15.png","images/simple/14.png","images/complex/6.png,images/complex/15.png,images/complex/8.png,images/complex/9.png,images/complex/5.png,images/complex/14.png,images/complex/7.png","1","null","","200","1274.0000000223517","","","","background","",""
"","null","html-keyboard-response","121","333067","0.0-17.0-0.3","SS1604513263693","","null","","","","","","","","","","","","<img src=images/blank.png width =""500"" height = ""500"" style=""border:5px solid black"">","","",""
"","1738.0000000121072","stimulus-presentation","122","335009","0.0-17.0-1.3","SS1604513263693","<img src='images/simple/14.png' width ='500' height = '500' style='border:5px solid black'>","40","mixed_complex_deviant","images/simple/15.png","images/simple/14.png","images/complex/6.png,images/complex/15.png,images/complex/8.png,images/complex/9.png,images/complex/5.png,images/complex/14.png,images/complex/7.png","1","null","","200","1938.0000000121072","","","","background","",""
"","null","html-keyboard-response","123","335870","0.0-17.0-0.4","SS1604513263693","","null","","","","","","","","","","","","<img src=images/blank.png width =""500"" height = ""500"" style=""border:5px solid black"">","","",""
"","2053.000000072643","stimulus-presentation","124","338129","0.0-17.0-1.4","SS1604513263693","<img src='images/complex/7.png' width ='500' height = '500' style='border:5px solid black'>","40","mixed_complex_deviant","images/simple/15.png","images/simple/14.png","images/complex/6.png,images/complex/15.png,images/complex/8.png,images/complex/9.png,images/complex/5.png,images/complex/14.png,images/complex/7.png","1","null","","200","2253.000000072643","","","","deviant","",""
"","null","html-keyboard-response","125","339318","0.0-17.0-0.5","SS1604513263693","","null","","","","","","","","","","","","<img src=images/blank.png width =""500"" height = ""500"" style=""border:5px solid black"">","","",""
"","2854.9999999813735","stimulus-presentation","126","342379","0.0-17.0-1.5","SS1604513263693","<img src='images/simple/14.png' width ='500' height = '500' style='border:5px solid black'>","40","mixed_complex_deviant","images/simple/15.png","images/simple/14.png","images/complex/6.png,images/complex/15.png,images/complex/8.png,images/complex/9.png,images/complex/5.png,images/complex/14.png,images/complex/7.png","1","null","","200","3054.9999999813735","","","","background","",""
"","null","html-keyboard-response","127","343565","0.0-17.0-0.6","SS1604513263693","","null","","","","","","","","","","","","<img src=images/blank.png width =""500"" height = ""500"" style=""border:5px solid black"">","","",""
"","1408.0000000540167","stimulus-presentation","128","345179","0.0-17.0-1.6","SS1604513263693","<img src='images/simple/15.png' width ='500' height = '500' style='border:5px solid black'>","40","mixed_complex_deviant","images/simple/15.png","images/simple/14.png","images/complex/6.png,images/complex/15.png,images/complex/8.png,images/complex/9.png,images/complex/5.png,images/complex/14.png,images/complex/7.png","1","null","","200","1608.0000000540167","","","","target","",""
"","null","html-keyboard-response","129","346441","0.0-17.0-0.7","SS1604513263693","","null","","","","","","","","","","","","<img src=images/blank.png width =""500"" height = ""500"" style=""border:5px solid black"">","","",""
"","611.9999999646097","stimulus-presentation","130","347259","0.0-17.0-1.7","SS1604513263693","<img src='images/simple/14.png' width ='500' height = '500' style='border:5px solid black'>","40","mixed_complex_deviant","images/simple/15.png","images/simple/14.png","images/complex/6.png,images/complex/15.png,images/complex/8.png,images/complex/9.png,images/complex/5.png,images/complex/14.png,images/complex/7.png","1","null","","200","811.9999999646097","","","","background","",""
"","null","html-keyboard-response","131","348488","0.0-17.0-0.8","SS1604513263693","","null","","","","","","","","","","","","<img src=images/blank.png width =""500"" height = ""500"" style=""border:5px solid black"">","","",""
"","716.9999999459833","stimulus-presentation","132","349410","0.0-17.0-1.8","SS1604513263693","<img src='images/simple/15.png' width ='500' height = '500' style='border:5px solid black'>","40","mixed_complex_deviant","images/simple/15.png","images/simple/14.png","images/complex/6.png,images/complex/15.png,images/complex/8.png,images/complex/9.png,images/complex/5.png,images/complex/14.png,images/complex/7.png","1","null","","200","916.9999999459833","","","","target","",""
"","null","html-keyboard-response","133","350263","0.0-17.0-0.9","SS1604513263693","","null","","","","","","","","","","","","<img src=images/blank.png width =""500"" height = ""500"" style=""border:5px solid black"">","","",""
"","59.0000000083819","stimulus-presentation","134","350529","0.0-17.0-1.9","SS1604513263693","<img src='images/complex/14.png' width ='500' height = '500' style='border:5px solid black'>","40","mixed_complex_deviant","images/simple/15.png","images/simple/14.png","images/complex/6.png,images/complex/15.png,images/complex/8.png,images/complex/9.png,images/complex/5.png,images/complex/14.png,images/complex/7.png","1","null","","200","259.0000000083819","","","","deviant","",""
"","null","html-keyboard-response","135","351578","0.0-17.0-0.10","SS1604513263693","","null","","","","","","","","","","","","<img src=images/blank.png width =""500"" height = ""500"" style=""border:5px solid black"">","","",""
"","2587.000000057742","stimulus-presentation","136","354370","0.0-17.0-1.10","SS1604513263693","<img src='images/simple/14.png' width ='500' height = '500' style='border:5px solid black'>","40","mixed_complex_deviant","images/simple/15.png","images/simple/14.png","images/complex/6.png,images/complex/15.png,images/complex/8.png,images/complex/9.png,images/complex/5.png,images/complex/14.png,images/complex/7.png","1","null","","200","2787.000000057742","","","","background","",""
"","null","html-keyboard-response","137","355362","0.0-17.0-0.11","SS1604513263693","","null","","","","","","","","","","","","<img src=images/blank.png width =""500"" height = ""500"" style=""border:5px solid black"">","","",""
"","1131.000000052154","stimulus-presentation","138","356699","0.0-17.0-1.11","SS1604513263693","<img src='images/simple/14.png' width ='500' height = '500' style='border:5px solid black'>","40","mixed_complex_deviant","images/simple/15.png","images/simple/14.png","images/complex/6.png,images/complex/15.png,images/complex/8.png,images/complex/9.png,images/complex/5.png,images/complex/14.png,images/complex/7.png","1","null","","200","1331.000000052154","","","","background","",""
"","null","html-keyboard-response","139","357589","0.0-17.0-0.12","SS1604513263693","","null","","","","","","","","","","","","<img src=images/blank.png width =""500"" height = ""500"" style=""border:5px solid black"">","","",""
"","2892.9999999236315","stimulus-presentation","140","360689","0.0-17.0-1.12","SS1604513263693","<img src='images/simple/14.png' width ='500' height = '500' style='border:5px solid black'>","40","mixed_complex_deviant","images/simple/15.png","images/simple/14.png","images/complex/6.png,images/complex/15.png,images/complex/8.png,images/complex/9.png,images/complex/5.png,images/complex/14.png,images/complex/7.png","1","null","","200","3092.9999999236315","","","","background","",""
"","null","html-keyboard-response","141","361947","0.0-17.0-0.13","SS1604513263693","","null","","","","","","","","","","","","<img src=images/blank.png width =""500"" height = ""500"" style=""border:5px solid black"">","","",""
"","1591.0000000149012","stimulus-presentation","142","363744","0.0-17.0-1.13","SS1604513263693","<img src='images/simple/14.png' width ='500' height = '500' style='border:5px solid black'>","40","mixed_complex_deviant","images/simple/15.png","images/simple/14.png","images/complex/6.png,images/complex/15.png,images/complex/8.png,images/complex/9.png,images/complex/5.png,images/complex/14.png,images/complex/7.png","1","null","","200","1791.0000000149012","","","","background","",""
"","null","html-keyboard-response","143","364907","0.0-17.0-0.14","SS1604513263693","","null","","","","","","","","","","","","<img src=images/blank.png width =""500"" height = ""500"" style=""border:5px solid black"">","","",""
"","67.00000003911555","stimulus-presentation","144","365180","0.0-17.0-1.14","SS1604513263693","<img src='images/simple/14.png' width ='500' height = '500' style='border:5px solid black'>","40","mixed_complex_deviant","images/simple/15.png","images/simple/14.png","images/complex/6.png,images/complex/15.png,images/complex/8.png,images/complex/9.png,images/complex/5.png,images/complex/14.png,images/complex/7.png","1","null","","200","267.00000003911555","","","","background","",""
"","null","html-keyboard-response","145","366183","0.0-17.0-0.15","SS1604513263693","","null","","","","","","","","","","","","<img src=images/blank.png width =""500"" height = ""500"" style=""border:5px solid black"">","","",""
"","460.0000000791624","stimulus-presentation","146","366849","0.0-17.0-1.15","SS1604513263693","<img src='images/simple/14.png' width ='500' height = '500' style='border:5px solid black'>","40","mixed_complex_deviant","images/simple/15.png","images/simple/14.png","images/complex/6.png,images/complex/15.png,images/complex/8.png,images/complex/9.png,images/complex/5.png,images/complex/14.png,images/complex/7.png","1","null","","200","660.0000000791624","","","","background","",""
"","null","html-keyboard-response","147","368117","0.0-17.0-0.16","SS1604513263693","","null","","","","","","","","","","","","<img src=images/blank.png width =""500"" height = ""500"" style=""border:5px solid black"">","","",""
"","126.00000004749745","stimulus-presentation","148","368449","0.0-17.0-1.16","SS1604513263693","<img src='images/simple/15.png' width ='500' height = '500' style='border:5px solid black'>","40","mixed_complex_deviant","images/simple/15.png","images/simple/14.png","images/complex/6.png,images/complex/15.png,images/complex/8.png,images/complex/9.png,images/complex/5.png,images/complex/14.png,images/complex/7.png","1","null","","200","326.00000004749745","","","","target","",""
"","null","html-keyboard-response","149","369700","0.0-17.0-0.17","SS1604513263693","","null","","","","","","","","","","","","<img src=images/blank.png width =""500"" height = ""500"" style=""border:5px solid black"">","","",""
"","793.9999999944121","stimulus-presentation","150","370699","0.0-17.0-1.17","SS1604513263693","<img src='images/complex/8.png' width ='500' height = '500' style='border:5px solid black'>","40","mixed_complex_deviant","images/simple/15.png","images/simple/14.png","images/complex/6.png,images/complex/15.png,images/complex/8.png,images/complex/9.png,images/complex/5.png,images/complex/14.png,images/complex/7.png","1","null","","200","993.9999999944121","","","","deviant","",""
"","null","html-keyboard-response","151","371859","0.0-17.0-0.18","SS1604513263693","","null","","","","","","","","","","","","<img src=images/blank.png width =""500"" height = ""500"" style=""border:5px solid black"">","","",""
"","1743.999999947846","stimulus-presentation","152","373809","0.0-17.0-1.18","SS1604513263693","<img src='images/simple/15.png' width ='500' height = '500' style='border:5px solid black'>","40","mixed_complex_deviant","images/simple/15.png","images/simple/14.png","images/complex/6.png,images/complex/15.png,images/complex/8.png,images/complex/9.png,images/complex/5.png,images/complex/14.png,images/complex/7.png","1","null","","200","1943.999999947846","","","","target","",""
"","null","html-keyboard-response","153","374999","0.0-17.0-0.19","SS1604513263693","","null","","","","","","","","","","","","<img src=images/blank.png width =""500"" height = ""500"" style=""border:5px solid black"">","","",""
"","525.0000000232831","stimulus-presentation","154","375730","0.0-17.0-1.19","SS1604513263693","<img src='images/simple/14.png' width ='500' height = '500' style='border:5px solid black'>","40","mixed_complex_deviant","images/simple/15.png","images/simple/14.png","images/complex/6.png,images/complex/15.png,images/complex/8.png,images/complex/9.png,images/complex/5.png,images/complex/14.png,images/complex/7.png","1","null","","200","725.0000000232831","","","","background","",""
"","null","html-keyboard-response","155","376954","0.0-17.0-0.20","SS1604513263693","","null","","","","","","","","","","","","<img src=images/blank.png width =""500"" height = ""500"" style=""border:5px solid black"">","","",""
"","591.0000000149012","stimulus-presentation","156","377749","0.0-17.0-1.20","SS1604513263693","<img src='images/simple/14.png' width ='500' height = '500' style='border:5px solid black'>","40","mixed_complex_deviant","images/simple/15.png","images/simple/14.png","images/complex/6.png,images/complex/15.png,images/complex/8.png,images/complex/9.png,images/complex/5.png,images/complex/14.png,images/complex/7.png","1","null","","200","791.0000000149012","","","","background","",""
"","null","html-keyboard-response","157","378601","0.0-17.0-0.21","SS1604513263693","","null","","","","","","","","","","","","<img src=images/blank.png width =""500"" height = ""500"" style=""border:5px solid black"">","","",""
"","15251.99999997858","stimulus-presentation","158","394059","0.0-17.0-1.21","SS1604513263693","<img src='images/simple/14.png' width ='500' height = '500' style='border:5px solid black'>","40","mixed_complex_deviant","images/simple/15.png","images/simple/14.png","images/complex/6.png,images/complex/15.png,images/complex/8.png,images/complex/9.png,images/complex/5.png,images/complex/14.png,images/complex/7.png","1","null","","200","15451.99999997858","","","","background","",""
"","null","html-keyboard-response","159","394939","0.0-17.0-0.22","SS1604513263693","","null","","","","","","","","","","","","<img src=images/blank.png width =""500"" height = ""500"" style=""border:5px solid black"">","","",""
"","25.999999954365194","stimulus-presentation","160","395169","0.0-17.0-1.22","SS1604513263693","<img src='images/simple/15.png' width ='500' height = '500' style='border:5px solid black'>","40","mixed_complex_deviant","images/simple/15.png","images/simple/14.png","images/complex/6.png,images/complex/15.png,images/complex/8.png,images/complex/9.png,images/complex/5.png,images/complex/14.png,images/complex/7.png","1","null","","200","225.9999999543652","","","","target","",""
"","null","html-keyboard-response","161","396055","0.0-17.0-0.23","SS1604513263693","","null","","","","","","","","","","","","<img src=images/blank.png width =""500"" height = ""500"" style=""border:5px solid black"">","","",""
"","349.0000000456348","stimulus-presentation","162","396609","0.0-17.0-1.23","SS1604513263693","<img src='images/simple/14.png' width ='500' height = '500' style='border:5px solid black'>","40","mixed_complex_deviant","images/simple/15.png","images/simple/14.png","images/complex/6.png,images/complex/15.png,images/complex/8.png,images/complex/9.png,images/complex/5.png,images/complex/14.png,images/complex/7.png","1","null","","200","549.0000000456348","","","","background","",""
"","null","html-keyboard-response","163","397706","0.0-17.0-0.24","SS1604513263693","","null","","","","","","","","","","","","<img src=images/blank.png width =""500"" height = ""500"" style=""border:5px solid black"">","","",""
"","55.99999998230487","stimulus-presentation","164","397969","0.0-17.0-1.24","SS1604513263693","<img src='images/complex/5.png' width ='500' height = '500' style='border:5px solid black'>","40","mixed_complex_deviant","images/simple/15.png","images/simple/14.png","images/complex/6.png,images/complex/15.png,images/complex/8.png,images/complex/9.png,images/complex/5.png,images/complex/14.png,images/complex/7.png","1","null","","200","255.99999998230487","","","","deviant","",""
"","null","html-keyboard-response","165","399162","0.0-17.0-0.25","SS1604513263693","","null","","","","","","","","","","","","<img src=images/blank.png width =""500"" height = ""500"" style=""border:5px solid black"">","","",""
"","33.99999998509884","stimulus-presentation","166","399409","0.0-17.0-1.25","SS1604513263693","<img src='images/simple/14.png' width ='500' height = '500' style='border:5px solid black'>","40","mixed_complex_deviant","images/simple/15.png","images/simple/14.png","images/complex/6.png,images/complex/15.png,images/complex/8.png,images/complex/9.png,images/complex/5.png,images/complex/14.png,images/complex/7.png","1","null","","200","233.99999998509884","","","","background","",""
"","null","html-keyboard-response","167","400225","0.0-17.0-0.26","SS1604513263693","","null","","","","","","","","","","","","<img src=images/blank.png width =""500"" height = ""500"" style=""border:5px solid black"">","","",""
"","177.0000000251457","stimulus-presentation","168","400609","0.0-17.0-1.26","SS1604513263693","<img src='images/simple/14.png' width ='500' height = '500' style='border:5px solid black'>","40","mixed_complex_deviant","images/simple/15.png","images/simple/14.png","images/complex/6.png,images/complex/15.png,images/complex/8.png,images/complex/9.png,images/complex/5.png,images/complex/14.png,images/complex/7.png","1","null","","200","377.0000000251457","","","","background","",""
"","null","html-keyboard-response","169","401677","0.0-17.0-0.27","SS1604513263693","","null","","","","","","","","","","","","<img src=images/blank.png width =""500"" height = ""500"" style=""border:5px solid black"">","","",""
"","1126.9999999785796","stimulus-presentation","170","403009","0.0-17.0-1.27","SS1604513263693","<img src='images/simple/14.png' width ='500' height = '500' style='border:5px solid black'>","40","mixed_complex_deviant","images/simple/15.png","images/simple/14.png","images/complex/6.png,images/complex/15.png,images/complex/8.png,images/complex/9.png,images/complex/5.png,images/complex/14.png,images/complex/7.png","1","null","","200","1326.9999999785796","","","","background","",""
"","null","html-keyboard-response","171","403847","0.0-17.0-0.28","SS1604513263693","","null","","","","","","","","","","","","<img src=images/blank.png width =""500"" height = ""500"" style=""border:5px solid black"">","","",""
"","738.0000000121072","stimulus-presentation","172","404790","0.0-17.0-1.28","SS1604513263693","<img src='images/simple/14.png' width ='500' height = '500' style='border:5px solid black'>","40","mixed_complex_deviant","images/simple/15.png","images/simple/14.png","images/complex/6.png,images/complex/15.png,images/complex/8.png,images/complex/9.png,images/complex/5.png,images/complex/14.png,images/complex/7.png","1","null","","200","938.0000000121072","","","","background","",""
"","null","html-keyboard-response","173","406004","0.0-17.0-0.29","SS1604513263693","","null","","","","","","","","","","","","<img src=images/blank.png width =""500"" height = ""500"" style=""border:5px solid black"">","","",""
"","1.0000000474974513","stimulus-presentation","174","406209","0.0-17.0-1.29","SS1604513263693","<img src='images/simple/14.png' width ='500' height = '500' style='border:5px solid black'>","40","mixed_complex_deviant","images/simple/15.png","images/simple/14.png","images/complex/6.png,images/complex/15.png,images/complex/8.png,images/complex/9.png,images/complex/5.png,images/complex/14.png,images/complex/7.png","1","null","","200","201.00000004749745","","","","background","",""
"","null","html-keyboard-response","175","407049","0.0-17.0-0.30","SS1604513263693","","null","","","","","","","","","","","","<img src=images/blank.png width =""500"" height = ""500"" style=""border:5px solid black"">","","",""
"","713.9999999199063","stimulus-presentation","176","407968","0.0-17.0-1.30","SS1604513263693","<img src='images/simple/14.png' width ='500' height = '500' style='border:5px solid black'>","40","mixed_complex_deviant","images/simple/15.png","images/simple/14.png","images/complex/6.png,images/complex/15.png,images/complex/8.png,images/complex/9.png,images/complex/5.png,images/complex/14.png,images/complex/7.png","1","null","","200","913.9999999199063","","","","background","",""
"","null","html-keyboard-response","177","409269","0.0-17.0-0.31","SS1604513263693","","null","","","","","","","","","","","","<img src=images/blank.png width =""500"" height = ""500"" style=""border:5px solid black"">","","",""
"","334.00000003166497","stimulus-presentation","178","409809","0.0-17.0-1.31","SS1604513263693","<img src='images/simple/14.png' width ='500' height = '500' style='border:5px solid black'>","40","mixed_complex_deviant","images/simple/15.png","images/simple/14.png","images/complex/6.png,images/complex/15.png,images/complex/8.png,images/complex/9.png,images/complex/5.png,images/complex/14.png,images/complex/7.png","1","null","","200","534.000000031665","","","","background","",""
"","null","html-keyboard-response","179","410799","0.0-17.0-0.32","SS1604513263693","","null","","","","","","","","","","","","<img src=images/blank.png width =""500"" height = ""500"" style=""border:5px solid black"">","","",""
"","2347.9999999981374","stimulus-presentation","180","413354","0.0-17.0-1.32","SS1604513263693","<img src='images/simple/15.png' width ='500' height = '500' style='border:5px solid black'>","40","mixed_complex_deviant","images/simple/15.png","images/simple/14.png","images/complex/6.png,images/complex/15.png,images/complex/8.png,images/complex/9.png,images/complex/5.png,images/complex/14.png,images/complex/7.png","1","null","","200","2547.9999999981374","","","","target","",""
"","null","html-keyboard-response","181","414549","0.0-17.0-0.33","SS1604513263693","","null","","","","","","","","","","","","<img src=images/blank.png width =""500"" height = ""500"" style=""border:5px solid black"">","","",""
"","265.99999994505197","stimulus-presentation","182","415021","0.0-17.0-1.33","SS1604513263693","<img src='images/simple/14.png' width ='500' height = '500' style='border:5px solid black'>","40","mixed_complex_deviant","images/simple/15.png","images/simple/14.png","images/complex/6.png,images/complex/15.png,images/complex/8.png,images/complex/9.png,images/complex/5.png,images/complex/14.png,images/complex/7.png","1","null","","200","465.99999994505197","","","","background","",""
"","null","html-keyboard-response","183","416127","0.0-17.0-0.34","SS1604513263693","","null","","","","","","","","","","","","<img src=images/blank.png width =""500"" height = ""500"" style=""border:5px solid black"">","","",""
"","355.9999999124557","stimulus-presentation","184","416689","0.0-17.0-1.34","SS1604513263693","<img src='images/simple/14.png' width ='500' height = '500' style='border:5px solid black'>","40","mixed_complex_deviant","images/simple/15.png","images/simple/14.png","images/complex/6.png,images/complex/15.png,images/complex/8.png,images/complex/9.png,images/complex/5.png,images/complex/14.png,images/complex/7.png","1","null","","200","555.9999999124557","","","","background","",""
"","null","html-keyboard-response","185","417770","0.0-17.0-0.35","SS1604513263693","","null","","","","","","","","","","","","<img src=images/blank.png width =""500"" height = ""500"" style=""border:5px solid black"">","","",""
"","5052.000000025146","stimulus-presentation","186","423029","0.0-17.0-1.35","SS1604513263693","<img src='images/simple/15.png' width ='500' height = '500' style='border:5px solid black'>","40","mixed_complex_deviant","images/simple/15.png","images/simple/14.png","images/complex/6.png,images/complex/15.png,images/complex/8.png,images/complex/9.png,images/complex/5.png,images/complex/14.png,images/complex/7.png","1","null","","200","5252.000000025146","","","","target","",""
"","null","html-keyboard-response","187","424063","0.0-17.0-0.36","SS1604513263693","","null","","","","","","","","","","","","<img src=images/blank.png width =""500"" height = ""500"" style=""border:5px solid black"">","","",""
"","832.0000000530854","stimulus-presentation","188","425099","0.0-17.0-1.36","SS1604513263693","<img src='images/complex/6.png' width ='500' height = '500' style='border:5px solid black'>","40","mixed_complex_deviant","images/simple/15.png","images/simple/14.png","images/complex/6.png,images/complex/15.png,images/complex/8.png,images/complex/9.png,images/complex/5.png,images/complex/14.png,images/complex/7.png","1","null","","200","1032.0000000530854","","","","deviant","",""
"","null","html-keyboard-response","189","426383","0.0-17.0-0.37","SS1604513263693","","null","","","","","","","","","","","","<img src=images/blank.png width =""500"" height = ""500"" style=""border:5px solid black"">","","",""
"","1060.9999999869615","stimulus-presentation","190","427650","0.0-17.0-1.37","SS1604513263693","<img src='images/simple/14.png' width ='500' height = '500' style='border:5px solid black'>","40","mixed_complex_deviant","images/simple/15.png","images/simple/14.png","images/complex/6.png,images/complex/15.png,images/complex/8.png,images/complex/9.png,images/complex/5.png,images/complex/14.png,images/complex/7.png","1","null","","200","1260.9999999869615","","","","background","",""
"","null","html-keyboard-response","191","428531","0.0-17.0-0.38","SS1604513263693","","null","","","","","","","","","","","","<img src=images/blank.png width =""500"" height = ""500"" style=""border:5px solid black"">","","",""
"","2991.000000038184","stimulus-presentation","192","431730","0.0-17.0-1.38","SS1604513263693","<img src='images/simple/14.png' width ='500' height = '500' style='border:5px solid black'>","40","mixed_complex_deviant","images/simple/15.png","images/simple/14.png","images/complex/6.png,images/complex/15.png,images/complex/8.png,images/complex/9.png,images/complex/5.png,images/complex/14.png,images/complex/7.png","1","null","","200","3191.000000038184","","","","background","",""
"","null","html-keyboard-response","193","432821","0.0-17.0-0.39","SS1604513263693","","null","","","","","","","","","","","","<img src=images/blank.png width =""500"" height = ""500"" style=""border:5px solid black"">","","",""
"","701.9999999320135","stimulus-presentation","194","433730","0.0-17.0-1.39","SS1604513263693","<img src='images/simple/14.png' width ='500' height = '500' style='border:5px solid black'>","40","mixed_complex_deviant","images/simple/15.png","images/simple/14.png","images/complex/6.png,images/complex/15.png,images/complex/8.png,images/complex/9.png,images/complex/5.png,images/complex/14.png,images/complex/7.png","1","null","","200","901.9999999320135","","","","background","",""
"","null","html-keyboard-response","195","434942","0.0-17.0-0.40","SS1604513263693","","null","","","","","","","","","","","","<img src=images/blank.png width =""500"" height = ""500"" style=""border:5px solid black"">","","",""
"","1472.9999999981374","stimulus-presentation","196","436621","0.0-17.0-1.40","SS1604513263693","<img src='images/simple/14.png' width ='500' height = '500' style='border:5px solid black'>","40","mixed_complex_deviant","images/simple/15.png","images/simple/14.png","images/complex/6.png,images/complex/15.png,images/complex/8.png,images/complex/9.png,images/complex/5.png,images/complex/14.png,images/complex/7.png","1","null","","200","1672.9999999981374","","","","background","",""
"","null","html-keyboard-response","197","437821","0.0-17.0-0.41","SS1604513263693","","null","","","","","","","","","","","","<img src=images/blank.png width =""500"" height = ""500"" style=""border:5px solid black"">","","",""
"","15562.999999965541","stimulus-presentation","198","453590","0.0-17.0-1.41","SS1604513263693","<img src='images/simple/14.png' width ='500' height = '500' style='border:5px solid black'>","40","mixed_complex_deviant","images/simple/15.png","images/simple/14.png","images/complex/6.png,images/complex/15.png,images/complex/8.png,images/complex/9.png,images/complex/5.png,images/complex/14.png,images/complex/7.png","1","null","","200","15762.999999965541","","","","background","",""
"","null","html-keyboard-response","199","454533","0.0-17.0-0.42","SS1604513263693","","null","","","","","","","","","","","","<img src=images/blank.png width =""500"" height = ""500"" style=""border:5px solid black"">","","",""
"","510.0000000093132","stimulus-presentation","200","455250","0.0-17.0-1.42","SS1604513263693","<img src='images/simple/14.png' width ='500' height = '500' style='border:5px solid black'>","40","mixed_complex_deviant","images/simple/15.png","images/simple/14.png","images/complex/6.png,images/complex/15.png,images/complex/8.png,images/complex/9.png,images/complex/5.png,images/complex/14.png,images/complex/7.png","1","null","","200","710.0000000093132","","","","background","",""
"","null","html-keyboard-response","201","456441","0.0-17.0-0.43","SS1604513263693","","null","","","","","","","","","","","","<img src=images/blank.png width =""500"" height = ""500"" style=""border:5px solid black"">","","",""
"","14205.000000074506","stimulus-presentation","202","470860","0.0-17.0-1.43","SS1604513263693","<img src='images/simple/14.png' width ='500' height = '500' style='border:5px solid black'>","40","mixed_complex_deviant","images/simple/15.png","images/simple/14.png","images/complex/6.png,images/complex/15.png,images/complex/8.png,images/complex/9.png,images/complex/5.png,images/complex/14.png,images/complex/7.png","1","null","","200","14405.000000074506","","","","background","",""
"","null","html-keyboard-response","203","472033","0.0-17.0-0.44","SS1604513263693","","null","","","","","","","","","","","","<img src=images/blank.png width =""500"" height = ""500"" style=""border:5px solid black"">","","",""
"","526.0000000707805","stimulus-presentation","204","472770","0.0-17.0-1.44","SS1604513263693","<img src='images/simple/14.png' width ='500' height = '500' style='border:5px solid black'>","40","mixed_complex_deviant","images/simple/15.png","images/simple/14.png","images/complex/6.png,images/complex/15.png,images/complex/8.png,images/complex/9.png,images/complex/5.png,images/complex/14.png,images/complex/7.png","1","null","","200","726.0000000707805","","","","background","",""
"","null","html-keyboard-response","205","473954","0.0-17.0-0.45","SS1604513263693","","null","","","","","","","","","","","","<img src=images/blank.png width =""500"" height = ""500"" style=""border:5px solid black"">","","",""
"","13900.000000023283","stimulus-presentation","206","488059","0.0-17.0-1.45","SS1604513263693","<img src='images/complex/15.png' width ='500' height = '500' style='border:5px solid black'>","40","mixed_complex_deviant","images/simple/15.png","images/simple/14.png","images/complex/6.png,images/complex/15.png,images/complex/8.png,images/complex/9.png,images/complex/5.png,images/complex/14.png,images/complex/7.png","1","null","","200","14100.000000023283","","","","deviant","",""
"","null","html-keyboard-response","207","489010","0.0-17.0-0.46","SS1604513263693","","null","","","","","","","","","","","","<img src=images/blank.png width =""500"" height = ""500"" style=""border:5px solid black"">","","",""
"","830.0000000745058","stimulus-presentation","208","490048","0.0-17.0-1.46","SS1604513263693","<img src='images/simple/14.png' width ='500' height = '500' style='border:5px solid black'>","40","mixed_complex_deviant","images/simple/15.png","images/simple/14.png","images/complex/6.png,images/complex/15.png,images/complex/8.png,images/complex/9.png,images/complex/5.png,images/complex/14.png,images/complex/7.png","1","null","","200","1030.0000000745058","","","","background","",""
"","null","html-keyboard-response","209","490905","0.0-17.0-0.47","SS1604513263693","","null","","","","","","","","","","","","<img src=images/blank.png width =""500"" height = ""500"" style=""border:5px solid black"">","","",""
"","216.9999999459833","stimulus-presentation","210","491329","0.0-17.0-1.47","SS1604513263693","<img src='images/simple/14.png' width ='500' height = '500' style='border:5px solid black'>","40","mixed_complex_deviant","images/simple/15.png","images/simple/14.png","images/complex/6.png,images/complex/15.png,images/complex/8.png,images/complex/9.png,images/complex/5.png,images/complex/14.png,images/complex/7.png","1","null","","200","416.9999999459833","","","","background","",""
"","null","html-keyboard-response","211","492477","0.0-17.0-0.48","SS1604513263693","","null","","","","","","","","","","","","<img src=images/blank.png width =""500"" height = ""500"" style=""border:5px solid black"">","","",""
"","484.99999998603016","stimulus-presentation","212","493169","0.0-17.0-1.48","SS1604513263693","<img src='images/simple/14.png' width ='500' height = '500' style='border:5px solid black'>","40","mixed_complex_deviant","images/simple/15.png","images/simple/14.png","images/complex/6.png,images/complex/15.png,images/complex/8.png,images/complex/9.png,images/complex/5.png,images/complex/14.png,images/complex/7.png","1","null","","200","684.9999999860302","","","","background","",""
"[{""page_index"":0,""viewing_time"":2796}]","2797","task-instructions","213","495969","0.0-18.0","SS1604513263693","","","","","","","","","","","","","","","","",""
"[{""page_index"":0,""viewing_time"":29756.999999983236},{""page_index"":1,""viewing_time"":13998.999999952503},{""page_index"":2,""viewing_time"":1920.9999999729916}]","45676.99999990873","instructions","214","541649","0.0-19.0","SS1604513263693","","","","","","","","","","","","","","","","",""
"","null","html-keyboard-response","215","542654","0.0-20.0-0.0","SS1604513263693","","null","","","","","","","","","","","","<img src=images/blank.png width =""500"" height = ""500"" style=""border:5px solid black"">","","",""
"","9268.000000040047","stimulus-presentation","216","552128","0.0-20.0-1.0","SS1604513263693","<img src='images/complex/11.png' width ='500' height = '500' style='border:5px solid black'>","40","all_complex","images/complex/2.png","images/complex/11.png","images/complex/17.png,images/complex/13.png,images/complex/12.png,images/complex/18.png,images/complex/3.png,images/complex/1.png,images/complex/4.png","2","null","","200","9468.000000040047","yes","628.000000026077","","background","",""
"","null","html-keyboard-response","217","553021","0.0-20.0-0.1","SS1604513263693","","null","","","","","","","","","","","","<img src=images/blank.png width =""500"" height = ""500"" style=""border:5px solid black"">","","",""
"","4340.999999898486","stimulus-presentation","218","557568","0.0-20.0-1.1","SS1604513263693","<img src='images/complex/11.png' width ='500' height = '500' style='border:5px solid black'>","40","all_complex","images/complex/2.png","images/complex/11.png","images/complex/17.png,images/complex/13.png,images/complex/12.png,images/complex/18.png,images/complex/3.png,images/complex/1.png,images/complex/4.png","2","null","","200","4540.999999898486","","","","background","",""
"","null","html-keyboard-response","219","558698","0.0-20.0-0.2","SS1604513263693","","null","","","","","","","","","","","","<img src=images/blank.png width =""500"" height = ""500"" style=""border:5px solid black"">","","",""
"","2103.000000002794","stimulus-presentation","220","561009","0.0-20.0-1.2","SS1604513263693","<img src='images/complex/18.png' width ='500' height = '500' style='border:5px solid black'>","40","all_complex","images/complex/2.png","images/complex/11.png","images/complex/17.png,images/complex/13.png,images/complex/12.png,images/complex/18.png,images/complex/3.png,images/complex/1.png,images/complex/4.png","2","null","","200","2303.000000002794","","","","deviant","",""
"","null","html-keyboard-response","221","561850","0.0-20.0-0.3","SS1604513263693","","null","","","","","","","","","","","","<img src=images/blank.png width =""500"" height = ""500"" style=""border:5px solid black"">","","",""
"","711.0000000102445","stimulus-presentation","222","562768","0.0-20.0-1.3","SS1604513263693","<img src='images/complex/2.png' width ='500' height = '500' style='border:5px solid black'>","40","all_complex","images/complex/2.png","images/complex/11.png","images/complex/17.png,images/complex/13.png,images/complex/12.png,images/complex/18.png,images/complex/3.png,images/complex/1.png,images/complex/4.png","2","null","","200","911.0000000102445","","","","target","",""
"","null","html-keyboard-response","223","563855","0.0-20.0-0.4","SS1604513263693","","null","","","","","","","","","","","","<img src=images/blank.png width =""500"" height = ""500"" style=""border:5px solid black"">","","",""
"","256.9999999832362","stimulus-presentation","224","564318","0.0-20.0-1.4","SS1604513263693","<img src='images/complex/2.png' width ='500' height = '500' style='border:5px solid black'>","40","all_complex","images/complex/2.png","images/complex/11.png","images/complex/17.png,images/complex/13.png,images/complex/12.png,images/complex/18.png,images/complex/3.png,images/complex/1.png,images/complex/4.png","2","null","","200","456.9999999832362","","","","target","",""
"","null","html-keyboard-response","225","565278","0.0-20.0-0.5","SS1604513263693","","null","","","","","","","","","","","","<img src=images/blank.png width =""500"" height = ""500"" style=""border:5px solid black"">","","",""
"","893.999999971129","stimulus-presentation","226","566378","0.0-20.0-1.5","SS1604513263693","<img src='images/complex/11.png' width ='500' height = '500' style='border:5px solid black'>","40","all_complex","images/complex/2.png","images/complex/11.png","images/complex/17.png,images/complex/13.png,images/complex/12.png,images/complex/18.png,images/complex/3.png,images/complex/1.png,images/complex/4.png","2","null","","200","1093.999999971129","","","","background","",""
"","null","html-keyboard-response","227","567356","0.0-20.0-0.6","SS1604513263693","","null","","","","","","","","","","","","<img src=images/blank.png width =""500"" height = ""500"" style=""border:5px solid black"">","","",""
"","3135.9999999403954","stimulus-presentation","228","570699","0.0-20.0-1.6","SS1604513263693","<img src='images/complex/11.png' width ='500' height = '500' style='border:5px solid black'>","40","all_complex","images/complex/2.png","images/complex/11.png","images/complex/17.png,images/complex/13.png,images/complex/12.png,images/complex/18.png,images/complex/3.png,images/complex/1.png,images/complex/4.png","2","null","","200","3335.9999999403954","","","","background","",""
"","null","html-keyboard-response","229","571663","0.0-20.0-0.7","SS1604513263693","","null","","","","","","","","","","","","<img src=images/blank.png width =""500"" height = ""500"" style=""border:5px solid black"">","","",""
"","2827.999999979511","stimulus-presentation","230","574700","0.0-20.0-1.7","SS1604513263693","<img src='images/complex/12.png' width ='500' height = '500' style='border:5px solid black'>","40","all_complex","images/complex/2.png","images/complex/11.png","images/complex/17.png,images/complex/13.png,images/complex/12.png,images/complex/18.png,images/complex/3.png,images/complex/1.png,images/complex/4.png","2","null","","200","3027.999999979511","","","","deviant","",""
"","null","html-keyboard-response","231","575850","0.0-20.0-0.8","SS1604513263693","","null","","","","","","","","","","","","<img src=images/blank.png width =""500"" height = ""500"" style=""border:5px solid black"">","","",""
"","391.9999999925494","stimulus-presentation","232","576449","0.0-20.0-1.8","SS1604513263693","<img src='images/complex/11.png' width ='500' height = '500' style='border:5px solid black'>","40","all_complex","images/complex/2.png","images/complex/11.png","images/complex/17.png,images/complex/13.png,images/complex/12.png,images/complex/18.png,images/complex/3.png,images/complex/1.png,images/complex/4.png","2","null","","200","591.9999999925494","","","","background","",""
"","null","html-keyboard-response","233","577460","0.0-20.0-0.9","SS1604513263693","","null","","","","","","","","","","","","<img src=images/blank.png width =""500"" height = ""500"" style=""border:5px solid black"">","","",""
"","622.0000000903383","stimulus-presentation","234","578289","0.0-20.0-1.9","SS1604513263693","<img src='images/complex/11.png' width ='500' height = '500' style='border:5px solid black'>","40","all_complex","images/complex/2.png","images/complex/11.png","images/complex/17.png,images/complex/13.png,images/complex/12.png,images/complex/18.png,images/complex/3.png,images/complex/1.png,images/complex/4.png","2","null","","200","822.0000000903383","","","","background","",""
"","null","html-keyboard-response","235","579268","0.0-20.0-0.10","SS1604513263693","","null","","","","","","","","","","","","<img src=images/blank.png width =""500"" height = ""500"" style=""border:5px solid black"">","","",""
"","253.00000002607703","stimulus-presentation","236","579728","0.0-20.0-1.10","SS1604513263693","<img src='images/complex/11.png' width ='500' height = '500' style='border:5px solid black'>","40","all_complex","images/complex/2.png","images/complex/11.png","images/complex/17.png,images/complex/13.png,images/complex/12.png,images/complex/18.png,images/complex/3.png,images/complex/1.png,images/complex/4.png","2","null","","200","453.00000002607703","","","","background","",""
"","null","html-keyboard-response","237","581001","0.0-20.0-0.11","SS1604513263693","","null","","","","","","","","","","","","<img src=images/blank.png width =""500"" height = ""500"" style=""border:5px solid black"">","","",""
"","454.00000002700835","stimulus-presentation","238","581659","0.0-20.0-1.11","SS1604513263693","<img src='images/complex/2.png' width ='500' height = '500' style='border:5px solid black'>","40","all_complex","images/complex/2.png","images/complex/11.png","images/complex/17.png,images/complex/13.png,images/complex/12.png,images/complex/18.png,images/complex/3.png,images/complex/1.png,images/complex/4.png","2","null","","200","654.0000000270084","","","","target","",""
"","null","html-keyboard-response","239","582932","0.0-20.0-0.12","SS1604513263693","","null","","","","","","","","","","","","<img src=images/blank.png width =""500"" height = ""500"" style=""border:5px solid black"">","","",""
"","349.99999997671694","stimulus-presentation","240","583489","0.0-20.0-1.12","SS1604513263693","<img src='images/complex/11.png' width ='500' height = '500' style='border:5px solid black'>","40","all_complex","images/complex/2.png","images/complex/11.png","images/complex/17.png,images/complex/13.png,images/complex/12.png,images/complex/18.png,images/complex/3.png,images/complex/1.png,images/complex/4.png","2","null","","200","549.9999999767169","","","","background","",""
"","null","html-keyboard-response","241","584750","0.0-20.0-0.13","SS1604513263693","","null","","","","","","","","","","","","<img src=images/blank.png width =""500"" height = ""500"" style=""border:5px solid black"">","","",""
"","370.9999999264255","stimulus-presentation","242","585329","0.0-20.0-1.13","SS1604513263693","<img src='images/complex/2.png' width ='500' height = '500' style='border:5px solid black'>","40","all_complex","images/complex/2.png","images/complex/11.png","images/complex/17.png,images/complex/13.png,images/complex/12.png,images/complex/18.png,images/complex/3.png,images/complex/1.png,images/complex/4.png","2","null","","200","570.9999999264255","","","","target","",""
"","null","html-keyboard-response","243","586153","0.0-20.0-0.14","SS1604513263693","","null","","","","","","","","","","","","<img src=images/blank.png width =""500"" height = ""500"" style=""border:5px solid black"">","","",""
"","1208.9999999152496","stimulus-presentation","244","587569","0.0-20.0-1.14","SS1604513263693","<img src='images/complex/11.png' width ='500' height = '500' style='border:5px solid black'>","40","all_complex","images/complex/2.png","images/complex/11.png","images/complex/17.png,images/complex/13.png,images/complex/12.png,images/complex/18.png,images/complex/3.png,images/complex/1.png,images/complex/4.png","2","null","","200","1408.9999999152496","","","","background","",""
"","null","html-keyboard-response","245","588652","0.0-20.0-0.15","SS1604513263693","","null","","","","","","","","","","","","<img src=images/blank.png width =""500"" height = ""500"" style=""border:5px solid black"">","","",""
"","550.0000000465661","stimulus-presentation","246","589409","0.0-20.0-1.15","SS1604513263693","<img src='images/complex/11.png' width ='500' height = '500' style='border:5px solid black'>","40","all_complex","images/complex/2.png","images/complex/11.png","images/complex/17.png,images/complex/13.png,images/complex/12.png,images/complex/18.png,images/complex/3.png,images/complex/1.png,images/complex/4.png","2","null","","200","750.0000000465661","","","","background","",""
"","null","html-keyboard-response","247","590622","0.0-20.0-0.16","SS1604513263693","","null","","","","","","","","","","","","<img src=images/blank.png width =""500"" height = ""500"" style=""border:5px solid black"">","","",""
"","339.0000000363216","stimulus-presentation","248","591169","0.0-20.0-1.16","SS1604513263693","<img src='images/complex/4.png' width ='500' height = '500' style='border:5px solid black'>","40","all_complex","images/complex/2.png","images/complex/11.png","images/complex/17.png,images/complex/13.png,images/complex/12.png,images/complex/18.png,images/complex/3.png,images/complex/1.png,images/complex/4.png","2","null","","200","539.0000000363216","","","","deviant","",""
"","null","html-keyboard-response","249","592438","0.0-20.0-0.17","SS1604513263693","","null","","","","","","","","","","","","<img src=images/blank.png width =""500"" height = ""500"" style=""border:5px solid black"">","","",""
"","443.000000086613","stimulus-presentation","250","593088","0.0-20.0-1.17","SS1604513263693","<img src='images/complex/11.png' width ='500' height = '500' style='border:5px solid black'>","40","all_complex","images/complex/2.png","images/complex/11.png","images/complex/17.png,images/complex/13.png,images/complex/12.png,images/complex/18.png,images/complex/3.png,images/complex/1.png,images/complex/4.png","2","null","","200","643.000000086613","","","","background","",""
"","null","html-keyboard-response","251","594139","0.0-20.0-0.18","SS1604513263693","","null","","","","","","","","","","","","<img src=images/blank.png width =""500"" height = ""500"" style=""border:5px solid black"">","","",""
"","343.99999992456287","stimulus-presentation","252","594689","0.0-20.0-1.18","SS1604513263693","<img src='images/complex/11.png' width ='500' height = '500' style='border:5px solid black'>","40","all_complex","images/complex/2.png","images/complex/11.png","images/complex/17.png,images/complex/13.png,images/complex/12.png,images/complex/18.png,images/complex/3.png,images/complex/1.png,images/complex/4.png","2","null","","200","543.9999999245629","","","","background","",""
"","null","html-keyboard-response","253","595522","0.0-20.0-0.19","SS1604513263693","","null","","","","","","","","","","","","<img src=images/blank.png width =""500"" height = ""500"" style=""border:5px solid black"">","","",""
"","1610.9999999171123","stimulus-presentation","254","597338","0.0-20.0-1.19","SS1604513263693","<img src='images/complex/11.png' width ='500' height = '500' style='border:5px solid black'>","40","all_complex","images/complex/2.png","images/complex/11.png","images/complex/17.png,images/complex/13.png,images/complex/12.png,images/complex/18.png,images/complex/3.png,images/complex/1.png,images/complex/4.png","2","null","","200","1810.9999999171123","","","","background","",""
"","null","html-keyboard-response","255","598357","0.0-20.0-0.20","SS1604513263693","","null","","","","","","","","","","","","<img src=images/blank.png width =""500"" height = ""500"" style=""border:5px solid black"">","","",""
"","35176.00000009406","stimulus-presentation","256","633739","0.0-20.0-1.20","SS1604513263693","<img src='images/complex/11.png' width ='500' height = '500' style='border:5px solid black'>","40","all_complex","images/complex/2.png","images/complex/11.png","images/complex/17.png,images/complex/13.png,images/complex/12.png,images/complex/18.png,images/complex/3.png,images/complex/1.png,images/complex/4.png","2","null","","200","35376.00000009406","","","","background","",""
"","null","html-keyboard-response","257","634602","0.0-20.0-0.21","SS1604513263693","","null","","","","","","","","","","","","<img src=images/blank.png width =""500"" height = ""500"" style=""border:5px solid black"">","","",""
"","927.9999999562278","stimulus-presentation","258","635739","0.0-20.0-1.21","SS1604513263693","<img src='images/complex/11.png' width ='500' height = '500' style='border:5px solid black'>","40","all_complex","images/complex/2.png","images/complex/11.png","images/complex/17.png,images/complex/13.png,images/complex/12.png,images/complex/18.png,images/complex/3.png,images/complex/1.png,images/complex/4.png","2","null","","200","1127.9999999562278","","","","background","",""
"","null","html-keyboard-response","259","636555","0.0-20.0-0.22","SS1604513263693","","null","","","","","","","","","","","","<img src=images/blank.png width =""500"" height = ""500"" style=""border:5px solid black"">","","",""
"","255.0000000046566","stimulus-presentation","260","637018","0.0-20.0-1.22","SS1604513263693","<img src='images/complex/3.png' width ='500' height = '500' style='border:5px solid black'>","40","all_complex","images/complex/2.png","images/complex/11.png","images/complex/17.png,images/complex/13.png,images/complex/12.png,images/complex/18.png,images/complex/3.png,images/complex/1.png,images/complex/4.png","2","null","","200","455.0000000046566","","","","deviant","",""
"","null","html-keyboard-response","261","638007","0.0-20.0-0.23","SS1604513263693","","null","","","","","","","","","","","","<img src=images/blank.png width =""500"" height = ""500"" style=""border:5px solid black"">","","",""
"","3993.999999947846","stimulus-presentation","262","642209","0.0-20.0-1.23","SS1604513263693","<img src='images/complex/11.png' width ='500' height = '500' style='border:5px solid black'>","40","all_complex","images/complex/2.png","images/complex/11.png","images/complex/17.png,images/complex/13.png,images/complex/12.png,images/complex/18.png,images/complex/3.png,images/complex/1.png,images/complex/4.png","2","null","","200","4193.999999947846","","","","background","",""
"","null","html-keyboard-response","263","643353","0.0-20.0-0.24","SS1604513263693","","null","","","","","","","","","","","","<img src=images/blank.png width =""500"" height = ""500"" style=""border:5px solid black"">","","",""
"","87.000000057742","stimulus-presentation","264","643648","0.0-20.0-1.24","SS1604513263693","<img src='images/complex/11.png' width ='500' height = '500' style='border:5px solid black'>","40","all_complex","images/complex/2.png","images/complex/11.png","images/complex/17.png,images/complex/13.png,images/complex/12.png,images/complex/18.png,images/complex/3.png,images/complex/1.png,images/complex/4.png","2","null","","200","287.000000057742","","","","background","",""
"","null","html-keyboard-response","265","644780","0.0-20.0-0.25","SS1604513263693","","null","","","","","","","","","","","","<img src=images/blank.png width =""500"" height = ""500"" style=""border:5px solid black"">","","",""
"","660.0000000325963","stimulus-presentation","266","645648","0.0-20.0-1.25","SS1604513263693","<img src='images/complex/11.png' width ='500' height = '500' style='border:5px solid black'>","40","all_complex","images/complex/2.png","images/complex/11.png","images/complex/17.png,images/complex/13.png,images/complex/12.png,images/complex/18.png,images/complex/3.png,images/complex/1.png,images/complex/4.png","2","null","","200","860.0000000325963","","","","background","",""
"","null","html-keyboard-response","267","646795","0.0-20.0-0.26","SS1604513263693","","null","","","","","","","","","","","","<img src=images/blank.png width =""500"" height = ""500"" style=""border:5px solid black"">","","",""
"","1046.000000089407","stimulus-presentation","268","648048","0.0-20.0-1.26","SS1604513263693","<img src='images/complex/13.png' width ='500' height = '500' style='border:5px solid black'>","40","all_complex","images/complex/2.png","images/complex/11.png","images/complex/17.png,images/complex/13.png,images/complex/12.png,images/complex/18.png,images/complex/3.png,images/complex/1.png,images/complex/4.png","2","null","","200","1246.000000089407","","","","deviant","",""
"","null","html-keyboard-response","269","648923","0.0-20.0-0.27","SS1604513263693","","null","","","","","","","","","","","","<img src=images/blank.png width =""500"" height = ""500"" style=""border:5px solid black"">","","",""
"","18529.999999911524","stimulus-presentation","270","667659","0.0-20.0-1.27","SS1604513263693","<img src='images/complex/11.png' width ='500' height = '500' style='border:5px solid black'>","40","all_complex","images/complex/2.png","images/complex/11.png","images/complex/17.png,images/complex/13.png,images/complex/12.png,images/complex/18.png,images/complex/3.png,images/complex/1.png,images/complex/4.png","2","null","","200","18729.999999911524","","","","background","",""
"","null","html-keyboard-response","271","668660","0.0-20.0-0.28","SS1604513263693","","null","","","","","","","","","","","","<img src=images/blank.png width =""500"" height = ""500"" style=""border:5px solid black"">","","",""
"","79.99999995809048","stimulus-presentation","272","668948","0.0-20.0-1.28","SS1604513263693","<img src='images/complex/2.png' width ='500' height = '500' style='border:5px solid black'>","40","all_complex","images/complex/2.png","images/complex/11.png","images/complex/17.png,images/complex/13.png,images/complex/12.png,images/complex/18.png,images/complex/3.png,images/complex/1.png,images/complex/4.png","2","null","","200","279.9999999580905","","","","target","",""
"","null","html-keyboard-response","273","670238","0.0-20.0-0.29","SS1604513263693","","null","","","","","","","","","","","","<img src=images/blank.png width =""500"" height = ""500"" style=""border:5px solid black"">","","",""
"","561.9999999180436","stimulus-presentation","274","671008","0.0-20.0-1.29","SS1604513263693","<img src='images/complex/11.png' width ='500' height = '500' style='border:5px solid black'>","40","all_complex","images/complex/2.png","images/complex/11.png","images/complex/17.png,images/complex/13.png,images/complex/12.png,images/complex/18.png,images/complex/3.png,images/complex/1.png,images/complex/4.png","2","null","","200","761.9999999180436","","","","background","",""
"","null","html-keyboard-response","275","672101","0.0-20.0-0.30","SS1604513263693","","null","","","","","","","","","","","","<img src=images/blank.png width =""500"" height = ""500"" style=""border:5px solid black"">","","",""
"","1109.9999999860302","stimulus-presentation","276","673419","0.0-20.0-1.30","SS1604513263693","<img src='images/complex/11.png' width ='500' height = '500' style='border:5px solid black'>","40","all_complex","images/complex/2.png","images/complex/11.png","images/complex/17.png,images/complex/13.png,images/complex/12.png,images/complex/18.png,images/complex/3.png,images/complex/1.png,images/complex/4.png","2","null","","200","1309.9999999860302","","","","background","",""
"","null","html-keyboard-response","277","674474","0.0-20.0-0.31","SS1604513263693","","null","","","","","","","","","","","","<img src=images/blank.png width =""500"" height = ""500"" style=""border:5px solid black"">","","",""
"","10728.999999933876","stimulus-presentation","278","685410","0.0-20.0-1.31","SS1604513263693","<img src='images/complex/2.png' width ='500' height = '500' style='border:5px solid black'>","40","all_complex","images/complex/2.png","images/complex/11.png","images/complex/17.png,images/complex/13.png,images/complex/12.png,images/complex/18.png,images/complex/3.png,images/complex/1.png,images/complex/4.png","2","null","","200","10928.999999933876","","","","target","",""
"","null","html-keyboard-response","279","686638","0.0-20.0-0.32","SS1604513263693","","null","","","","","","","","","","","","<img src=images/blank.png width =""500"" height = ""500"" style=""border:5px solid black"">","","",""
"","81.00000000558794","stimulus-presentation","280","686928","0.0-20.0-1.32","SS1604513263693","<img src='images/complex/11.png' width ='500' height = '500' style='border:5px solid black'>","40","all_complex","images/complex/2.png","images/complex/11.png","images/complex/17.png,images/complex/13.png,images/complex/12.png,images/complex/18.png,images/complex/3.png,images/complex/1.png,images/complex/4.png","2","null","","200","281.00000000558794","","","","background","",""
"","null","html-keyboard-response","281","688127","0.0-20.0-0.33","SS1604513263693","","null","","","","","","","","","","","","<img src=images/blank.png width =""500"" height = ""500"" style=""border:5px solid black"">","","",""
"","842.9999999934807","stimulus-presentation","282","689178","0.0-20.0-1.33","SS1604513263693","<img src='images/complex/11.png' width ='500' height = '500' style='border:5px solid black'>","40","all_complex","images/complex/2.png","images/complex/11.png","images/complex/17.png,images/complex/13.png,images/complex/12.png,images/complex/18.png,images/complex/3.png,images/complex/1.png,images/complex/4.png","2","null","","200","1042.9999999934807","","","","background","",""
"","null","html-keyboard-response","283","690012","0.0-20.0-0.34","SS1604513263693","","null","","","","","","","","","","","","<img src=images/blank.png width =""500"" height = ""500"" style=""border:5px solid black"">","","",""
