"view_history","rt","trial_type","trial_index","time_elapsed","internal_node_id","subject","trial_stimulus","key_press","task_type","task_target_stimulus","task_background_stimulus","task_deviant_stimuli","task_order_number","block_order_number","trial_order_number","minimum_viewing_duration","trial_looking_time","trial_pressed_space_bar","trial_space_bar_rt","stimulus","trial_stimulus_type","responses","question_order"
"[{""page_index"":0,""viewing_time"":3190.184999999474}]","3190.8449999900768","instructions","0","3252","0.0-0.0","SS1604588908321","","","","","","","","","","","","","","","","",""
"[{""page_index"":0,""viewing_time"":2589.7449999902165},{""page_index"":1,""viewing_time"":2610.030000010738},{""page_index"":2,""viewing_time"":1655.5499999958556},{""page_index"":3,""viewing_time"":7234.570000000531},{""page_index"":4,""viewing_time"":5733.319999999367},{""page_index"":5,""viewing_time"":3744.04499999946},{""page_index"":6,""viewing_time"":1163.059999991674},{""page_index"":7,""viewing_time"":2248.265000001993},{""page_index"":8,""viewing_time"":2363.7950000120327}]","29342.644999996992","instructions","1","32597","0.0-1.0","SS1604588908321","","","","","","","","","","","","","","","","",""
"[{""page_index"":0,""viewing_time"":2061.9650000007823},{""page_index"":1,""viewing_time"":8112.5299999985145},{""page_index"":2,""viewing_time"":1415.4549999948358}]","11590.17500000482","instructions","2","44189","0.0-2.0","SS1604588908321","","","","","","","","","","","","","","","","",""
"","7230.139999999665","practice-block","3","51626","0.0-3.0","SS1604588908321","<img src='images/practice/practice_background.jpeg' width ='500' height = '500' style='border:5px solid black'>","40","null","images/practice/practice_target.jpg","null","null","null","null","","200","7430.139999999665","yes","882.4900000035996","","","",""
"","null","html-keyboard-response","4","52883","0.0-4.0","SS1604588908321","","null","","","","","","","","","","","","<img src=images/blank.png width =""500"" height = ""500"" style=""border:5px solid black"">","","",""
"","918.904999998631","practice-block","5","54005","0.0-5.0","SS1604588908321","<img src='images/practice/practice_background.jpeg' width ='500' height = '500' style='border:5px solid black'>","40","null","images/practice/practice_target.jpg","null","null","null","null","","200","1118.904999998631","","","","","",""
"","null","html-keyboard-response","6","54851","0.0-6.0","SS1604588908321","","null","","","","","","","","","","","","<img src=images/blank.png width =""500"" height = ""500"" style=""border:5px solid black"">","","",""
"","796.6849999938859","practice-block","7","55850","0.0-7.0","SS1604588908321","<img src='images/practice/practice_deviant.jpeg' width ='500' height = '500' style='border:5px solid black'>","40","null","images/practice/practice_target.jpg","null","null","null","null","","200","996.6849999938859","","","","","",""
"","null","html-keyboard-response","8","56994","0.0-8.0","SS1604588908321","","null","","","","","","","","","","","","<img src=images/blank.png width =""500"" height = ""500"" style=""border:5px solid black"">","","",""
"","18669.699999998556","practice-block","9","75866","0.0-9.0-0.0","SS1604588908321","<img src='images/practice/practice_target.jpg' width ='500' height = '500' style='border:5px solid black'>","40","null","images/practice/practice_target.jpg","null","null","null","null","","200","18869.699999998556","yes","2800.374999991618","","","",""
"","null","html-keyboard-response","10","76678","0.0-10.0","SS1604588908321","","null","","","","","","","","","","","","<img src=images/blank.png width =""500"" height = ""500"" style=""border:5px solid black"">","","",""
"","460.76000000175554","practice-block","11","77341","0.0-11.0","SS1604588908321","<img src='images/practice/practice_background.jpeg' width ='500' height = '500' style='border:5px solid black'>","40","null","images/practice/practice_target.jpg","null","null","null","null","","200","660.7600000017555","","","","","",""
"[{""page_index"":0,""viewing_time"":1753}]","1753","task-instructions","12","79095","0.0-12.0","SS1604588908321","","","","","","","","","","","","","","","","",""
"[{""page_index"":0,""viewing_time"":2413.605000008829},{""page_index"":1,""viewing_time"":4117.619999989984},{""page_index"":2,""viewing_time"":1457.250000006752}]","7988.680000009481","instructions","13","87085","0.0-13.0","SS1604588908321","","","","","","","","","","","","","","","","",""
"","null","html-keyboard-response","14","88367","0.0-14.0-0.0","SS1604588908321","","null","","","","","","","","","","","","<img src=images/blank.png width =""500"" height = ""500"" style=""border:5px solid black"">","","",""
"","740.0800000032177","stimulus-presentation","15","89311","0.0-14.0-1.0","SS1604588908321","<img src='images/simple/17.png' width ='500' height = '500' style='border:5px solid black'>","40","all_simple","images/simple/9.png","images/simple/17.png","images/simple/11.png,images/simple/8.png,images/simple/6.png,images/simple/16.png,images/simple/18.png,images/simple/13.png,images/simple/4.png","0","null","","200","940.0800000032177","","","","background","",""
"","null","html-keyboard-response","16","90498","0.0-14.0-0.1","SS1604588908321","","null","","","","","","","","","","","","<img src=images/blank.png width =""500"" height = ""500"" style=""border:5px solid black"">","","",""
"","351.47500000311993","stimulus-presentation","17","91055","0.0-14.0-1.1","SS1604588908321","<img src='images/simple/17.png' width ='500' height = '500' style='border:5px solid black'>","40","all_simple","images/simple/9.png","images/simple/17.png","images/simple/11.png,images/simple/8.png,images/simple/6.png,images/simple/16.png,images/simple/18.png,images/simple/13.png,images/simple/4.png","0","null","","200","551.4750000031199","","","","background","",""
"","null","html-keyboard-response","18","91986","0.0-14.0-0.2","SS1604588908321","","null","","","","","","","","","","","","<img src=images/blank.png width =""500"" height = ""500"" style=""border:5px solid black"">","","",""
"","294.84499999671243","stimulus-presentation","19","92483","0.0-14.0-1.2","SS1604588908321","<img src='images/simple/6.png' width ='500' height = '500' style='border:5px solid black'>","40","all_simple","images/simple/9.png","images/simple/17.png","images/simple/11.png,images/simple/8.png,images/simple/6.png,images/simple/16.png,images/simple/18.png,images/simple/13.png,images/simple/4.png","0","null","","200","494.84499999671243","","","","deviant","",""
"","null","html-keyboard-response","20","93736","0.0-14.0-0.3","SS1604588908321","","null","","","","","","","","","","","","<img src=images/blank.png width =""500"" height = ""500"" style=""border:5px solid black"">","","",""
"","145.23999999801163","stimulus-presentation","21","94087","0.0-14.0-1.3","SS1604588908321","<img src='images/simple/17.png' width ='500' height = '500' style='border:5px solid black'>","40","all_simple","images/simple/9.png","images/simple/17.png","images/simple/11.png,images/simple/8.png,images/simple/6.png,images/simple/16.png,images/simple/18.png,images/simple/13.png,images/simple/4.png","0","null","","200","345.2399999980116","","","","background","",""
"","null","html-keyboard-response","22","95346","0.0-14.0-0.4","SS1604588908321","","null","","","","","","","","","","","","<img src=images/blank.png width =""500"" height = ""500"" style=""border:5px solid black"">","","",""
"","188.51000000722706","stimulus-presentation","23","95739","0.0-14.0-1.4","SS1604588908321","<img src='images/simple/17.png' width ='500' height = '500' style='border:5px solid black'>","40","all_simple","images/simple/9.png","images/simple/17.png","images/simple/11.png,images/simple/8.png,images/simple/6.png,images/simple/16.png,images/simple/18.png,images/simple/13.png,images/simple/4.png","0","null","","200","388.51000000722706","","","","background","",""
"","null","html-keyboard-response","24","96973","0.0-14.0-0.5","SS1604588908321","","null","","","","","","","","","","","","<img src=images/blank.png width =""500"" height = ""500"" style=""border:5px solid black"">","","",""
"","180.9849999990547","stimulus-presentation","25","97357","0.0-14.0-1.5","SS1604588908321","<img src='images/simple/17.png' width ='500' height = '500' style='border:5px solid black'>","40","all_simple","images/simple/9.png","images/simple/17.png","images/simple/11.png,images/simple/8.png,images/simple/6.png,images/simple/16.png,images/simple/18.png,images/simple/13.png,images/simple/4.png","0","null","","200","380.9849999990547","","","","background","",""
"","null","html-keyboard-response","26","98383","0.0-14.0-0.6","SS1604588908321","","null","","","","","","","","","","","","<img src=images/blank.png width =""500"" height = ""500"" style=""border:5px solid black"">","","",""
"","160.13499999826308","stimulus-presentation","27","98747","0.0-14.0-1.6","SS1604588908321","<img src='images/simple/17.png' width ='500' height = '500' style='border:5px solid black'>","40","all_simple","images/simple/9.png","images/simple/17.png","images/simple/11.png,images/simple/8.png,images/simple/6.png,images/simple/16.png,images/simple/18.png,images/simple/13.png,images/simple/4.png","0","null","","200","360.1349999982631","","","","background","",""
"","null","html-keyboard-response","28","99877","0.0-14.0-0.7","SS1604588908321","","null","","","","","","","","","","","","<img src=images/blank.png width =""500"" height = ""500"" style=""border:5px solid black"">","","",""
"","222.90500000235625","stimulus-presentation","29","100303","0.0-14.0-1.7","SS1604588908321","<img src='images/simple/17.png' width ='500' height = '500' style='border:5px solid black'>","40","all_simple","images/simple/9.png","images/simple/17.png","images/simple/11.png,images/simple/8.png,images/simple/6.png,images/simple/16.png,images/simple/18.png,images/simple/13.png,images/simple/4.png","0","null","","200","422.90500000235625","","","","background","",""
"","null","html-keyboard-response","30","101153","0.0-14.0-0.8","SS1604588908321","","null","","","","","","","","","","","","<img src=images/blank.png width =""500"" height = ""500"" style=""border:5px solid black"">","","",""
"","391.00999999209307","stimulus-presentation","31","101747","0.0-14.0-1.8","SS1604588908321","<img src='images/simple/16.png' width ='500' height = '500' style='border:5px solid black'>","40","all_simple","images/simple/9.png","images/simple/17.png","images/simple/11.png,images/simple/8.png,images/simple/6.png,images/simple/16.png,images/simple/18.png,images/simple/13.png,images/simple/4.png","0","null","","200","591.0099999920931","","","","deviant","",""
"","null","html-keyboard-response","32","103021","0.0-14.0-0.9","SS1604588908321","","null","","","","","","","","","","","","<img src=images/blank.png width =""500"" height = ""500"" style=""border:5px solid black"">","","",""
"","175.2649999980349","stimulus-presentation","33","103399","0.0-14.0-1.9","SS1604588908321","<img src='images/simple/17.png' width ='500' height = '500' style='border:5px solid black'>","40","all_simple","images/simple/9.png","images/simple/17.png","images/simple/11.png,images/simple/8.png,images/simple/6.png,images/simple/16.png,images/simple/18.png,images/simple/13.png,images/simple/4.png","0","null","","200","375.2649999980349","","","","background","",""
"","null","html-keyboard-response","34","104560","0.0-14.0-0.10","SS1604588908321","","null","","","","","","","","","","","","<img src=images/blank.png width =""500"" height = ""500"" style=""border:5px solid black"">","","",""
"","167.49999999592546","stimulus-presentation","35","104931","0.0-14.0-1.10","SS1604588908321","<img src='images/simple/17.png' width ='500' height = '500' style='border:5px solid black'>","40","all_simple","images/simple/9.png","images/simple/17.png","images/simple/11.png,images/simple/8.png,images/simple/6.png,images/simple/16.png,images/simple/18.png,images/simple/13.png,images/simple/4.png","0","null","","200","367.49999999592546","","","","background","",""
"","null","html-keyboard-response","36","106214","0.0-14.0-0.11","SS1604588908321","","null","","","","","","","","","","","","<img src=images/blank.png width =""500"" height = ""500"" style=""border:5px solid black"">","","",""
"","13286.479999995208","stimulus-presentation","37","119708","0.0-14.0-1.11","SS1604588908321","<img src='images/simple/9.png' width ='500' height = '500' style='border:5px solid black'>","40","all_simple","images/simple/9.png","images/simple/17.png","images/simple/11.png,images/simple/8.png,images/simple/6.png,images/simple/16.png,images/simple/18.png,images/simple/13.png,images/simple/4.png","0","null","","200","13486.479999995208","yes","333.83999999205116","","target","",""
"","null","html-keyboard-response","38","120972","0.0-14.0-0.12","SS1604588908321","","null","","","","","","","","","","","","<img src=images/blank.png width =""500"" height = ""500"" style=""border:5px solid black"">","","",""
"","359.3050000054063","stimulus-presentation","39","121534","0.0-14.0-1.12","SS1604588908321","<img src='images/simple/17.png' width ='500' height = '500' style='border:5px solid black'>","40","all_simple","images/simple/9.png","images/simple/17.png","images/simple/11.png,images/simple/8.png,images/simple/6.png,images/simple/16.png,images/simple/18.png,images/simple/13.png,images/simple/4.png","0","null","","200","559.3050000054063","","","","background","",""
"","null","html-keyboard-response","40","122516","0.0-14.0-0.13","SS1604588908321","","null","","","","","","","","","","","","<img src=images/blank.png width =""500"" height = ""500"" style=""border:5px solid black"">","","",""
"","130.65999999525957","stimulus-presentation","41","122852","0.0-14.0-1.13","SS1604588908321","<img src='images/simple/17.png' width ='500' height = '500' style='border:5px solid black'>","40","all_simple","images/simple/9.png","images/simple/17.png","images/simple/11.png,images/simple/8.png,images/simple/6.png,images/simple/16.png,images/simple/18.png,images/simple/13.png,images/simple/4.png","0","null","","200","330.65999999525957","","","","background","",""
"","null","html-keyboard-response","42","123961","0.0-14.0-0.14","SS1604588908321","","null","","","","","","","","","","","","<img src=images/blank.png width =""500"" height = ""500"" style=""border:5px solid black"">","","",""
"","135.2700000134064","stimulus-presentation","43","124303","0.0-14.0-1.14","SS1604588908321","<img src='images/simple/9.png' width ='500' height = '500' style='border:5px solid black'>","40","all_simple","images/simple/9.png","images/simple/17.png","images/simple/11.png,images/simple/8.png,images/simple/6.png,images/simple/16.png,images/simple/18.png,images/simple/13.png,images/simple/4.png","0","null","","200","335.2700000134064","","","","target","",""
"","null","html-keyboard-response","44","125502","0.0-14.0-0.15","SS1604588908321","","null","","","","","","","","","","","","<img src=images/blank.png width =""500"" height = ""500"" style=""border:5px solid black"">","","",""
"","201.9399999990128","stimulus-presentation","45","125908","0.0-14.0-1.15","SS1604588908321","<img src='images/simple/17.png' width ='500' height = '500' style='border:5px solid black'>","40","all_simple","images/simple/9.png","images/simple/17.png","images/simple/11.png,images/simple/8.png,images/simple/6.png,images/simple/16.png,images/simple/18.png,images/simple/13.png,images/simple/4.png","0","null","","200","401.9399999990128","","","","background","",""
"","null","html-keyboard-response","46","126814","0.0-14.0-0.16","SS1604588908321","","null","","","","","","","","","","","","<img src=images/blank.png width =""500"" height = ""500"" style=""border:5px solid black"">","","",""
"","129.32999999611638","stimulus-presentation","47","127150","0.0-14.0-1.16","SS1604588908321","<img src='images/simple/17.png' width ='500' height = '500' style='border:5px solid black'>","40","all_simple","images/simple/9.png","images/simple/17.png","images/simple/11.png,images/simple/8.png,images/simple/6.png,images/simple/16.png,images/simple/18.png,images/simple/13.png,images/simple/4.png","0","null","","200","329.3299999961164","","","","background","",""
"","null","html-keyboard-response","48","128309","0.0-14.0-0.17","SS1604588908321","","null","","","","","","","","","","","","<img src=images/blank.png width =""500"" height = ""500"" style=""border:5px solid black"">","","",""
"","169.78999999992084","stimulus-presentation","49","128684","0.0-14.0-1.17","SS1604588908321","<img src='images/simple/9.png' width ='500' height = '500' style='border:5px solid black'>","40","all_simple","images/simple/9.png","images/simple/17.png","images/simple/11.png,images/simple/8.png,images/simple/6.png,images/simple/16.png,images/simple/18.png,images/simple/13.png,images/simple/4.png","0","null","","200","369.78999999992084","","","","target","",""
"","null","html-keyboard-response","50","129917","0.0-14.0-0.18","SS1604588908321","","null","","","","","","","","","","","","<img src=images/blank.png width =""500"" height = ""500"" style=""border:5px solid black"">","","",""
"","181.38000000908505","stimulus-presentation","51","130302","0.0-14.0-1.18","SS1604588908321","<img src='images/simple/17.png' width ='500' height = '500' style='border:5px solid black'>","40","all_simple","images/simple/9.png","images/simple/17.png","images/simple/11.png,images/simple/8.png,images/simple/6.png,images/simple/16.png,images/simple/18.png,images/simple/13.png,images/simple/4.png","0","null","","200","381.38000000908505","","","","background","",""
"","null","html-keyboard-response","52","131554","0.0-14.0-0.19","SS1604588908321","","null","","","","","","","","","","","","<img src=images/blank.png width =""500"" height = ""500"" style=""border:5px solid black"">","","",""
"","152.78499999840278","stimulus-presentation","53","131910","0.0-14.0-1.19","SS1604588908321","<img src='images/simple/17.png' width ='500' height = '500' style='border:5px solid black'>","40","all_simple","images/simple/9.png","images/simple/17.png","images/simple/11.png,images/simple/8.png,images/simple/6.png,images/simple/16.png,images/simple/18.png,images/simple/13.png,images/simple/4.png","0","null","","200","352.7849999984028","","","","background","",""
"","null","html-keyboard-response","54","133200","0.0-14.0-0.20","SS1604588908321","","null","","","","","","","","","","","","<img src=images/blank.png width =""500"" height = ""500"" style=""border:5px solid black"">","","",""
"","140.4049999982817","stimulus-presentation","55","133548","0.0-14.0-1.20","SS1604588908321","<img src='images/simple/17.png' width ='500' height = '500' style='border:5px solid black'>","40","all_simple","images/simple/9.png","images/simple/17.png","images/simple/11.png,images/simple/8.png,images/simple/6.png,images/simple/16.png,images/simple/18.png,images/simple/13.png,images/simple/4.png","0","null","","200","340.4049999982817","","","","background","",""
"","null","html-keyboard-response","56","134567","0.0-14.0-0.21","SS1604588908321","","null","","","","","","","","","","","","<img src=images/blank.png width =""500"" height = ""500"" style=""border:5px solid black"">","","",""
"","673.8449999975273","stimulus-presentation","57","135444","0.0-14.0-1.21","SS1604588908321","<img src='images/simple/9.png' width ='500' height = '500' style='border:5px solid black'>","40","all_simple","images/simple/9.png","images/simple/17.png","images/simple/11.png,images/simple/8.png,images/simple/6.png,images/simple/16.png,images/simple/18.png,images/simple/13.png,images/simple/4.png","0","null","","200","873.8449999975273","yes","292.8549999924144","","target","",""
"","null","html-keyboard-response","58","136648","0.0-14.0-0.22","SS1604588908321","","null","","","","","","","","","","","","<img src=images/blank.png width =""500"" height = ""500"" style=""border:5px solid black"">","","",""
"","201.59499999135733","stimulus-presentation","59","137056","0.0-14.0-1.22","SS1604588908321","<img src='images/simple/8.png' width ='500' height = '500' style='border:5px solid black'>","40","all_simple","images/simple/9.png","images/simple/17.png","images/simple/11.png,images/simple/8.png,images/simple/6.png,images/simple/16.png,images/simple/18.png,images/simple/13.png,images/simple/4.png","0","null","","200","401.5949999913573","","","","deviant","",""
"","null","html-keyboard-response","60","137963","0.0-14.0-0.23","SS1604588908321","","null","","","","","","","","","","","","<img src=images/blank.png width =""500"" height = ""500"" style=""border:5px solid black"">","","",""
"","685.9249999979511","stimulus-presentation","61","138852","0.0-14.0-1.23","SS1604588908321","<img src='images/simple/9.png' width ='500' height = '500' style='border:5px solid black'>","40","all_simple","images/simple/9.png","images/simple/17.png","images/simple/11.png,images/simple/8.png,images/simple/6.png,images/simple/16.png,images/simple/18.png,images/simple/13.png,images/simple/4.png","0","null","","200","885.9249999979511","yes","334.21000000089407","","target","",""
"","null","html-keyboard-response","62","139670","0.0-14.0-0.24","SS1604588908321","","null","","","","","","","","","","","","<img src=images/blank.png width =""500"" height = ""500"" style=""border:5px solid black"">","","",""
"","356.0050000087358","stimulus-presentation","63","140233","0.0-14.0-1.24","SS1604588908321","<img src='images/simple/17.png' width ='500' height = '500' style='border:5px solid black'>","40","all_simple","images/simple/9.png","images/simple/17.png","images/simple/11.png,images/simple/8.png,images/simple/6.png,images/simple/16.png,images/simple/18.png,images/simple/13.png,images/simple/4.png","0","null","","200","556.0050000087358","","","","background","",""
"","null","html-keyboard-response","64","141319","0.0-14.0-0.25","SS1604588908321","","null","","","","","","","","","","","","<img src=images/blank.png width =""500"" height = ""500"" style=""border:5px solid black"">","","",""
"","158.064999995986","stimulus-presentation","65","141684","0.0-14.0-1.25","SS1604588908321","<img src='images/simple/17.png' width ='500' height = '500' style='border:5px solid black'>","40","all_simple","images/simple/9.png","images/simple/17.png","images/simple/11.png,images/simple/8.png,images/simple/6.png,images/simple/16.png,images/simple/18.png,images/simple/13.png,images/simple/4.png","0","null","","200","358.064999995986","","","","background","",""
"","null","html-keyboard-response","66","142834","0.0-14.0-0.26","SS1604588908321","","null","","","","","","","","","","","","<img src=images/blank.png width =""500"" height = ""500"" style=""border:5px solid black"">","","",""
"","167.27499999979045","stimulus-presentation","67","143208","0.0-14.0-1.26","SS1604588908321","<img src='images/simple/17.png' width ='500' height = '500' style='border:5px solid black'>","40","all_simple","images/simple/9.png","images/simple/17.png","images/simple/11.png,images/simple/8.png,images/simple/6.png,images/simple/16.png,images/simple/18.png,images/simple/13.png,images/simple/4.png","0","null","","200","367.27499999979045","","","","background","",""
"","null","html-keyboard-response","68","144417","0.0-14.0-0.27","SS1604588908321","","null","","","","","","","","","","","","<img src=images/blank.png width =""500"" height = ""500"" style=""border:5px solid black"">","","",""
"","159.0250000008382","stimulus-presentation","69","144781","0.0-14.0-1.27","SS1604588908321","<img src='images/simple/17.png' width ='500' height = '500' style='border:5px solid black'>","40","all_simple","images/simple/9.png","images/simple/17.png","images/simple/11.png,images/simple/8.png,images/simple/6.png,images/simple/16.png,images/simple/18.png,images/simple/13.png,images/simple/4.png","0","null","","200","359.0250000008382","","","","background","",""
"","null","html-keyboard-response","70","145931","0.0-14.0-0.28","SS1604588908321","","null","","","","","","","","","","","","<img src=images/blank.png width =""500"" height = ""500"" style=""border:5px solid black"">","","",""
"","447.54500000271946","stimulus-presentation","71","146583","0.0-14.0-1.28","SS1604588908321","<img src='images/simple/11.png' width ='500' height = '500' style='border:5px solid black'>","40","all_simple","images/simple/9.png","images/simple/17.png","images/simple/11.png,images/simple/8.png,images/simple/6.png,images/simple/16.png,images/simple/18.png,images/simple/13.png,images/simple/4.png","0","null","","200","647.5450000027195","","","","deviant","",""
"","null","html-keyboard-response","72","147716","0.0-14.0-0.29","SS1604588908321","","null","","","","","","","","","","","","<img src=images/blank.png width =""500"" height = ""500"" style=""border:5px solid black"">","","",""
"","262.21000000077765","stimulus-presentation","73","148183","0.0-14.0-1.29","SS1604588908321","<img src='images/simple/17.png' width ='500' height = '500' style='border:5px solid black'>","40","all_simple","images/simple/9.png","images/simple/17.png","images/simple/11.png,images/simple/8.png,images/simple/6.png,images/simple/16.png,images/simple/18.png,images/simple/13.png,images/simple/4.png","0","null","","200","462.21000000077765","","","","background","",""
"","null","html-keyboard-response","74","149054","0.0-14.0-0.30","SS1604588908321","","null","","","","","","","","","","","","<img src=images/blank.png width =""500"" height = ""500"" style=""border:5px solid black"">","","",""
"","268.5250000067754","stimulus-presentation","75","149527","0.0-14.0-1.30","SS1604588908321","<img src='images/simple/17.png' width ='500' height = '500' style='border:5px solid black'>","40","all_simple","images/simple/9.png","images/simple/17.png","images/simple/11.png,images/simple/8.png,images/simple/6.png,images/simple/16.png,images/simple/18.png,images/simple/13.png,images/simple/4.png","0","null","","200","468.5250000067754","","","","background","",""
"","null","html-keyboard-response","76","150797","0.0-14.0-0.31","SS1604588908321","","null","","","","","","","","","","","","<img src=images/blank.png width =""500"" height = ""500"" style=""border:5px solid black"">","","",""
"","790.0250000093365","stimulus-presentation","77","151791","0.0-14.0-1.31","SS1604588908321","<img src='images/simple/17.png' width ='500' height = '500' style='border:5px solid black'>","40","all_simple","images/simple/9.png","images/simple/17.png","images/simple/11.png,images/simple/8.png,images/simple/6.png,images/simple/16.png,images/simple/18.png,images/simple/13.png,images/simple/4.png","0","null","","200","990.0250000093365","","","","background","",""
"","null","html-keyboard-response","78","152921","0.0-14.0-0.32","SS1604588908321","","null","","","","","","","","","","","","<img src=images/blank.png width =""500"" height = ""500"" style=""border:5px solid black"">","","",""
"","758.544999989681","stimulus-presentation","79","153884","0.0-14.0-1.32","SS1604588908321","<img src='images/simple/9.png' width ='500' height = '500' style='border:5px solid black'>","40","all_simple","images/simple/9.png","images/simple/17.png","images/simple/11.png,images/simple/8.png,images/simple/6.png,images/simple/16.png,images/simple/18.png,images/simple/13.png,images/simple/4.png","0","null","","200","958.544999989681","yes","350.55499999725726","","target","",""
"","null","html-keyboard-response","80","154955","0.0-14.0-0.33","SS1604588908321","","null","","","","","","","","","","","","<img src=images/blank.png width =""500"" height = ""500"" style=""border:5px solid black"">","","",""
"","286.90999999525957","stimulus-presentation","81","155447","0.0-14.0-1.33","SS1604588908321","<img src='images/simple/13.png' width ='500' height = '500' style='border:5px solid black'>","40","all_simple","images/simple/9.png","images/simple/17.png","images/simple/11.png,images/simple/8.png,images/simple/6.png,images/simple/16.png,images/simple/18.png,images/simple/13.png,images/simple/4.png","0","null","","200","486.90999999525957","","","","deviant","",""
"","null","html-keyboard-response","82","156461","0.0-14.0-0.34","SS1604588908321","","null","","","","","","","","","","","","<img src=images/blank.png width =""500"" height = ""500"" style=""border:5px solid black"">","","",""
"","278.90499999921303","stimulus-presentation","83","156948","0.0-14.0-1.34","SS1604588908321","<img src='images/simple/17.png' width ='500' height = '500' style='border:5px solid black'>","40","all_simple","images/simple/9.png","images/simple/17.png","images/simple/11.png,images/simple/8.png,images/simple/6.png,images/simple/16.png,images/simple/18.png,images/simple/13.png,images/simple/4.png","0","null","","200","478.90499999921303","","","","background","",""
"","null","html-keyboard-response","84","158188","0.0-14.0-0.35","SS1604588908321","","null","","","","","","","","","","","","<img src=images/blank.png width =""500"" height = ""500"" style=""border:5px solid black"">","","",""
"","215.73999999964144","stimulus-presentation","85","158607","0.0-14.0-1.35","SS1604588908321","<img src='images/simple/17.png' width ='500' height = '500' style='border:5px solid black'>","40","all_simple","images/simple/9.png","images/simple/17.png","images/simple/11.png,images/simple/8.png,images/simple/6.png,images/simple/16.png,images/simple/18.png,images/simple/13.png,images/simple/4.png","0","null","","200","415.73999999964144","","","","background","",""
"","null","html-keyboard-response","86","159814","0.0-14.0-0.36","SS1604588908321","","null","","","","","","","","","","","","<img src=images/blank.png width =""500"" height = ""500"" style=""border:5px solid black"">","","",""
"","244.01500000385568","stimulus-presentation","87","160261","0.0-14.0-1.36","SS1604588908321","<img src='images/simple/17.png' width ='500' height = '500' style='border:5px solid black'>","40","all_simple","images/simple/9.png","images/simple/17.png","images/simple/11.png,images/simple/8.png,images/simple/6.png,images/simple/16.png,images/simple/18.png,images/simple/13.png,images/simple/4.png","0","null","","200","444.0150000038557","","","","background","",""
"","null","html-keyboard-response","88","161521","0.0-14.0-0.37","SS1604588908321","","null","","","","","","","","","","","","<img src=images/blank.png width =""500"" height = ""500"" style=""border:5px solid black"">","","",""
"","223.9150000095833","stimulus-presentation","89","161951","0.0-14.0-1.37","SS1604588908321","<img src='images/simple/17.png' width ='500' height = '500' style='border:5px solid black'>","40","all_simple","images/simple/9.png","images/simple/17.png","images/simple/11.png,images/simple/8.png,images/simple/6.png,images/simple/16.png,images/simple/18.png,images/simple/13.png,images/simple/4.png","0","null","","200","423.9150000095833","","","","background","",""
"","null","html-keyboard-response","90","163212","0.0-14.0-0.38","SS1604588908321","","null","","","","","","","","","","","","<img src=images/blank.png width =""500"" height = ""500"" style=""border:5px solid black"">","","",""
"","281.75500000361353","stimulus-presentation","91","163701","0.0-14.0-1.38","SS1604588908321","<img src='images/simple/17.png' width ='500' height = '500' style='border:5px solid black'>","40","all_simple","images/simple/9.png","images/simple/17.png","images/simple/11.png,images/simple/8.png,images/simple/6.png,images/simple/16.png,images/simple/18.png,images/simple/13.png,images/simple/4.png","0","null","","200","481.75500000361353","","","","background","",""
"","null","html-keyboard-response","92","164817","0.0-14.0-0.39","SS1604588908321","","null","","","","","","","","","","","","<img src=images/blank.png width =""500"" height = ""500"" style=""border:5px solid black"">","","",""
"","478.01999999501277","stimulus-presentation","93","165504","0.0-14.0-1.39","SS1604588908321","<img src='images/simple/4.png' width ='500' height = '500' style='border:5px solid black'>","40","all_simple","images/simple/9.png","images/simple/17.png","images/simple/11.png,images/simple/8.png,images/simple/6.png,images/simple/16.png,images/simple/18.png,images/simple/13.png,images/simple/4.png","0","null","","200","678.0199999950128","","","","deviant","",""
"","null","html-keyboard-response","94","166645","0.0-14.0-0.40","SS1604588908321","","null","","","","","","","","","","","","<img src=images/blank.png width =""500"" height = ""500"" style=""border:5px solid black"">","","",""
"","367.4650000029942","stimulus-presentation","95","167217","0.0-14.0-1.40","SS1604588908321","<img src='images/simple/17.png' width ='500' height = '500' style='border:5px solid black'>","40","all_simple","images/simple/9.png","images/simple/17.png","images/simple/11.png,images/simple/8.png,images/simple/6.png,images/simple/16.png,images/simple/18.png,images/simple/13.png,images/simple/4.png","0","null","","200","567.4650000029942","","","","background","",""
"","null","html-keyboard-response","96","168103","0.0-14.0-0.41","SS1604588908321","","null","","","","","","","","","","","","<img src=images/blank.png width =""500"" height = ""500"" style=""border:5px solid black"">","","",""
"","300.359999993816","stimulus-presentation","97","168607","0.0-14.0-1.41","SS1604588908321","<img src='images/simple/17.png' width ='500' height = '500' style='border:5px solid black'>","40","all_simple","images/simple/9.png","images/simple/17.png","images/simple/11.png,images/simple/8.png,images/simple/6.png,images/simple/16.png,images/simple/18.png,images/simple/13.png,images/simple/4.png","0","null","","200","500.359999993816","","","","background","",""
"","null","html-keyboard-response","98","169479","0.0-14.0-0.42","SS1604588908321","","null","","","","","","","","","","","","<img src=images/blank.png width =""500"" height = ""500"" style=""border:5px solid black"">","","",""
"","263.81999999284744","stimulus-presentation","99","169949","0.0-14.0-1.42","SS1604588908321","<img src='images/simple/17.png' width ='500' height = '500' style='border:5px solid black'>","40","all_simple","images/simple/9.png","images/simple/17.png","images/simple/11.png,images/simple/8.png,images/simple/6.png,images/simple/16.png,images/simple/18.png,images/simple/13.png,images/simple/4.png","0","null","","200","463.81999999284744","","","","background","",""
"","null","html-keyboard-response","100","171105","0.0-14.0-0.43","SS1604588908321","","null","","","","","","","","","","","","<img src=images/blank.png width =""500"" height = ""500"" style=""border:5px solid black"">","","",""
"","312.6300000003539","stimulus-presentation","101","171623","0.0-14.0-1.43","SS1604588908321","<img src='images/simple/18.png' width ='500' height = '500' style='border:5px solid black'>","40","all_simple","images/simple/9.png","images/simple/17.png","images/simple/11.png,images/simple/8.png,images/simple/6.png,images/simple/16.png,images/simple/18.png,images/simple/13.png,images/simple/4.png","0","null","","200","512.6300000003539","","","","deviant","",""
"","null","html-keyboard-response","102","172736","0.0-14.0-0.44","SS1604588908321","","null","","","","","","","","","","","","<img src=images/blank.png width =""500"" height = ""500"" style=""border:5px solid black"">","","",""
"","596.0699999995995","stimulus-presentation","103","173541","0.0-14.0-1.44","SS1604588908321","<img src='images/simple/17.png' width ='500' height = '500' style='border:5px solid black'>","40","all_simple","images/simple/9.png","images/simple/17.png","images/simple/11.png,images/simple/8.png,images/simple/6.png,images/simple/16.png,images/simple/18.png,images/simple/13.png,images/simple/4.png","0","null","","200","796.0699999995995","","","","background","",""
"","null","html-keyboard-response","104","174546","0.0-14.0-0.45","SS1604588908321","","null","","","","","","","","","","","","<img src=images/blank.png width =""500"" height = ""500"" style=""border:5px solid black"">","","",""
"","984.0750000003027","stimulus-presentation","105","175734","0.0-14.0-1.45","SS1604588908321","<img src='images/simple/9.png' width ='500' height = '500' style='border:5px solid black'>","40","all_simple","images/simple/9.png","images/simple/17.png","images/simple/11.png,images/simple/8.png,images/simple/6.png,images/simple/16.png,images/simple/18.png,images/simple/13.png,images/simple/4.png","0","null","","200","1184.0750000003027","yes","391.39000000432134","","target","",""
"","null","html-keyboard-response","106","176866","0.0-14.0-0.46","SS1604588908321","","null","","","","","","","","","","","","<img src=images/blank.png width =""500"" height = ""500"" style=""border:5px solid black"">","","",""
"","196.00500000524335","stimulus-presentation","107","177267","0.0-14.0-1.46","SS1604588908321","<img src='images/simple/17.png' width ='500' height = '500' style='border:5px solid black'>","40","all_simple","images/simple/9.png","images/simple/17.png","images/simple/11.png,images/simple/8.png,images/simple/6.png,images/simple/16.png,images/simple/18.png,images/simple/13.png,images/simple/4.png","0","null","","200","396.00500000524335","","","","background","",""
"","null","html-keyboard-response","108","178144","0.0-14.0-0.47","SS1604588908321","","null","","","","","","","","","","","","<img src=images/blank.png width =""500"" height = ""500"" style=""border:5px solid black"">","","",""
"","295.9849999897415","stimulus-presentation","109","178645","0.0-14.0-1.47","SS1604588908321","<img src='images/simple/17.png' width ='500' height = '500' style='border:5px solid black'>","40","all_simple","images/simple/9.png","images/simple/17.png","images/simple/11.png,images/simple/8.png,images/simple/6.png,images/simple/16.png,images/simple/18.png,images/simple/13.png,images/simple/4.png","0","null","","200","495.9849999897415","","","","background","",""
"","null","html-keyboard-response","110","179646","0.0-14.0-0.48","SS1604588908321","","null","","","","","","","","","","","","<img src=images/blank.png width =""500"" height = ""500"" style=""border:5px solid black"">","","",""
"","171.57000000588596","stimulus-presentation","111","180025","0.0-14.0-1.48","SS1604588908321","<img src='images/simple/17.png' width ='500' height = '500' style='border:5px solid black'>","40","all_simple","images/simple/9.png","images/simple/17.png","images/simple/11.png,images/simple/8.png,images/simple/6.png,images/simple/16.png,images/simple/18.png,images/simple/13.png,images/simple/4.png","0","null","","200","371.57000000588596","","","","background","",""
"[{""page_index"":0,""viewing_time"":2331}]","2331","task-instructions","112","182358","0.0-15.0","SS1604588908321","","","","","","","","","","","","","","","","",""
"[{""page_index"":0,""viewing_time"":6549.010000002454},{""page_index"":1,""viewing_time"":6029.964999994263},{""page_index"":2,""viewing_time"":1743.7300000019604}]","14322.91499999701","instructions","113","196684","0.0-16.0","SS1604588908321","","","","","","","","","","","","","","","","",""
"","null","html-keyboard-response","114","197803","0.0-17.0-0.0","SS1604588908321","","null","","","","","","","","","","","","<img src=images/blank.png width =""500"" height = ""500"" style=""border:5px solid black"">","","",""
"","508.3149999991292","stimulus-presentation","115","198518","0.0-17.0-1.0","SS1604588908321","<img src='images/complex/15.png' width ='500' height = '500' style='border:5px solid black'>","40","all_complex","images/complex/1.png","images/complex/6.png","images/complex/4.png,images/complex/15.png,images/complex/9.png,images/complex/3.png,images/complex/13.png,images/complex/7.png,images/complex/18.png","1","null","","200","708.3149999991292","","","","deviant","",""
"","null","html-keyboard-response","116","199772","0.0-17.0-0.1","SS1604588908321","","null","","","","","","","","","","","","<img src=images/blank.png width =""500"" height = ""500"" style=""border:5px solid black"">","","",""
"","293.5950000101002","stimulus-presentation","117","200274","0.0-17.0-1.1","SS1604588908321","<img src='images/complex/6.png' width ='500' height = '500' style='border:5px solid black'>","40","all_complex","images/complex/1.png","images/complex/6.png","images/complex/4.png,images/complex/15.png,images/complex/9.png,images/complex/3.png,images/complex/13.png,images/complex/7.png,images/complex/18.png","1","null","","200","493.5950000101002","","","","background","",""
"","null","html-keyboard-response","118","201535","0.0-17.0-0.2","SS1604588908321","","null","","","","","","","","","","","","<img src=images/blank.png width =""500"" height = ""500"" style=""border:5px solid black"">","","",""
"","173.3749999984866","stimulus-presentation","119","201918","0.0-17.0-1.2","SS1604588908321","<img src='images/complex/6.png' width ='500' height = '500' style='border:5px solid black'>","40","all_complex","images/complex/1.png","images/complex/6.png","images/complex/4.png,images/complex/15.png,images/complex/9.png,images/complex/3.png,images/complex/13.png,images/complex/7.png,images/complex/18.png","1","null","","200","373.3749999984866","","","","background","",""
"","null","html-keyboard-response","120","203097","0.0-17.0-0.3","SS1604588908321","","null","","","","","","","","","","","","<img src=images/blank.png width =""500"" height = ""500"" style=""border:5px solid black"">","","",""
"","643.6000000103377","stimulus-presentation","121","203950","0.0-17.0-1.3","SS1604588908321","<img src='images/complex/1.png' width ='500' height = '500' style='border:5px solid black'>","40","all_complex","images/complex/1.png","images/complex/6.png","images/complex/4.png,images/complex/15.png,images/complex/9.png,images/complex/3.png,images/complex/13.png,images/complex/7.png,images/complex/18.png","1","null","","200","843.6000000103377","yes","267.6750000100583","","target","",""
"","null","html-keyboard-response","122","204873","0.0-17.0-0.4","SS1604588908321","","null","","","","","","","","","","","","<img src=images/blank.png width =""500"" height = ""500"" style=""border:5px solid black"">","","",""
"","172.3000000056345","stimulus-presentation","123","205249","0.0-17.0-1.4","SS1604588908321","<img src='images/complex/6.png' width ='500' height = '500' style='border:5px solid black'>","40","all_complex","images/complex/1.png","images/complex/6.png","images/complex/4.png,images/complex/15.png,images/complex/9.png,images/complex/3.png,images/complex/13.png,images/complex/7.png,images/complex/18.png","1","null","","200","372.3000000056345","","","","background","",""
"","null","html-keyboard-response","124","206541","0.0-17.0-0.5","SS1604588908321","","null","","","","","","","","","","","","<img src=images/blank.png width =""500"" height = ""500"" style=""border:5px solid black"">","","",""
"","225.27999999874737","stimulus-presentation","125","206974","0.0-17.0-1.5","SS1604588908321","<img src='images/complex/6.png' width ='500' height = '500' style='border:5px solid black'>","40","all_complex","images/complex/1.png","images/complex/6.png","images/complex/4.png,images/complex/15.png,images/complex/9.png,images/complex/3.png,images/complex/13.png,images/complex/7.png,images/complex/18.png","1","null","","200","425.27999999874737","","","","background","",""
"","null","html-keyboard-response","126","207839","0.0-17.0-0.6","SS1604588908321","","null","","","","","","","","","","","","<img src=images/blank.png width =""500"" height = ""500"" style=""border:5px solid black"">","","",""
"","234.44000000017695","stimulus-presentation","127","208280","0.0-17.0-1.6","SS1604588908321","<img src='images/complex/6.png' width ='500' height = '500' style='border:5px solid black'>","40","all_complex","images/complex/1.png","images/complex/6.png","images/complex/4.png,images/complex/15.png,images/complex/9.png,images/complex/3.png,images/complex/13.png,images/complex/7.png,images/complex/18.png","1","null","","200","434.44000000017695","","","","background","",""
"","null","html-keyboard-response","128","209364","0.0-17.0-0.7","SS1604588908321","","null","","","","","","","","","","","","<img src=images/blank.png width =""500"" height = ""500"" style=""border:5px solid black"">","","",""
"","395.9150000009686","stimulus-presentation","129","209966","0.0-17.0-1.7","SS1604588908321","<img src='images/complex/13.png' width ='500' height = '500' style='border:5px solid black'>","40","all_complex","images/complex/1.png","images/complex/6.png","images/complex/4.png,images/complex/15.png,images/complex/9.png,images/complex/3.png,images/complex/13.png,images/complex/7.png,images/complex/18.png","1","null","","200","595.9150000009686","","","","deviant","",""
"","null","html-keyboard-response","130","211155","0.0-17.0-0.8","SS1604588908321","","null","","","","","","","","","","","","<img src=images/blank.png width =""500"" height = ""500"" style=""border:5px solid black"">","","",""
"","607.6900000043679","stimulus-presentation","131","211967","0.0-17.0-1.8","SS1604588908321","<img src='images/complex/1.png' width ='500' height = '500' style='border:5px solid black'>","40","all_complex","images/complex/1.png","images/complex/6.png","images/complex/4.png,images/complex/15.png,images/complex/9.png,images/complex/3.png,images/complex/13.png,images/complex/7.png,images/complex/18.png","1","null","","200","807.6900000043679","yes","279.54000000318047","","target","",""
"","null","html-keyboard-response","132","212980","0.0-17.0-0.9","SS1604588908321","","null","","","","","","","","","","","","<img src=images/blank.png width =""500"" height = ""500"" style=""border:5px solid black"">","","",""
"","627.6349999970989","stimulus-presentation","133","213815","0.0-17.0-1.9","SS1604588908321","<img src='images/complex/1.png' width ='500' height = '500' style='border:5px solid black'>","40","all_complex","images/complex/1.png","images/complex/6.png","images/complex/4.png,images/complex/15.png,images/complex/9.png,images/complex/3.png,images/complex/13.png,images/complex/7.png,images/complex/18.png","1","null","","200","827.6349999970989","yes","291.6149999946356","","target","",""
"","null","html-keyboard-response","134","214761","0.0-17.0-0.10","SS1604588908321","","null","","","","","","","","","","","","<img src=images/blank.png width =""500"" height = ""500"" style=""border:5px solid black"">","","",""
"","321.4450000086799","stimulus-presentation","135","215290","0.0-17.0-1.10","SS1604588908321","<img src='images/complex/6.png' width ='500' height = '500' style='border:5px solid black'>","40","all_complex","images/complex/1.png","images/complex/6.png","images/complex/4.png,images/complex/15.png,images/complex/9.png,images/complex/3.png,images/complex/13.png,images/complex/7.png,images/complex/18.png","1","null","","200","521.4450000086799","","","","background","",""
"","null","html-keyboard-response","136","216466","0.0-17.0-0.11","SS1604588908321","","null","","","","","","","","","","","","<img src=images/blank.png width =""500"" height = ""500"" style=""border:5px solid black"">","","",""
"","234.99500000616536","stimulus-presentation","137","216911","0.0-17.0-1.11","SS1604588908321","<img src='images/complex/6.png' width ='500' height = '500' style='border:5px solid black'>","40","all_complex","images/complex/1.png","images/complex/6.png","images/complex/4.png,images/complex/15.png,images/complex/9.png,images/complex/3.png,images/complex/13.png,images/complex/7.png,images/complex/18.png","1","null","","200","434.99500000616536","","","","background","",""
"","null","html-keyboard-response","138","217790","0.0-17.0-0.12","SS1604588908321","","null","","","","","","","","","","","","<img src=images/blank.png width =""500"" height = ""500"" style=""border:5px solid black"">","","",""
"","472.55000000586733","stimulus-presentation","139","218472","0.0-17.0-1.12","SS1604588908321","<img src='images/complex/3.png' width ='500' height = '500' style='border:5px solid black'>","40","all_complex","images/complex/1.png","images/complex/6.png","images/complex/4.png,images/complex/15.png,images/complex/9.png,images/complex/3.png,images/complex/13.png,images/complex/7.png,images/complex/18.png","1","null","","200","672.5500000058673","","","","deviant","",""
"","null","html-keyboard-response","140","219670","0.0-17.0-0.13","SS1604588908321","","null","","","","","","","","","","","","<img src=images/blank.png width =""500"" height = ""500"" style=""border:5px solid black"">","","",""
"","182.76500000501983","stimulus-presentation","141","220058","0.0-17.0-1.13","SS1604588908321","<img src='images/complex/6.png' width ='500' height = '500' style='border:5px solid black'>","40","all_complex","images/complex/1.png","images/complex/6.png","images/complex/4.png,images/complex/15.png,images/complex/9.png,images/complex/3.png,images/complex/13.png,images/complex/7.png,images/complex/18.png","1","null","","200","382.76500000501983","","","","background","",""
"","null","html-keyboard-response","142","220896","0.0-17.0-0.14","SS1604588908321","","null","","","","","","","","","","","","<img src=images/blank.png width =""500"" height = ""500"" style=""border:5px solid black"">","","",""
"","687.8100000030827","stimulus-presentation","143","221791","0.0-17.0-1.14","SS1604588908321","<img src='images/complex/1.png' width ='500' height = '500' style='border:5px solid black'>","40","all_complex","images/complex/1.png","images/complex/6.png","images/complex/4.png,images/complex/15.png,images/complex/9.png,images/complex/3.png,images/complex/13.png,images/complex/7.png,images/complex/18.png","1","null","","200","887.8100000030827","yes","335.1049999910174","","target","",""
"","null","html-keyboard-response","144","222736","0.0-17.0-0.15","SS1604588908321","","null","","","","","","","","","","","","<img src=images/blank.png width =""500"" height = ""500"" style=""border:5px solid black"">","","",""
"","218.96999998716637","stimulus-presentation","145","223163","0.0-17.0-1.15","SS1604588908321","<img src='images/complex/6.png' width ='500' height = '500' style='border:5px solid black'>","40","all_complex","images/complex/1.png","images/complex/6.png","images/complex/4.png,images/complex/15.png,images/complex/9.png,images/complex/3.png,images/complex/13.png,images/complex/7.png,images/complex/18.png","1","null","","200","418.9699999871664","","","","background","",""
"","null","html-keyboard-response","146","224316","0.0-17.0-0.16","SS1604588908321","","null","","","","","","","","","","","","<img src=images/blank.png width =""500"" height = ""500"" style=""border:5px solid black"">","","",""
"","117.93999999645166","stimulus-presentation","147","224639","0.0-17.0-1.16","SS1604588908321","<img src='images/complex/6.png' width ='500' height = '500' style='border:5px solid black'>","40","all_complex","images/complex/1.png","images/complex/6.png","images/complex/4.png,images/complex/15.png,images/complex/9.png,images/complex/3.png,images/complex/13.png,images/complex/7.png,images/complex/18.png","1","null","","200","317.93999999645166","","","","background","",""
"","null","html-keyboard-response","148","225612","0.0-17.0-0.17","SS1604588908321","","null","","","","","","","","","","","","<img src=images/blank.png width =""500"" height = ""500"" style=""border:5px solid black"">","","",""
"","304.81000000145286","stimulus-presentation","149","226123","0.0-17.0-1.17","SS1604588908321","<img src='images/complex/18.png' width ='500' height = '500' style='border:5px solid black'>","40","all_complex","images/complex/1.png","images/complex/6.png","images/complex/4.png,images/complex/15.png,images/complex/9.png,images/complex/3.png,images/complex/13.png,images/complex/7.png,images/complex/18.png","1","null","","200","504.81000000145286","","","","deviant","",""
"","null","html-keyboard-response","150","227386","0.0-17.0-0.18","SS1604588908321","","null","","","","","","","","","","","","<img src=images/blank.png width =""500"" height = ""500"" style=""border:5px solid black"">","","",""
"","238.10499999672174","stimulus-presentation","151","227831","0.0-17.0-1.18","SS1604588908321","<img src='images/complex/6.png' width ='500' height = '500' style='border:5px solid black'>","40","all_complex","images/complex/1.png","images/complex/6.png","images/complex/4.png,images/complex/15.png,images/complex/9.png,images/complex/3.png,images/complex/13.png,images/complex/7.png,images/complex/18.png","1","null","","200","438.10499999672174","","","","background","",""
"","null","html-keyboard-response","152","228971","0.0-17.0-0.19","SS1604588908321","","null","","","","","","","","","","","","<img src=images/blank.png width =""500"" height = ""500"" style=""border:5px solid black"">","","",""
"","667.5249999971129","stimulus-presentation","153","229847","0.0-17.0-1.19","SS1604588908321","<img src='images/complex/1.png' width ='500' height = '500' style='border:5px solid black'>","40","all_complex","images/complex/1.png","images/complex/6.png","images/complex/4.png,images/complex/15.png,images/complex/9.png,images/complex/3.png,images/complex/13.png,images/complex/7.png,images/complex/18.png","1","null","","200","867.5249999971129","yes","323.50500000757165","","target","",""
"","null","html-keyboard-response","154","231096","0.0-17.0-0.20","SS1604588908321","","null","","","","","","","","","","","","<img src=images/blank.png width =""500"" height = ""500"" style=""border:5px solid black"">","","",""
"","280.5149999912828","stimulus-presentation","155","231585","0.0-17.0-1.20","SS1604588908321","<img src='images/complex/6.png' width ='500' height = '500' style='border:5px solid black'>","40","all_complex","images/complex/1.png","images/complex/6.png","images/complex/4.png,images/complex/15.png,images/complex/9.png,images/complex/3.png,images/complex/13.png,images/complex/7.png,images/complex/18.png","1","null","","200","480.5149999912828","","","","background","",""
"","null","html-keyboard-response","156","232836","0.0-17.0-0.21","SS1604588908321","","null","","","","","","","","","","","","<img src=images/blank.png width =""500"" height = ""500"" style=""border:5px solid black"">","","",""
"","297.22000000765547","stimulus-presentation","157","233343","0.0-17.0-1.21","SS1604588908321","<img src='images/complex/6.png' width ='500' height = '500' style='border:5px solid black'>","40","all_complex","images/complex/1.png","images/complex/6.png","images/complex/4.png,images/complex/15.png,images/complex/9.png,images/complex/3.png,images/complex/13.png,images/complex/7.png,images/complex/18.png","1","null","","200","497.22000000765547","","","","background","",""
"","null","html-keyboard-response","158","234520","0.0-17.0-0.22","SS1604588908321","","null","","","","","","","","","","","","<img src=images/blank.png width =""500"" height = ""500"" style=""border:5px solid black"">","","",""
"","215.52499999233987","stimulus-presentation","159","234945","0.0-17.0-1.22","SS1604588908321","<img src='images/complex/6.png' width ='500' height = '500' style='border:5px solid black'>","40","all_complex","images/complex/1.png","images/complex/6.png","images/complex/4.png,images/complex/15.png,images/complex/9.png,images/complex/3.png,images/complex/13.png,images/complex/7.png,images/complex/18.png","1","null","","200","415.5249999923399","","","","background","",""
"","null","html-keyboard-response","160","236221","0.0-17.0-0.23","SS1604588908321","","null","","","","","","","","","","","","<img src=images/blank.png width =""500"" height = ""500"" style=""border:5px solid black"">","","",""
"","213.02000001014676","stimulus-presentation","161","236639","0.0-17.0-1.23","SS1604588908321","<img src='images/complex/6.png' width ='500' height = '500' style='border:5px solid black'>","40","all_complex","images/complex/1.png","images/complex/6.png","images/complex/4.png,images/complex/15.png,images/complex/9.png,images/complex/3.png,images/complex/13.png,images/complex/7.png,images/complex/18.png","1","null","","200","413.02000001014676","","","","background","",""
"","null","html-keyboard-response","162","237481","0.0-17.0-0.24","SS1604588908321","","null","","","","","","","","","","","","<img src=images/blank.png width =""500"" height = ""500"" style=""border:5px solid black"">","","",""
"","188.6450000019977","stimulus-presentation","163","237873","0.0-17.0-1.24","SS1604588908321","<img src='images/complex/6.png' width ='500' height = '500' style='border:5px solid black'>","40","all_complex","images/complex/1.png","images/complex/6.png","images/complex/4.png,images/complex/15.png,images/complex/9.png,images/complex/3.png,images/complex/13.png,images/complex/7.png,images/complex/18.png","1","null","","200","388.6450000019977","","","","background","",""
"","null","html-keyboard-response","164","239120","0.0-17.0-0.25","SS1604588908321","","null","","","","","","","","","","","","<img src=images/blank.png width =""500"" height = ""500"" style=""border:5px solid black"">","","",""
"","215.88999999221414","stimulus-presentation","165","239543","0.0-17.0-1.25","SS1604588908321","<img src='images/complex/6.png' width ='500' height = '500' style='border:5px solid black'>","40","all_complex","images/complex/1.png","images/complex/6.png","images/complex/4.png,images/complex/15.png,images/complex/9.png,images/complex/3.png,images/complex/13.png,images/complex/7.png,images/complex/18.png","1","null","","200","415.88999999221414","","","","background","",""
"","null","html-keyboard-response","166","240366","0.0-17.0-0.26","SS1604588908321","","null","","","","","","","","","","","","<img src=images/blank.png width =""500"" height = ""500"" style=""border:5px solid black"">","","",""
"","169.72000000532717","stimulus-presentation","167","240745","0.0-17.0-1.26","SS1604588908321","<img src='images/complex/6.png' width ='500' height = '500' style='border:5px solid black'>","40","all_complex","images/complex/1.png","images/complex/6.png","images/complex/4.png,images/complex/15.png,images/complex/9.png,images/complex/3.png,images/complex/13.png,images/complex/7.png,images/complex/18.png","1","null","","200","369.72000000532717","","","","background","",""
"","null","html-keyboard-response","168","241951","0.0-17.0-0.27","SS1604588908321","","null","","","","","","","","","","","","<img src=images/blank.png width =""500"" height = ""500"" style=""border:5px solid black"">","","",""
"","158.96000000066124","stimulus-presentation","169","242319","0.0-17.0-1.27","SS1604588908321","<img src='images/complex/6.png' width ='500' height = '500' style='border:5px solid black'>","40","all_complex","images/complex/1.png","images/complex/6.png","images/complex/4.png,images/complex/15.png,images/complex/9.png,images/complex/3.png,images/complex/13.png,images/complex/7.png,images/complex/18.png","1","null","","200","358.96000000066124","","","","background","",""
"","null","html-keyboard-response","170","243182","0.0-17.0-0.28","SS1604588908321","","null","","","","","","","","","","","","<img src=images/blank.png width =""500"" height = ""500"" style=""border:5px solid black"">","","",""
"","218.990000008489","stimulus-presentation","171","243610","0.0-17.0-1.28","SS1604588908321","<img src='images/complex/6.png' width ='500' height = '500' style='border:5px solid black'>","40","all_complex","images/complex/1.png","images/complex/6.png","images/complex/4.png,images/complex/15.png,images/complex/9.png,images/complex/3.png,images/complex/13.png,images/complex/7.png,images/complex/18.png","1","null","","200","418.990000008489","","","","background","",""
"","null","html-keyboard-response","172","244421","0.0-17.0-0.29","SS1604588908321","","null","","","","","","","","","","","","<img src=images/blank.png width =""500"" height = ""500"" style=""border:5px solid black"">","","",""
"","214.27500000572763","stimulus-presentation","173","244839","0.0-17.0-1.29","SS1604588908321","<img src='images/complex/6.png' width ='500' height = '500' style='border:5px solid black'>","40","all_complex","images/complex/1.png","images/complex/6.png","images/complex/4.png,images/complex/15.png,images/complex/9.png,images/complex/3.png,images/complex/13.png,images/complex/7.png,images/complex/18.png","1","null","","200","414.27500000572763","","","","background","",""
"","null","html-keyboard-response","174","245972","0.0-17.0-0.30","SS1604588908321","","null","","","","","","","","","","","","<img src=images/blank.png width =""500"" height = ""500"" style=""border:5px solid black"">","","",""
"","380.7550000055926","stimulus-presentation","175","246562","0.0-17.0-1.30","SS1604588908321","<img src='images/complex/9.png' width ='500' height = '500' style='border:5px solid black'>","40","all_complex","images/complex/1.png","images/complex/6.png","images/complex/4.png,images/complex/15.png,images/complex/9.png,images/complex/3.png,images/complex/13.png,images/complex/7.png,images/complex/18.png","1","null","","200","580.7550000055926","","","","deviant","",""
"","null","html-keyboard-response","176","247847","0.0-17.0-0.31","SS1604588908321","","null","","","","","","","","","","","","<img src=images/blank.png width =""500"" height = ""500"" style=""border:5px solid black"">","","",""
"","139.35499999206513","stimulus-presentation","177","248193","0.0-17.0-1.31","SS1604588908321","<img src='images/complex/6.png' width ='500' height = '500' style='border:5px solid black'>","40","all_complex","images/complex/1.png","images/complex/6.png","images/complex/4.png,images/complex/15.png,images/complex/9.png,images/complex/3.png,images/complex/13.png,images/complex/7.png,images/complex/18.png","1","null","","200","339.35499999206513","","","","background","",""
"","null","html-keyboard-response","178","249498","0.0-17.0-0.32","SS1604588908321","","null","","","","","","","","","","","","<img src=images/blank.png width =""500"" height = ""500"" style=""border:5px solid black"">","","",""
"","126.1299999896437","stimulus-presentation","179","249833","0.0-17.0-1.32","SS1604588908321","<img src='images/complex/6.png' width ='500' height = '500' style='border:5px solid black'>","40","all_complex","images/complex/1.png","images/complex/6.png","images/complex/4.png,images/complex/15.png,images/complex/9.png,images/complex/3.png,images/complex/13.png,images/complex/7.png,images/complex/18.png","1","null","","200","326.1299999896437","","","","background","",""
"","null","html-keyboard-response","180","251036","0.0-17.0-0.33","SS1604588908321","","null","","","","","","","","","","","","<img src=images/blank.png width =""500"" height = ""500"" style=""border:5px solid black"">","","",""
"","133.66000000678468","stimulus-presentation","181","251377","0.0-17.0-1.33","SS1604588908321","<img src='images/complex/6.png' width ='500' height = '500' style='border:5px solid black'>","40","all_complex","images/complex/1.png","images/complex/6.png","images/complex/4.png,images/complex/15.png,images/complex/9.png,images/complex/3.png,images/complex/13.png,images/complex/7.png,images/complex/18.png","1","null","","200","333.6600000067847","","","","background","",""
"","null","html-keyboard-response","182","252312","0.0-17.0-0.34","SS1604588908321","","null","","","","","","","","","","","","<img src=images/blank.png width =""500"" height = ""500"" style=""border:5px solid black"">","","",""
"","341.0449999937555","stimulus-presentation","183","252857","0.0-17.0-1.34","SS1604588908321","<img src='images/complex/4.png' width ='500' height = '500' style='border:5px solid black'>","40","all_complex","images/complex/1.png","images/complex/6.png","images/complex/4.png,images/complex/15.png,images/complex/9.png,images/complex/3.png,images/complex/13.png,images/complex/7.png,images/complex/18.png","1","null","","200","541.0449999937555","","","","deviant","",""
"","null","html-keyboard-response","184","253858","0.0-17.0-0.35","SS1604588908321","","null","","","","","","","","","","","","<img src=images/blank.png width =""500"" height = ""500"" style=""border:5px solid black"">","","",""
"","175.51500000990927","stimulus-presentation","185","254242","0.0-17.0-1.35","SS1604588908321","<img src='images/complex/6.png' width ='500' height = '500' style='border:5px solid black'>","40","all_complex","images/complex/1.png","images/complex/6.png","images/complex/4.png,images/complex/15.png,images/complex/9.png,images/complex/3.png,images/complex/13.png,images/complex/7.png,images/complex/18.png","1","null","","200","375.5150000099093","","","","background","",""
"","null","html-keyboard-response","186","255146","0.0-17.0-0.36","SS1604588908321","","null","","","","","","","","","","","","<img src=images/blank.png width =""500"" height = ""500"" style=""border:5px solid black"">","","",""
"","187.9800000024261","stimulus-presentation","187","255537","0.0-17.0-1.36","SS1604588908321","<img src='images/complex/6.png' width ='500' height = '500' style='border:5px solid black'>","40","all_complex","images/complex/1.png","images/complex/6.png","images/complex/4.png,images/complex/15.png,images/complex/9.png,images/complex/3.png,images/complex/13.png,images/complex/7.png,images/complex/18.png","1","null","","200","387.9800000024261","","","","background","",""
"","null","html-keyboard-response","188","256528","0.0-17.0-0.37","SS1604588908321","","null","","","","","","","","","","","","<img src=images/blank.png width =""500"" height = ""500"" style=""border:5px solid black"">","","",""
"","614.7449999989476","stimulus-presentation","189","257351","0.0-17.0-1.37","SS1604588908321","<img src='images/complex/1.png' width ='500' height = '500' style='border:5px solid black'>","40","all_complex","images/complex/1.png","images/complex/6.png","images/complex/4.png,images/complex/15.png,images/complex/9.png,images/complex/3.png,images/complex/13.png,images/complex/7.png,images/complex/18.png","1","null","","200","814.7449999989476","yes","331.4899999968475","","target","",""
"","null","html-keyboard-response","190","258252","0.0-17.0-0.38","SS1604588908321","","null","","","","","","","","","","","","<img src=images/blank.png width =""500"" height = ""500"" style=""border:5px solid black"">","","",""
"","268.67000000493135","stimulus-presentation","191","258730","0.0-17.0-1.38","SS1604588908321","<img src='images/complex/6.png' width ='500' height = '500' style='border:5px solid black'>","40","all_complex","images/complex/1.png","images/complex/6.png","images/complex/4.png,images/complex/15.png,images/complex/9.png,images/complex/3.png,images/complex/13.png,images/complex/7.png,images/complex/18.png","1","null","","200","468.67000000493135","","","","background","",""
"","null","html-keyboard-response","192","259591","0.0-17.0-0.39","SS1604588908321","","null","","","","","","","","","","","","<img src=images/blank.png width =""500"" height = ""500"" style=""border:5px solid black"">","","",""
"","194.4999999977881","stimulus-presentation","193","259991","0.0-17.0-1.39","SS1604588908321","<img src='images/complex/6.png' width ='500' height = '500' style='border:5px solid black'>","40","all_complex","images/complex/1.png","images/complex/6.png","images/complex/4.png,images/complex/15.png,images/complex/9.png,images/complex/3.png,images/complex/13.png,images/complex/7.png,images/complex/18.png","1","null","","200","394.4999999977881","","","","background","",""
"","null","html-keyboard-response","194","261164","0.0-17.0-0.40","SS1604588908321","","null","","","","","","","","","","","","<img src=images/blank.png width =""500"" height = ""500"" style=""border:5px solid black"">","","",""
"","156.96500000194646","stimulus-presentation","195","261529","0.0-17.0-1.40","SS1604588908321","<img src='images/complex/6.png' width ='500' height = '500' style='border:5px solid black'>","40","all_complex","images/complex/1.png","images/complex/6.png","images/complex/4.png,images/complex/15.png,images/complex/9.png,images/complex/3.png,images/complex/13.png,images/complex/7.png,images/complex/18.png","1","null","","200","356.96500000194646","","","","background","",""
"","null","html-keyboard-response","196","262571","0.0-17.0-0.41","SS1604588908321","","null","","","","","","","","","","","","<img src=images/blank.png width =""500"" height = ""500"" style=""border:5px solid black"">","","",""
"","324.56499998806976","stimulus-presentation","197","263105","0.0-17.0-1.41","SS1604588908321","<img src='images/complex/7.png' width ='500' height = '500' style='border:5px solid black'>","40","all_complex","images/complex/1.png","images/complex/6.png","images/complex/4.png,images/complex/15.png,images/complex/9.png,images/complex/3.png,images/complex/13.png,images/complex/7.png,images/complex/18.png","1","null","","200","524.5649999880698","","","","deviant","",""
"","null","html-keyboard-response","198","264366","0.0-17.0-0.42","SS1604588908321","","null","","","","","","","","","","","","<img src=images/blank.png width =""500"" height = ""500"" style=""border:5px solid black"">","","",""
"","172.68499999772757","stimulus-presentation","199","264747","0.0-17.0-1.42","SS1604588908321","<img src='images/complex/6.png' width ='500' height = '500' style='border:5px solid black'>","40","all_complex","images/complex/1.png","images/complex/6.png","images/complex/4.png,images/complex/15.png,images/complex/9.png,images/complex/3.png,images/complex/13.png,images/complex/7.png,images/complex/18.png","1","null","","200","372.6849999977276","","","","background","",""
"","null","html-keyboard-response","200","265581","0.0-17.0-0.43","SS1604588908321","","null","","","","","","","","","","","","<img src=images/blank.png width =""500"" height = ""500"" style=""border:5px solid black"">","","",""
"","644.5899999962421","stimulus-presentation","201","266432","0.0-17.0-1.43","SS1604588908321","<img src='images/complex/1.png' width ='500' height = '500' style='border:5px solid black'>","40","all_complex","images/complex/1.png","images/complex/6.png","images/complex/4.png,images/complex/15.png,images/complex/9.png,images/complex/3.png,images/complex/13.png,images/complex/7.png,images/complex/18.png","1","null","","200","844.5899999962421","yes","302.95499999192543","","target","",""
"","null","html-keyboard-response","202","267552","0.0-17.0-0.44","SS1604588908321","","null","","","","","","","","","","","","<img src=images/blank.png width =""500"" height = ""500"" style=""border:5px solid black"">","","",""
"","176.98999999265652","stimulus-presentation","203","267938","0.0-17.0-1.44","SS1604588908321","<img src='images/complex/6.png' width ='500' height = '500' style='border:5px solid black'>","40","all_complex","images/complex/1.png","images/complex/6.png","images/complex/4.png,images/complex/15.png,images/complex/9.png,images/complex/3.png,images/complex/13.png,images/complex/7.png,images/complex/18.png","1","null","","200","376.9899999926565","","","","background","",""
"","null","html-keyboard-response","204","269194","0.0-17.0-0.45","SS1604588908321","","null","","","","","","","","","","","","<img src=images/blank.png width =""500"" height = ""500"" style=""border:5px solid black"">","","",""
"","185.97000000590924","stimulus-presentation","205","269584","0.0-17.0-1.45","SS1604588908321","<img src='images/complex/6.png' width ='500' height = '500' style='border:5px solid black'>","40","all_complex","images/complex/1.png","images/complex/6.png","images/complex/4.png,images/complex/15.png,images/complex/9.png,images/complex/3.png,images/complex/13.png,images/complex/7.png,images/complex/18.png","1","null","","200","385.97000000590924","","","","background","",""
"","null","html-keyboard-response","206","270683","0.0-17.0-0.46","SS1604588908321","","null","","","","","","","","","","","","<img src=images/blank.png width =""500"" height = ""500"" style=""border:5px solid black"">","","",""
"","292.18000000400934","stimulus-presentation","207","271182","0.0-17.0-1.46","SS1604588908321","<img src='images/complex/6.png' width ='500' height = '500' style='border:5px solid black'>","40","all_complex","images/complex/1.png","images/complex/6.png","images/complex/4.png,images/complex/15.png,images/complex/9.png,images/complex/3.png,images/complex/13.png,images/complex/7.png,images/complex/18.png","1","null","","200","492.18000000400934","","","","background","",""
"","null","html-keyboard-response","208","272417","0.0-17.0-0.47","SS1604588908321","","null","","","","","","","","","","","","<img src=images/blank.png width =""500"" height = ""500"" style=""border:5px solid black"">","","",""
"","125.45999999565538","stimulus-presentation","209","272752","0.0-17.0-1.47","SS1604588908321","<img src='images/complex/6.png' width ='500' height = '500' style='border:5px solid black'>","40","all_complex","images/complex/1.png","images/complex/6.png","images/complex/4.png,images/complex/15.png,images/complex/9.png,images/complex/3.png,images/complex/13.png,images/complex/7.png,images/complex/18.png","1","null","","200","325.4599999956554","","","","background","",""
"","null","html-keyboard-response","210","274040","0.0-17.0-0.48","SS1604588908321","","null","","","","","","","","","","","","<img src=images/blank.png width =""500"" height = ""500"" style=""border:5px solid black"">","","",""
"","298.7600000051316","stimulus-presentation","211","274547","0.0-17.0-1.48","SS1604588908321","<img src='images/complex/6.png' width ='500' height = '500' style='border:5px solid black'>","40","all_complex","images/complex/1.png","images/complex/6.png","images/complex/4.png,images/complex/15.png,images/complex/9.png,images/complex/3.png,images/complex/13.png,images/complex/7.png,images/complex/18.png","1","null","","200","498.7600000051316","","","","background","",""
"[{""page_index"":0,""viewing_time"":24381}]","24381","task-instructions","212","298931","0.0-18.0","SS1604588908321","","","","","","","","","","","","","","","","",""
"[{""page_index"":0,""viewing_time"":1042.1400000050198},{""page_index"":1,""viewing_time"":2043.9749999932246},{""page_index"":2,""viewing_time"":1953.7249999993946}]","5040.030000003753","instructions","213","303975","0.0-19.0","SS1604588908321","","","","","","","","","","","","","","","","",""
"","null","html-keyboard-response","214","305111","0.0-20.0-0.0","SS1604588908321","","null","","","","","","","","","","","","<img src=images/blank.png width =""500"" height = ""500"" style=""border:5px solid black"">","","",""
"","504.78499999735504","stimulus-presentation","215","305823","0.0-20.0-1.0","SS1604588908321","<img src='images/complex/5.png' width ='500' height = '500' style='border:5px solid black'>","40","mixed_simple_deviant","images/complex/14.png","images/complex/5.png","images/simple/5.png,images/simple/15.png,images/simple/3.png,images/simple/12.png,images/simple/7.png,images/simple/1.png,images/simple/10.png","2","null","","200","704.784999997355","","","","background","",""
"","null","html-keyboard-response","216","306650","0.0-20.0-0.1","SS1604588908321","","null","","","","","","","","","","","","<img src=images/blank.png width =""500"" height = ""500"" style=""border:5px solid black"">","","",""
"","231.5050000033807","stimulus-presentation","217","307088","0.0-20.0-1.1","SS1604588908321","<img src='images/simple/3.png' width ='500' height = '500' style='border:5px solid black'>","40","mixed_simple_deviant","images/complex/14.png","images/complex/5.png","images/simple/5.png,images/simple/15.png,images/simple/3.png,images/simple/12.png,images/simple/7.png,images/simple/1.png,images/simple/10.png","2","null","","200","431.5050000033807","","","","deviant","",""
"","null","html-keyboard-response","218","308138","0.0-20.0-0.2","SS1604588908321","","null","","","","","","","","","","","","<img src=images/blank.png width =""500"" height = ""500"" style=""border:5px solid black"">","","",""
"","220.69000000192318","stimulus-presentation","219","308565","0.0-20.0-1.2","SS1604588908321","<img src='images/complex/5.png' width ='500' height = '500' style='border:5px solid black'>","40","mixed_simple_deviant","images/complex/14.png","images/complex/5.png","images/simple/5.png,images/simple/15.png,images/simple/3.png,images/simple/12.png,images/simple/7.png,images/simple/1.png,images/simple/10.png","2","null","","200","420.6900000019232","","","","background","",""
"","null","html-keyboard-response","220","309514","0.0-20.0-0.3","SS1604588908321","","null","","","","","","","","","","","","<img src=images/blank.png width =""500"" height = ""500"" style=""border:5px solid black"">","","",""
"","215.72500000183936","stimulus-presentation","221","309936","0.0-20.0-1.3","SS1604588908321","<img src='images/complex/5.png' width ='500' height = '500' style='border:5px solid black'>","40","mixed_simple_deviant","images/complex/14.png","images/complex/5.png","images/simple/5.png,images/simple/15.png,images/simple/3.png,images/simple/12.png,images/simple/7.png,images/simple/1.png,images/simple/10.png","2","null","","200","415.72500000183936","","","","background","",""
"","null","html-keyboard-response","222","310789","0.0-20.0-0.4","SS1604588908321","","null","","","","","","","","","","","","<img src=images/blank.png width =""500"" height = ""500"" style=""border:5px solid black"">","","",""
"","769.2749999987427","stimulus-presentation","223","311766","0.0-20.0-1.4","SS1604588908321","<img src='images/complex/14.png' width ='500' height = '500' style='border:5px solid black'>","40","mixed_simple_deviant","images/complex/14.png","images/complex/5.png","images/simple/5.png,images/simple/15.png,images/simple/3.png,images/simple/12.png,images/simple/7.png,images/simple/1.png,images/simple/10.png","2","null","","200","969.2749999987427","yes","459.55999998841435","","target","",""
"","null","html-keyboard-response","224","312578","0.0-20.0-0.5","SS1604588908321","","null","","","","","","","","","","","","<img src=images/blank.png width =""500"" height = ""500"" style=""border:5px solid black"">","","",""
"","151.11999999498948","stimulus-presentation","225","312937","0.0-20.0-1.5","SS1604588908321","<img src='images/complex/5.png' width ='500' height = '500' style='border:5px solid black'>","40","mixed_simple_deviant","images/complex/14.png","images/complex/5.png","images/simple/5.png,images/simple/15.png,images/simple/3.png,images/simple/12.png,images/simple/7.png,images/simple/1.png,images/simple/10.png","2","null","","200","351.1199999949895","","","","background","",""
"","null","html-keyboard-response","226","314121","0.0-20.0-0.6","SS1604588908321","","null","","","","","","","","","","","","<img src=images/blank.png width =""500"" height = ""500"" style=""border:5px solid black"">","","",""
"","197.50500000372995","stimulus-presentation","227","314527","0.0-20.0-1.6","SS1604588908321","<img src='images/complex/5.png' width ='500' height = '500' style='border:5px solid black'>","40","mixed_simple_deviant","images/complex/14.png","images/complex/5.png","images/simple/5.png,images/simple/15.png,images/simple/3.png,images/simple/12.png,images/simple/7.png,images/simple/1.png,images/simple/10.png","2","null","","200","397.50500000372995","","","","background","",""
"","null","html-keyboard-response","228","315738","0.0-20.0-0.7","SS1604588908321","","null","","","","","","","","","","","","<img src=images/blank.png width =""500"" height = ""500"" style=""border:5px solid black"">","","",""
"","424.9850000051083","stimulus-presentation","229","316369","0.0-20.0-1.7","SS1604588908321","<img src='images/simple/10.png' width ='500' height = '500' style='border:5px solid black'>","40","mixed_simple_deviant","images/complex/14.png","images/complex/5.png","images/simple/5.png,images/simple/15.png,images/simple/3.png,images/simple/12.png,images/simple/7.png,images/simple/1.png,images/simple/10.png","2","null","","200","624.9850000051083","","","","deviant","",""
"","null","html-keyboard-response","230","317452","0.0-20.0-0.8","SS1604588908321","","null","","","","","","","","","","","","<img src=images/blank.png width =""500"" height = ""500"" style=""border:5px solid black"">","","",""
"","423.5750000079861","stimulus-presentation","231","318082","0.0-20.0-1.8","SS1604588908321","<img src='images/complex/5.png' width ='500' height = '500' style='border:5px solid black'>","40","mixed_simple_deviant","images/complex/14.png","images/complex/5.png","images/simple/5.png,images/simple/15.png,images/simple/3.png,images/simple/12.png,images/simple/7.png,images/simple/1.png,images/simple/10.png","2","null","","200","623.5750000079861","","","","background","",""
"","null","html-keyboard-response","232","319346","0.0-20.0-0.9","SS1604588908321","","null","","","","","","","","","","","","<img src=images/blank.png width =""500"" height = ""500"" style=""border:5px solid black"">","","",""
"","166.5600000123959","stimulus-presentation","233","319721","0.0-20.0-1.9","SS1604588908321","<img src='images/complex/5.png' width ='500' height = '500' style='border:5px solid black'>","40","mixed_simple_deviant","images/complex/14.png","images/complex/5.png","images/simple/5.png,images/simple/15.png,images/simple/3.png,images/simple/12.png,images/simple/7.png,images/simple/1.png,images/simple/10.png","2","null","","200","366.5600000123959","","","","background","",""
"","null","html-keyboard-response","234","320998","0.0-20.0-0.10","SS1604588908321","","null","","","","","","","","","","","","<img src=images/blank.png width =""500"" height = ""500"" style=""border:5px solid black"">","","",""
"","475.82999999576714","stimulus-presentation","235","321679","0.0-20.0-1.10","SS1604588908321","<img src='images/complex/5.png' width ='500' height = '500' style='border:5px solid black'>","40","mixed_simple_deviant","images/complex/14.png","images/complex/5.png","images/simple/5.png,images/simple/15.png,images/simple/3.png,images/simple/12.png,images/simple/7.png,images/simple/1.png,images/simple/10.png","2","null","","200","675.8299999957671","","","","background","",""
"","null","html-keyboard-response","236","322608","0.0-20.0-0.11","SS1604588908321","","null","","","","","","","","","","","","<img src=images/blank.png width =""500"" height = ""500"" style=""border:5px solid black"">","","",""
"","620.9500000113621","stimulus-presentation","237","323438","0.0-20.0-1.11","SS1604588908321","<img src='images/complex/14.png' width ='500' height = '500' style='border:5px solid black'>","40","mixed_simple_deviant","images/complex/14.png","images/complex/5.png","images/simple/5.png,images/simple/15.png,images/simple/3.png,images/simple/12.png,images/simple/7.png,images/simple/1.png,images/simple/10.png","2","null","","200","820.9500000113621","yes","384.7900000109803","","target","",""
"","null","html-keyboard-response","238","324600","0.0-20.0-0.12","SS1604588908321","","null","","","","","","","","","","","","<img src=images/blank.png width =""500"" height = ""500"" style=""border:5px solid black"">","","",""
"","1498.0950000026496","stimulus-presentation","239","326303","0.0-20.0-1.12","SS1604588908321","<img src='images/complex/5.png' width ='500' height = '500' style='border:5px solid black'>","40","mixed_simple_deviant","images/complex/14.png","images/complex/5.png","images/simple/5.png,images/simple/15.png,images/simple/3.png,images/simple/12.png,images/simple/7.png,images/simple/1.png,images/simple/10.png","2","null","","200","1698.0950000026496","","","","background","",""
"","null","html-keyboard-response","240","327147","0.0-20.0-0.13","SS1604588908321","","null","","","","","","","","","","","","<img src=images/blank.png width =""500"" height = ""500"" style=""border:5px solid black"">","","",""
"","309.4249999994645","stimulus-presentation","241","327665","0.0-20.0-1.13","SS1604588908321","<img src='images/complex/5.png' width ='500' height = '500' style='border:5px solid black'>","40","mixed_simple_deviant","images/complex/14.png","images/complex/5.png","images/simple/5.png,images/simple/15.png,images/simple/3.png,images/simple/12.png,images/simple/7.png,images/simple/1.png,images/simple/10.png","2","null","","200","509.4249999994645","","","","background","",""
"","null","html-keyboard-response","242","328866","0.0-20.0-0.14","SS1604588908321","","null","","","","","","","","","","","","<img src=images/blank.png width =""500"" height = ""500"" style=""border:5px solid black"">","","",""
"","205.74000000488013","stimulus-presentation","243","329278","0.0-20.0-1.14","SS1604588908321","<img src='images/complex/5.png' width ='500' height = '500' style='border:5px solid black'>","40","mixed_simple_deviant","images/complex/14.png","images/complex/5.png","images/simple/5.png,images/simple/15.png,images/simple/3.png,images/simple/12.png,images/simple/7.png,images/simple/1.png,images/simple/10.png","2","null","","200","405.74000000488013","","","","background","",""
"","null","html-keyboard-response","244","330352","0.0-20.0-0.15","SS1604588908321","","null","","","","","","","","","","","","<img src=images/blank.png width =""500"" height = ""500"" style=""border:5px solid black"">","","",""
"","344.23999999125954","stimulus-presentation","245","330905","0.0-20.0-1.15","SS1604588908321","<img src='images/simple/5.png' width ='500' height = '500' style='border:5px solid black'>","40","mixed_simple_deviant","images/complex/14.png","images/complex/5.png","images/simple/5.png,images/simple/15.png,images/simple/3.png,images/simple/12.png,images/simple/7.png,images/simple/1.png,images/simple/10.png","2","null","","200","544.2399999912595","","","","deviant","",""
"","null","html-keyboard-response","246","331732","0.0-20.0-0.16","SS1604588908321","","null","","","","","","","","","","","","<img src=images/blank.png width =""500"" height = ""500"" style=""border:5px solid black"">","","",""
"","185.20999999600463","stimulus-presentation","247","332127","0.0-20.0-1.16","SS1604588908321","<img src='images/complex/5.png' width ='500' height = '500' style='border:5px solid black'>","40","mixed_simple_deviant","images/complex/14.png","images/complex/5.png","images/simple/5.png,images/simple/15.png,images/simple/3.png,images/simple/12.png,images/simple/7.png,images/simple/1.png,images/simple/10.png","2","null","","200","385.2099999960046","","","","background","",""
"","null","html-keyboard-response","248","333082","0.0-20.0-0.17","SS1604588908321","","null","","","","","","","","","","","","<img src=images/blank.png width =""500"" height = ""500"" style=""border:5px solid black"">","","",""
"","159.87000000313856","stimulus-presentation","249","333450","0.0-20.0-1.17","SS1604588908321","<img src='images/complex/5.png' width ='500' height = '500' style='border:5px solid black'>","40","mixed_simple_deviant","images/complex/14.png","images/complex/5.png","images/simple/5.png,images/simple/15.png,images/simple/3.png,images/simple/12.png,images/simple/7.png,images/simple/1.png,images/simple/10.png","2","null","","200","359.87000000313856","","","","background","",""
"","null","html-keyboard-response","250","334603","0.0-20.0-0.18","SS1604588908321","","null","","","","","","","","","","","","<img src=images/blank.png width =""500"" height = ""500"" style=""border:5px solid black"">","","",""
"","107.16499999398366","stimulus-presentation","251","334919","0.0-20.0-1.18","SS1604588908321","<img src='images/complex/5.png' width ='500' height = '500' style='border:5px solid black'>","40","mixed_simple_deviant","images/complex/14.png","images/complex/5.png","images/simple/5.png,images/simple/15.png,images/simple/3.png,images/simple/12.png,images/simple/7.png,images/simple/1.png,images/simple/10.png","2","null","","200","307.16499999398366","","","","background","",""
"","null","html-keyboard-response","252","335855","0.0-20.0-0.19","SS1604588908321","","null","","","","","","","","","","","","<img src=images/blank.png width =""500"" height = ""500"" style=""border:5px solid black"">","","",""
"","346.76000000035856","stimulus-presentation","253","336410","0.0-20.0-1.19","SS1604588908321","<img src='images/simple/1.png' width ='500' height = '500' style='border:5px solid black'>","40","mixed_simple_deviant","images/complex/14.png","images/complex/5.png","images/simple/5.png,images/simple/15.png,images/simple/3.png,images/simple/12.png,images/simple/7.png,images/simple/1.png,images/simple/10.png","2","null","","200","546.7600000003586","","","","deviant","",""
"","null","html-keyboard-response","254","337585","0.0-20.0-0.20","SS1604588908321","","null","","","","","","","","","","","","<img src=images/blank.png width =""500"" height = ""500"" style=""border:5px solid black"">","","",""
"","173.46000000543427","stimulus-presentation","255","337968","0.0-20.0-1.20","SS1604588908321","<img src='images/complex/5.png' width ='500' height = '500' style='border:5px solid black'>","40","mixed_simple_deviant","images/complex/14.png","images/complex/5.png","images/simple/5.png,images/simple/15.png,images/simple/3.png,images/simple/12.png,images/simple/7.png,images/simple/1.png,images/simple/10.png","2","null","","200","373.46000000543427","","","","background","",""
"","null","html-keyboard-response","256","338985","0.0-20.0-0.21","SS1604588908321","","null","","","","","","","","","","","","<img src=images/blank.png width =""500"" height = ""500"" style=""border:5px solid black"">","","",""
"","141.0699999978533","stimulus-presentation","257","339332","0.0-20.0-1.21","SS1604588908321","<img src='images/complex/5.png' width ='500' height = '500' style='border:5px solid black'>","40","mixed_simple_deviant","images/complex/14.png","images/complex/5.png","images/simple/5.png,images/simple/15.png,images/simple/3.png,images/simple/12.png,images/simple/7.png,images/simple/1.png,images/simple/10.png","2","null","","200","341.0699999978533","","","","background","",""
"","null","html-keyboard-response","258","340284","0.0-20.0-0.22","SS1604588908321","","null","","","","","","","","","","","","<img src=images/blank.png width =""500"" height = ""500"" style=""border:5px solid black"">","","",""
"","122.19999999797437","stimulus-presentation","259","340616","0.0-20.0-1.22","SS1604588908321","<img src='images/complex/5.png' width ='500' height = '500' style='border:5px solid black'>","40","mixed_simple_deviant","images/complex/14.png","images/complex/5.png","images/simple/5.png,images/simple/15.png,images/simple/3.png,images/simple/12.png,images/simple/7.png,images/simple/1.png,images/simple/10.png","2","null","","200","322.1999999979744","","","","background","",""
"","null","html-keyboard-response","260","341425","0.0-20.0-0.23","SS1604588908321","","null","","","","","","","","","","","","<img src=images/blank.png width =""500"" height = ""500"" style=""border:5px solid black"">","","",""
"","396.58000000054017","stimulus-presentation","261","342028","0.0-20.0-1.23","SS1604588908321","<img src='images/complex/5.png' width ='500' height = '500' style='border:5px solid black'>","40","mixed_simple_deviant","images/complex/14.png","images/complex/5.png","images/simple/5.png,images/simple/15.png,images/simple/3.png,images/simple/12.png,images/simple/7.png,images/simple/1.png,images/simple/10.png","2","null","","200","596.5800000005402","","","","background","",""
"","null","html-keyboard-response","262","343195","0.0-20.0-0.24","SS1604588908321","","null","","","","","","","","","","","","<img src=images/blank.png width =""500"" height = ""500"" style=""border:5px solid black"">","","",""
"","709.3749999912689","stimulus-presentation","263","344112","0.0-20.0-1.24","SS1604588908321","<img src='images/complex/14.png' width ='500' height = '500' style='border:5px solid black'>","40","mixed_simple_deviant","images/complex/14.png","images/complex/5.png","images/simple/5.png,images/simple/15.png,images/simple/3.png,images/simple/12.png,images/simple/7.png,images/simple/1.png,images/simple/10.png","2","null","","200","909.3749999912689","yes","285.3049999976065","","target","",""
"","null","html-keyboard-response","264","344993","0.0-20.0-0.25","SS1604588908321","","null","","","","","","","","","","","","<img src=images/blank.png width =""500"" height = ""500"" style=""border:5px solid black"">","","",""
"","248.1499999994412","stimulus-presentation","265","345450","0.0-20.0-1.25","SS1604588908321","<img src='images/simple/12.png' width ='500' height = '500' style='border:5px solid black'>","40","mixed_simple_deviant","images/complex/14.png","images/complex/5.png","images/simple/5.png,images/simple/15.png,images/simple/3.png,images/simple/12.png,images/simple/7.png,images/simple/1.png,images/simple/10.png","2","null","","200","448.1499999994412","","","","deviant","",""
"","null","html-keyboard-response","266","346656","0.0-20.0-0.26","SS1604588908321","","null","","","","","","","","","","","","<img src=images/blank.png width =""500"" height = ""500"" style=""border:5px solid black"">","","",""
"","169.209999992745","stimulus-presentation","267","347033","0.0-20.0-1.26","SS1604588908321","<img src='images/complex/5.png' width ='500' height = '500' style='border:5px solid black'>","40","mixed_simple_deviant","images/complex/14.png","images/complex/5.png","images/simple/5.png,images/simple/15.png,images/simple/3.png,images/simple/12.png,images/simple/7.png,images/simple/1.png,images/simple/10.png","2","null","","200","369.209999992745","","","","background","",""
"","null","html-keyboard-response","268","348045","0.0-20.0-0.27","SS1604588908321","","null","","","","","","","","","","","","<img src=images/blank.png width =""500"" height = ""500"" style=""border:5px solid black"">","","",""
"","164.67500000726432","stimulus-presentation","269","348420","0.0-20.0-1.27","SS1604588908321","<img src='images/complex/5.png' width ='500' height = '500' style='border:5px solid black'>","40","mixed_simple_deviant","images/complex/14.png","images/complex/5.png","images/simple/5.png,images/simple/15.png,images/simple/3.png,images/simple/12.png,images/simple/7.png,images/simple/1.png,images/simple/10.png","2","null","","200","364.6750000072643","","","","background","",""
"","null","html-keyboard-response","270","349619","0.0-20.0-0.28","SS1604588908321","","null","","","","","","","","","","","","<img src=images/blank.png width =""500"" height = ""500"" style=""border:5px solid black"">","","",""
"","110.2450000034878","stimulus-presentation","271","349936","0.0-20.0-1.28","SS1604588908321","<img src='images/complex/5.png' width ='500' height = '500' style='border:5px solid black'>","40","mixed_simple_deviant","images/complex/14.png","images/complex/5.png","images/simple/5.png,images/simple/15.png,images/simple/3.png,images/simple/12.png,images/simple/7.png,images/simple/1.png,images/simple/10.png","2","null","","200","310.2450000034878","","","","background","",""
"","null","html-keyboard-response","272","350786","0.0-20.0-0.29","SS1604588908321","","null","","","","","","","","","","","","<img src=images/blank.png width =""500"" height = ""500"" style=""border:5px solid black"">","","",""
"","166.5400000056252","stimulus-presentation","273","351162","0.0-20.0-1.29","SS1604588908321","<img src='images/complex/5.png' width ='500' height = '500' style='border:5px solid black'>","40","mixed_simple_deviant","images/complex/14.png","images/complex/5.png","images/simple/5.png,images/simple/15.png,images/simple/3.png,images/simple/12.png,images/simple/7.png,images/simple/1.png,images/simple/10.png","2","null","","200","366.5400000056252","","","","background","",""
"","null","html-keyboard-response","274","352023","0.0-20.0-0.30","SS1604588908321","","null","","","","","","","","","","","","<img src=images/blank.png width =""500"" height = ""500"" style=""border:5px solid black"">","","",""
"","583.8349999976344","stimulus-presentation","275","352815","0.0-20.0-1.30","SS1604588908321","<img src='images/complex/14.png' width ='500' height = '500' style='border:5px solid black'>","40","mixed_simple_deviant","images/complex/14.png","images/complex/5.png","images/simple/5.png,images/simple/15.png,images/simple/3.png,images/simple/12.png,images/simple/7.png,images/simple/1.png,images/simple/10.png","2","null","","200","783.8349999976344","yes","272.7199999935692","","target","",""
"","null","html-keyboard-response","276","353880","0.0-20.0-0.31","SS1604588908321","","null","","","","","","","","","","","","<img src=images/blank.png width =""500"" height = ""500"" style=""border:5px solid black"">","","",""
"","338.9400000014575","stimulus-presentation","277","354426","0.0-20.0-1.31","SS1604588908321","<img src='images/complex/5.png' width ='500' height = '500' style='border:5px solid black'>","40","mixed_simple_deviant","images/complex/14.png","images/complex/5.png","images/simple/5.png,images/simple/15.png,images/simple/3.png,images/simple/12.png,images/simple/7.png,images/simple/1.png,images/simple/10.png","2","null","","200","538.9400000014575","","","","background","",""
"","null","html-keyboard-response","278","355258","0.0-20.0-0.32","SS1604588908321","","null","","","","","","","","","","","","<img src=images/blank.png width =""500"" height = ""500"" style=""border:5px solid black"">","","",""
"","694.325000004028","stimulus-presentation","279","356160","0.0-20.0-1.32","SS1604588908321","<img src='images/complex/14.png' width ='500' height = '500' style='border:5px solid black'>","40","mixed_simple_deviant","images/complex/14.png","images/complex/5.png","images/simple/5.png,images/simple/15.png,images/simple/3.png,images/simple/12.png,images/simple/7.png,images/simple/1.png,images/simple/10.png","2","null","","200","894.325000004028","yes","334.48000000498723","","target","",""
"","null","html-keyboard-response","280","357305","0.0-20.0-0.33","SS1604588908321","","null","","","","","","","","","","","","<img src=images/blank.png width =""500"" height = ""500"" style=""border:5px solid black"">","","",""
"","627.2150000004331","stimulus-presentation","281","358136","0.0-20.0-1.33","SS1604588908321","<img src='images/complex/14.png' width ='500' height = '500' style='border:5px solid black'>","40","mixed_simple_deviant","images/complex/14.png","images/complex/5.png","images/simple/5.png,images/simple/15.png,images/simple/3.png,images/simple/12.png,images/simple/7.png,images/simple/1.png,images/simple/10.png","2","null","","200","827.2150000004331","yes","355.8150000026217","","target","",""
"","null","html-keyboard-response","282","359084","0.0-20.0-0.34","SS1604588908321","","null","","","","","","","","","","","","<img src=images/blank.png width =""500"" height = ""500"" style=""border:5px solid black"">","","",""
"","309.7649999981513","stimulus-presentation","283","359602","0.0-20.0-1.34","SS1604588908321","<img src='images/simple/15.png' width ='500' height = '500' style='border:5px solid black'>","40","mixed_simple_deviant","images/complex/14.png","images/complex/5.png","images/simple/5.png,images/simple/15.png,images/simple/3.png,images/simple/12.png,images/simple/7.png,images/simple/1.png,images/simple/10.png","2","null","","200","509.7649999981513","","","","deviant","",""
"","null","html-keyboard-response","284","360574","0.0-20.0-0.35","SS1604588908321","","null","","","","","","","","","","","","<img src=images/blank.png width =""500"" height = ""500"" style=""border:5px solid black"">","","",""
