"view_history","rt","trial_type","trial_index","time_elapsed","internal_node_id","subject","trial_stimulus","key_press","task_type","task_target_stimulus","task_background_stimulus","task_deviant_stimuli","task_order_number","block_order_number","trial_order_number","minimum_viewing_duration","trial_looking_time","trial_pressed_space_bar","trial_space_bar_rt","stimulus","trial_stimulus_type","responses","question_order"
"[{""page_index"":0,""viewing_time"":7850.295000011101}]","7850.585000123829","instructions","0","7879","0.0-0.0","SS1604514066284","","","","","","","","","","","","","","","","",""
"[{""page_index"":0,""viewing_time"":11710.315000033006},{""page_index"":1,""viewing_time"":9705.825000070035},{""page_index"":2,""viewing_time"":8450.819999910891},{""page_index"":3,""viewing_time"":61292.800000170246},{""page_index"":4,""viewing_time"":12221.344999969006},{""page_index"":5,""viewing_time"":5053.784999996424},{""page_index"":6,""viewing_time"":2706.389999948442},{""page_index"":7,""viewing_time"":1687.364999903366},{""page_index"":8,""viewing_time"":1404.5049999840558}]","114233.43500006013","instructions","1","122115","0.0-1.0","SS1604514066284","","","","","","","","","","","","","","","","",""
"[{""page_index"":0,""viewing_time"":1646.055000135675},{""page_index"":1,""viewing_time"":11721.22999979183},{""page_index"":2,""viewing_time"":1684.2950000427663}]","15051.780000096187","instructions","2","137168","0.0-2.0","SS1604514066284","","","","","","","","","","","","","","","","",""
"","1046.495000133291","practice-block","3","138418","0.0-3.0","SS1604514066284","<img src='images/practice/practice_background.jpeg' width ='500' height = '500' style='border:5px solid black'>","40","null","images/practice/practice_target.jpg","null","null","null","null","","200","1246.495000133291","","","","","",""
"","null","html-keyboard-response","4","139565","0.0-4.0","SS1604514066284","","null","","","","","","","","","","","","<img src=images/blank.png width =""500"" height = ""500"" style=""border:5px solid black"">","","",""
"","894.289999967441","practice-block","5","140662","0.0-5.0","SS1604514066284","<img src='images/practice/practice_background.jpeg' width ='500' height = '500' style='border:5px solid black'>","40","null","images/practice/practice_target.jpg","null","null","null","null","","200","1094.289999967441","","","","","",""
"","null","html-keyboard-response","6","141561","0.0-6.0","SS1604514066284","","null","","","","","","","","","","","","<img src=images/blank.png width =""500"" height = ""500"" style=""border:5px solid black"">","","",""
"","666.3649999536574","practice-block","7","142431","0.0-7.0","SS1604514066284","<img src='images/practice/practice_deviant.jpeg' width ='500' height = '500' style='border:5px solid black'>","40","null","images/practice/practice_target.jpg","null","null","null","null","","200","866.3649999536574","","","","","",""
"","null","html-keyboard-response","8","143616","0.0-8.0","SS1604514066284","","null","","","","","","","","","","","","<img src=images/blank.png width =""500"" height = ""500"" style=""border:5px solid black"">","","",""
"","4408.4550000261515","practice-block","9","148229","0.0-9.0-0.0","SS1604514066284","<img src='images/practice/practice_target.jpg' width ='500' height = '500' style='border:5px solid black'>","40","null","images/practice/practice_target.jpg","null","null","null","null","","200","4608.4550000261515","yes","671.8550000805408","","","",""
"","null","html-keyboard-response","10","149318","0.0-10.0","SS1604514066284","","null","","","","","","","","","","","","<img src=images/blank.png width =""500"" height = ""500"" style=""border:5px solid black"">","","",""
"","706.2899998854846","practice-block","11","150227","0.0-11.0","SS1604514066284","<img src='images/practice/practice_background.jpeg' width ='500' height = '500' style='border:5px solid black'>","40","null","images/practice/practice_target.jpg","null","null","null","null","","200","906.2899998854846","","","","","",""
"[{""page_index"":0,""viewing_time"":2130}]","2130","task-instructions","12","152360","0.0-12.0","SS1604514066284","","","","","","","","","","","","","","","","",""
"[{""page_index"":0,""viewing_time"":1744.6550000458956},{""page_index"":1,""viewing_time"":6380.579999880865},{""page_index"":2,""viewing_time"":1682.3050000239164}]","9807.759999996051","instructions","13","162169","0.0-13.0","SS1604514066284","","","","","","","","","","","","","","","","",""
"","null","html-keyboard-response","14","163334","0.0-14.0-0.0","SS1604514066284","","null","","","","","","","","","","","","<img src=images/blank.png width =""500"" height = ""500"" style=""border:5px solid black"">","","",""
"","751.4150000642985","stimulus-presentation","15","164296","0.0-14.0-1.0","SS1604514066284","<img src='images/simple/17.png' width ='500' height = '500' style='border:5px solid black'>","40","mixed_complex_deviant","images/simple/6.png","images/simple/17.png","images/complex/9.png,images/complex/8.png,images/complex/1.png,images/complex/16.png,images/complex/13.png,images/complex/11.png,images/complex/3.png","0","null","","200","951.4150000642985","","","","background","",""
"","null","html-keyboard-response","16","165491","0.0-14.0-0.1","SS1604514066284","","null","","","","","","","","","","","","<img src=images/blank.png width =""500"" height = ""500"" style=""border:5px solid black"">","","",""
"","659.6800000406802","stimulus-presentation","17","166355","0.0-14.0-1.1","SS1604514066284","<img src='images/simple/17.png' width ='500' height = '500' style='border:5px solid black'>","40","mixed_complex_deviant","images/simple/6.png","images/simple/17.png","images/complex/9.png,images/complex/8.png,images/complex/1.png,images/complex/16.png,images/complex/13.png,images/complex/11.png,images/complex/3.png","0","null","","200","859.6800000406802","","","","background","",""
"","null","html-keyboard-response","18","167315","0.0-14.0-0.2","SS1604514066284","","null","","","","","","","","","","","","<img src=images/blank.png width =""500"" height = ""500"" style=""border:5px solid black"">","","",""
"","646.8750000931323","stimulus-presentation","19","168166","0.0-14.0-1.2","SS1604514066284","<img src='images/complex/11.png' width ='500' height = '500' style='border:5px solid black'>","40","mixed_complex_deviant","images/simple/6.png","images/simple/17.png","images/complex/9.png,images/complex/8.png,images/complex/1.png,images/complex/16.png,images/complex/13.png,images/complex/11.png,images/complex/3.png","0","null","","200","846.8750000931323","","","","deviant","",""
"","null","html-keyboard-response","20","169357","0.0-14.0-0.3","SS1604514066284","","null","","","","","","","","","","","","<img src=images/blank.png width =""500"" height = ""500"" style=""border:5px solid black"">","","",""
"","606.5550001803786","stimulus-presentation","21","170166","0.0-14.0-1.3","SS1604514066284","<img src='images/simple/17.png' width ='500' height = '500' style='border:5px solid black'>","40","mixed_complex_deviant","images/simple/6.png","images/simple/17.png","images/complex/9.png,images/complex/8.png,images/complex/1.png,images/complex/16.png,images/complex/13.png,images/complex/11.png,images/complex/3.png","0","null","","200","806.5550001803786","","","","background","",""
"","null","html-keyboard-response","22","171027","0.0-14.0-0.4","SS1604514066284","","null","","","","","","","","","","","","<img src=images/blank.png width =""500"" height = ""500"" style=""border:5px solid black"">","","",""
"","5580.374999903142","stimulus-presentation","23","176812","0.0-14.0-1.4","SS1604514066284","<img src='images/simple/6.png' width ='500' height = '500' style='border:5px solid black'>","40","mixed_complex_deviant","images/simple/6.png","images/simple/17.png","images/complex/9.png,images/complex/8.png,images/complex/1.png,images/complex/16.png,images/complex/13.png,images/complex/11.png,images/complex/3.png","0","null","","200","5780.374999903142","yes","3449.4349998421967","","target","",""
"","null","html-keyboard-response","24","177914","0.0-14.0-0.5","SS1604514066284","","null","","","","","","","","","","","","<img src=images/blank.png width =""500"" height = ""500"" style=""border:5px solid black"">","","",""
"","623.6550000030547","stimulus-presentation","25","178742","0.0-14.0-1.5","SS1604514066284","<img src='images/simple/17.png' width ='500' height = '500' style='border:5px solid black'>","40","mixed_complex_deviant","images/simple/6.png","images/simple/17.png","images/complex/9.png,images/complex/8.png,images/complex/1.png,images/complex/16.png,images/complex/13.png,images/complex/11.png,images/complex/3.png","0","null","","200","823.6550000030547","","","","background","",""
"","null","html-keyboard-response","26","179696","0.0-14.0-0.6","SS1604514066284","","null","","","","","","","","","","","","<img src=images/blank.png width =""500"" height = ""500"" style=""border:5px solid black"">","","",""
"","727.8549999464303","stimulus-presentation","27","180628","0.0-14.0-1.6","SS1604514066284","<img src='images/complex/13.png' width ='500' height = '500' style='border:5px solid black'>","40","mixed_complex_deviant","images/simple/6.png","images/simple/17.png","images/complex/9.png,images/complex/8.png,images/complex/1.png,images/complex/16.png,images/complex/13.png,images/complex/11.png,images/complex/3.png","0","null","","200","927.8549999464303","","","","deviant","",""
"","null","html-keyboard-response","28","181665","0.0-14.0-0.7","SS1604514066284","","null","","","","","","","","","","","","<img src=images/blank.png width =""500"" height = ""500"" style=""border:5px solid black"">","","",""
"","474.4100000243634","stimulus-presentation","29","182344","0.0-14.0-1.7","SS1604514066284","<img src='images/simple/17.png' width ='500' height = '500' style='border:5px solid black'>","40","mixed_complex_deviant","images/simple/6.png","images/simple/17.png","images/complex/9.png,images/complex/8.png,images/complex/1.png,images/complex/16.png,images/complex/13.png,images/complex/11.png,images/complex/3.png","0","null","","200","674.4100000243634","","","","background","",""
"","null","html-keyboard-response","30","183249","0.0-14.0-0.8","SS1604514066284","","null","","","","","","","","","","","","<img src=images/blank.png width =""500"" height = ""500"" style=""border:5px solid black"">","","",""
"","628.8900000508875","stimulus-presentation","31","184083","0.0-14.0-1.8","SS1604514066284","<img src='images/simple/17.png' width ='500' height = '500' style='border:5px solid black'>","40","mixed_complex_deviant","images/simple/6.png","images/simple/17.png","images/complex/9.png,images/complex/8.png,images/complex/1.png,images/complex/16.png,images/complex/13.png,images/complex/11.png,images/complex/3.png","0","null","","200","828.8900000508875","","","","background","",""
"","null","html-keyboard-response","32","185266","0.0-14.0-0.9","SS1604514066284","","null","","","","","","","","","","","","<img src=images/blank.png width =""500"" height = ""500"" style=""border:5px solid black"">","","",""
"","551.4100000727922","stimulus-presentation","33","186022","0.0-14.0-1.9","SS1604514066284","<img src='images/simple/17.png' width ='500' height = '500' style='border:5px solid black'>","40","mixed_complex_deviant","images/simple/6.png","images/simple/17.png","images/complex/9.png,images/complex/8.png,images/complex/1.png,images/complex/16.png,images/complex/13.png,images/complex/11.png,images/complex/3.png","0","null","","200","751.4100000727922","","","","background","",""
"","null","html-keyboard-response","34","187010","0.0-14.0-0.10","SS1604514066284","","null","","","","","","","","","","","","<img src=images/blank.png width =""500"" height = ""500"" style=""border:5px solid black"">","","",""
"","751.0999999940395","stimulus-presentation","35","187966","0.0-14.0-1.10","SS1604514066284","<img src='images/complex/9.png' width ='500' height = '500' style='border:5px solid black'>","40","mixed_complex_deviant","images/simple/6.png","images/simple/17.png","images/complex/9.png,images/complex/8.png,images/complex/1.png,images/complex/16.png,images/complex/13.png,images/complex/11.png,images/complex/3.png","0","null","","200","951.0999999940395","","","","deviant","",""
"","null","html-keyboard-response","36","188811","0.0-14.0-0.11","SS1604514066284","","null","","","","","","","","","","","","<img src=images/blank.png width =""500"" height = ""500"" style=""border:5px solid black"">","","",""
"","514.6749999839813","stimulus-presentation","37","189530","0.0-14.0-1.11","SS1604514066284","<img src='images/simple/17.png' width ='500' height = '500' style='border:5px solid black'>","40","mixed_complex_deviant","images/simple/6.png","images/simple/17.png","images/complex/9.png,images/complex/8.png,images/complex/1.png,images/complex/16.png,images/complex/13.png,images/complex/11.png,images/complex/3.png","0","null","","200","714.6749999839813","","","","background","",""
"","null","html-keyboard-response","38","190695","0.0-14.0-0.12","SS1604514066284","","null","","","","","","","","","","","","<img src=images/blank.png width =""500"" height = ""500"" style=""border:5px solid black"">","","",""
"","5446.944999974221","stimulus-presentation","39","196348","0.0-14.0-1.12","SS1604514066284","<img src='images/simple/17.png' width ='500' height = '500' style='border:5px solid black'>","40","mixed_complex_deviant","images/simple/6.png","images/simple/17.png","images/complex/9.png,images/complex/8.png,images/complex/1.png,images/complex/16.png,images/complex/13.png,images/complex/11.png,images/complex/3.png","0","null","","200","5646.944999974221","","","","background","",""
"","null","html-keyboard-response","40","197508","0.0-14.0-0.13","SS1604514066284","","null","","","","","","","","","","","","<img src=images/blank.png width =""500"" height = ""500"" style=""border:5px solid black"">","","",""
"","444.6000000461936","stimulus-presentation","41","198159","0.0-14.0-1.13","SS1604514066284","<img src='images/simple/17.png' width ='500' height = '500' style='border:5px solid black'>","40","mixed_complex_deviant","images/simple/6.png","images/simple/17.png","images/complex/9.png,images/complex/8.png,images/complex/1.png,images/complex/16.png,images/complex/13.png,images/complex/11.png,images/complex/3.png","0","null","","200","644.6000000461936","","","","background","",""
"","null","html-keyboard-response","42","199328","0.0-14.0-0.14","SS1604514066284","","null","","","","","","","","","","","","<img src=images/blank.png width =""500"" height = ""500"" style=""border:5px solid black"">","","",""
"","1089.1950000077486","stimulus-presentation","43","200624","0.0-14.0-1.14","SS1604514066284","<img src='images/simple/17.png' width ='500' height = '500' style='border:5px solid black'>","40","mixed_complex_deviant","images/simple/6.png","images/simple/17.png","images/complex/9.png,images/complex/8.png,images/complex/1.png,images/complex/16.png,images/complex/13.png,images/complex/11.png,images/complex/3.png","0","null","","200","1289.1950000077486","","","","background","",""
"","null","html-keyboard-response","44","201453","0.0-14.0-0.15","SS1604514066284","","null","","","","","","","","","","","","<img src=images/blank.png width =""500"" height = ""500"" style=""border:5px solid black"">","","",""
"","1653.2699998933822","stimulus-presentation","45","203320","0.0-14.0-1.15","SS1604514066284","<img src='images/simple/6.png' width ='500' height = '500' style='border:5px solid black'>","40","mixed_complex_deviant","images/simple/6.png","images/simple/17.png","images/complex/9.png,images/complex/8.png,images/complex/1.png,images/complex/16.png,images/complex/13.png,images/complex/11.png,images/complex/3.png","0","null","","200","1853.2699998933822","yes","690.5199999455363","","target","",""
"","null","html-keyboard-response","46","204293","0.0-14.0-0.16","SS1604514066284","","null","","","","","","","","","","","","<img src=images/blank.png width =""500"" height = ""500"" style=""border:5px solid black"">","","",""
"","470.43999982997775","stimulus-presentation","47","204973","0.0-14.0-1.16","SS1604514066284","<img src='images/simple/17.png' width ='500' height = '500' style='border:5px solid black'>","40","mixed_complex_deviant","images/simple/6.png","images/simple/17.png","images/complex/9.png,images/complex/8.png,images/complex/1.png,images/complex/16.png,images/complex/13.png,images/complex/11.png,images/complex/3.png","0","null","","200","670.4399998299778","","","","background","",""
"","null","html-keyboard-response","48","206141","0.0-14.0-0.17","SS1604514066284","","null","","","","","","","","","","","","<img src=images/blank.png width =""500"" height = ""500"" style=""border:5px solid black"">","","",""
"","513.2500000763685","stimulus-presentation","49","206861","0.0-14.0-1.17","SS1604514066284","<img src='images/simple/17.png' width ='500' height = '500' style='border:5px solid black'>","40","mixed_complex_deviant","images/simple/6.png","images/simple/17.png","images/complex/9.png,images/complex/8.png,images/complex/1.png,images/complex/16.png,images/complex/13.png,images/complex/11.png,images/complex/3.png","0","null","","200","713.2500000763685","","","","background","",""
"","null","html-keyboard-response","50","207878","0.0-14.0-0.18","SS1604514066284","","null","","","","","","","","","","","","<img src=images/blank.png width =""500"" height = ""500"" style=""border:5px solid black"">","","",""
"","86.00999996997416","stimulus-presentation","51","208169","0.0-14.0-1.18","SS1604514066284","<img src='images/simple/6.png' width ='500' height = '500' style='border:5px solid black'>","40","mixed_complex_deviant","images/simple/6.png","images/simple/17.png","images/complex/9.png,images/complex/8.png,images/complex/1.png,images/complex/16.png,images/complex/13.png,images/complex/11.png,images/complex/3.png","0","null","","200","286.00999996997416","","","","target","",""
"","null","html-keyboard-response","52","209339","0.0-14.0-0.19","SS1604514066284","","null","","","","","","","","","","","","<img src=images/blank.png width =""500"" height = ""500"" style=""border:5px solid black"">","","",""
"","799.7149999719113","stimulus-presentation","53","210349","0.0-14.0-1.19","SS1604514066284","<img src='images/simple/17.png' width ='500' height = '500' style='border:5px solid black'>","40","mixed_complex_deviant","images/simple/6.png","images/simple/17.png","images/complex/9.png,images/complex/8.png,images/complex/1.png,images/complex/16.png,images/complex/13.png,images/complex/11.png,images/complex/3.png","0","null","","200","999.7149999719113","","","","background","",""
"","null","html-keyboard-response","54","211220","0.0-14.0-0.20","SS1604514066284","","null","","","","","","","","","","","","<img src=images/blank.png width =""500"" height = ""500"" style=""border:5px solid black"">","","",""
"","6855.94499995932","stimulus-presentation","55","218281","0.0-14.0-1.20","SS1604514066284","<img src='images/complex/8.png' width ='500' height = '500' style='border:5px solid black'>","40","mixed_complex_deviant","images/simple/6.png","images/simple/17.png","images/complex/9.png,images/complex/8.png,images/complex/1.png,images/complex/16.png,images/complex/13.png,images/complex/11.png,images/complex/3.png","0","null","","200","7055.94499995932","","","","deviant","",""
"","null","html-keyboard-response","56","219323","0.0-14.0-0.21","SS1604514066284","","null","","","","","","","","","","","","<img src=images/blank.png width =""500"" height = ""500"" style=""border:5px solid black"">","","",""
"","741.7150000110269","stimulus-presentation","57","220272","0.0-14.0-1.21","SS1604514066284","<img src='images/simple/17.png' width ='500' height = '500' style='border:5px solid black'>","40","mixed_complex_deviant","images/simple/6.png","images/simple/17.png","images/complex/9.png,images/complex/8.png,images/complex/1.png,images/complex/16.png,images/complex/13.png,images/complex/11.png,images/complex/3.png","0","null","","200","941.7150000110269","","","","background","",""
"","null","html-keyboard-response","58","221278","0.0-14.0-0.22","SS1604514066284","","null","","","","","","","","","","","","<img src=images/blank.png width =""500"" height = ""500"" style=""border:5px solid black"">","","",""
"","549.5600001886487","stimulus-presentation","59","222033","0.0-14.0-1.22","SS1604514066284","<img src='images/simple/17.png' width ='500' height = '500' style='border:5px solid black'>","40","mixed_complex_deviant","images/simple/6.png","images/simple/17.png","images/complex/9.png,images/complex/8.png,images/complex/1.png,images/complex/16.png,images/complex/13.png,images/complex/11.png,images/complex/3.png","0","null","","200","749.5600001886487","","","","background","",""
"","null","html-keyboard-response","60","223004","0.0-14.0-0.23","SS1604514066284","","null","","","","","","","","","","","","<img src=images/blank.png width =""500"" height = ""500"" style=""border:5px solid black"">","","",""
"","866.6250000242144","stimulus-presentation","61","224077","0.0-14.0-1.23","SS1604514066284","<img src='images/simple/17.png' width ='500' height = '500' style='border:5px solid black'>","40","mixed_complex_deviant","images/simple/6.png","images/simple/17.png","images/complex/9.png,images/complex/8.png,images/complex/1.png,images/complex/16.png,images/complex/13.png,images/complex/11.png,images/complex/3.png","0","null","","200","1066.6250000242144","","","","background","",""
"","null","html-keyboard-response","62","225052","0.0-14.0-0.24","SS1604514066284","","null","","","","","","","","","","","","<img src=images/blank.png width =""500"" height = ""500"" style=""border:5px solid black"">","","",""
"","683.7100000120699","stimulus-presentation","63","225945","0.0-14.0-1.24","SS1604514066284","<img src='images/simple/17.png' width ='500' height = '500' style='border:5px solid black'>","40","mixed_complex_deviant","images/simple/6.png","images/simple/17.png","images/complex/9.png,images/complex/8.png,images/complex/1.png,images/complex/16.png,images/complex/13.png,images/complex/11.png,images/complex/3.png","0","null","","200","883.7100000120699","","","","background","",""
"","null","html-keyboard-response","64","226978","0.0-14.0-0.25","SS1604514066284","","null","","","","","","","","","","","","<img src=images/blank.png width =""500"" height = ""500"" style=""border:5px solid black"">","","",""
"","1298.1849999632686","stimulus-presentation","65","228482","0.0-14.0-1.25","SS1604514066284","<img src='images/simple/17.png' width ='500' height = '500' style='border:5px solid black'>","40","mixed_complex_deviant","images/simple/6.png","images/simple/17.png","images/complex/9.png,images/complex/8.png,images/complex/1.png,images/complex/16.png,images/complex/13.png,images/complex/11.png,images/complex/3.png","0","null","","200","1498.1849999632686","","","","background","",""
"","null","html-keyboard-response","66","229369","0.0-14.0-0.26","SS1604514066284","","null","","","","","","","","","","","","<img src=images/blank.png width =""500"" height = ""500"" style=""border:5px solid black"">","","",""
"","1012.6150001306087","stimulus-presentation","67","230590","0.0-14.0-1.26","SS1604514066284","<img src='images/complex/16.png' width ='500' height = '500' style='border:5px solid black'>","40","mixed_complex_deviant","images/simple/6.png","images/simple/17.png","images/complex/9.png,images/complex/8.png,images/complex/1.png,images/complex/16.png,images/complex/13.png,images/complex/11.png,images/complex/3.png","0","null","","200","1212.6150001306087","","","","deviant","",""
"","null","html-keyboard-response","68","231599","0.0-14.0-0.27","SS1604514066284","","null","","","","","","","","","","","","<img src=images/blank.png width =""500"" height = ""500"" style=""border:5px solid black"">","","",""
"","1153.0149998143315","stimulus-presentation","69","232961","0.0-14.0-1.27","SS1604514066284","<img src='images/simple/17.png' width ='500' height = '500' style='border:5px solid black'>","40","mixed_complex_deviant","images/simple/6.png","images/simple/17.png","images/complex/9.png,images/complex/8.png,images/complex/1.png,images/complex/16.png,images/complex/13.png,images/complex/11.png,images/complex/3.png","0","null","","200","1353.0149998143315","","","","background","",""
"","null","html-keyboard-response","70","234142","0.0-14.0-0.28","SS1604514066284","","null","","","","","","","","","","","","<img src=images/blank.png width =""500"" height = ""500"" style=""border:5px solid black"">","","",""
"","742.4900000914931","stimulus-presentation","71","235094","0.0-14.0-1.28","SS1604514066284","<img src='images/simple/17.png' width ='500' height = '500' style='border:5px solid black'>","40","mixed_complex_deviant","images/simple/6.png","images/simple/17.png","images/complex/9.png,images/complex/8.png,images/complex/1.png,images/complex/16.png,images/complex/13.png,images/complex/11.png,images/complex/3.png","0","null","","200","942.4900000914931","","","","background","",""
"","null","html-keyboard-response","72","236324","0.0-14.0-0.29","SS1604514066284","","null","","","","","","","","","","","","<img src=images/blank.png width =""500"" height = ""500"" style=""border:5px solid black"">","","",""
"","1212.129999883473","stimulus-presentation","73","237742","0.0-14.0-1.29","SS1604514066284","<img src='images/simple/17.png' width ='500' height = '500' style='border:5px solid black'>","40","mixed_complex_deviant","images/simple/6.png","images/simple/17.png","images/complex/9.png,images/complex/8.png,images/complex/1.png,images/complex/16.png,images/complex/13.png,images/complex/11.png,images/complex/3.png","0","null","","200","1412.129999883473","","","","background","",""
"","null","html-keyboard-response","74","238838","0.0-14.0-0.30","SS1604514066284","","null","","","","","","","","","","","","<img src=images/blank.png width =""500"" height = ""500"" style=""border:5px solid black"">","","",""
"","832.5650000479072","stimulus-presentation","75","239876","0.0-14.0-1.30","SS1604514066284","<img src='images/complex/3.png' width ='500' height = '500' style='border:5px solid black'>","40","mixed_complex_deviant","images/simple/6.png","images/simple/17.png","images/complex/9.png,images/complex/8.png,images/complex/1.png,images/complex/16.png,images/complex/13.png,images/complex/11.png,images/complex/3.png","0","null","","200","1032.5650000479072","","","","deviant","",""
"","null","html-keyboard-response","76","240821","0.0-14.0-0.31","SS1604514066284","","null","","","","","","","","","","","","<img src=images/blank.png width =""500"" height = ""500"" style=""border:5px solid black"">","","",""
"","966.709999833256","stimulus-presentation","77","241995","0.0-14.0-1.31","SS1604514066284","<img src='images/simple/17.png' width ='500' height = '500' style='border:5px solid black'>","40","mixed_complex_deviant","images/simple/6.png","images/simple/17.png","images/complex/9.png,images/complex/8.png,images/complex/1.png,images/complex/16.png,images/complex/13.png,images/complex/11.png,images/complex/3.png","0","null","","200","1166.709999833256","","","","background","",""
"","null","html-keyboard-response","78","242839","0.0-14.0-0.32","SS1604514066284","","null","","","","","","","","","","","","<img src=images/blank.png width =""500"" height = ""500"" style=""border:5px solid black"">","","",""
"","1352.5700001046062","stimulus-presentation","79","244398","0.0-14.0-1.32","SS1604514066284","<img src='images/simple/17.png' width ='500' height = '500' style='border:5px solid black'>","40","mixed_complex_deviant","images/simple/6.png","images/simple/17.png","images/complex/9.png,images/complex/8.png,images/complex/1.png,images/complex/16.png,images/complex/13.png,images/complex/11.png,images/complex/3.png","0","null","","200","1552.5700001046062","","","","background","",""
"","null","html-keyboard-response","80","245306","0.0-14.0-0.33","SS1604514066284","","null","","","","","","","","","","","","<img src=images/blank.png width =""500"" height = ""500"" style=""border:5px solid black"">","","",""
"","1143.6650000978261","stimulus-presentation","81","246657","0.0-14.0-1.33","SS1604514066284","<img src='images/simple/17.png' width ='500' height = '500' style='border:5px solid black'>","40","mixed_complex_deviant","images/simple/6.png","images/simple/17.png","images/complex/9.png,images/complex/8.png,images/complex/1.png,images/complex/16.png,images/complex/13.png,images/complex/11.png,images/complex/3.png","0","null","","200","1343.6650000978261","","","","background","",""
"","null","html-keyboard-response","82","247826","0.0-14.0-0.34","SS1604514066284","","null","","","","","","","","","","","","<img src=images/blank.png width =""500"" height = ""500"" style=""border:5px solid black"">","","",""
"","815.8899999689311","stimulus-presentation","83","248853","0.0-14.0-1.34","SS1604514066284","<img src='images/simple/17.png' width ='500' height = '500' style='border:5px solid black'>","40","mixed_complex_deviant","images/simple/6.png","images/simple/17.png","images/complex/9.png,images/complex/8.png,images/complex/1.png,images/complex/16.png,images/complex/13.png,images/complex/11.png,images/complex/3.png","0","null","","200","1015.8899999689311","","","","background","",""
"","null","html-keyboard-response","84","249773","0.0-14.0-0.35","SS1604514066284","","null","","","","","","","","","","","","<img src=images/blank.png width =""500"" height = ""500"" style=""border:5px solid black"">","","",""
"","895.6049999687821","stimulus-presentation","85","250876","0.0-14.0-1.35","SS1604514066284","<img src='images/simple/17.png' width ='500' height = '500' style='border:5px solid black'>","40","mixed_complex_deviant","images/simple/6.png","images/simple/17.png","images/complex/9.png,images/complex/8.png,images/complex/1.png,images/complex/16.png,images/complex/13.png,images/complex/11.png,images/complex/3.png","0","null","","200","1095.604999968782","","","","background","",""
"","null","html-keyboard-response","86","251702","0.0-14.0-0.36","SS1604514066284","","null","","","","","","","","","","","","<img src=images/blank.png width =""500"" height = ""500"" style=""border:5px solid black"">","","",""
"","650.4249998833984","stimulus-presentation","87","252559","0.0-14.0-1.36","SS1604514066284","<img src='images/complex/1.png' width ='500' height = '500' style='border:5px solid black'>","40","mixed_complex_deviant","images/simple/6.png","images/simple/17.png","images/complex/9.png,images/complex/8.png,images/complex/1.png,images/complex/16.png,images/complex/13.png,images/complex/11.png,images/complex/3.png","0","null","","200","850.4249998833984","","","","deviant","",""
"","null","html-keyboard-response","88","253784","0.0-14.0-0.37","SS1604514066284","","null","","","","","","","","","","","","<img src=images/blank.png width =""500"" height = ""500"" style=""border:5px solid black"">","","",""
"","621.8499999959022","stimulus-presentation","89","254616","0.0-14.0-1.37","SS1604514066284","<img src='images/simple/17.png' width ='500' height = '500' style='border:5px solid black'>","40","mixed_complex_deviant","images/simple/6.png","images/simple/17.png","images/complex/9.png,images/complex/8.png,images/complex/1.png,images/complex/16.png,images/complex/13.png,images/complex/11.png,images/complex/3.png","0","null","","200","821.8499999959022","","","","background","",""
"","null","html-keyboard-response","90","255429","0.0-14.0-0.38","SS1604514066284","","null","","","","","","","","","","","","<img src=images/blank.png width =""500"" height = ""500"" style=""border:5px solid black"">","","",""
"","673.9350000862032","stimulus-presentation","91","256312","0.0-14.0-1.38","SS1604514066284","<img src='images/simple/6.png' width ='500' height = '500' style='border:5px solid black'>","40","mixed_complex_deviant","images/simple/6.png","images/simple/17.png","images/complex/9.png,images/complex/8.png,images/complex/1.png,images/complex/16.png,images/complex/13.png,images/complex/11.png,images/complex/3.png","0","null","","200","873.9350000862032","","","","target","",""
"","null","html-keyboard-response","92","257458","0.0-14.0-0.39","SS1604514066284","","null","","","","","","","","","","","","<img src=images/blank.png width =""500"" height = ""500"" style=""border:5px solid black"">","","",""
"","516.6200001258403","stimulus-presentation","93","258181","0.0-14.0-1.39","SS1604514066284","<img src='images/simple/6.png' width ='500' height = '500' style='border:5px solid black'>","40","mixed_complex_deviant","images/simple/6.png","images/simple/17.png","images/complex/9.png,images/complex/8.png,images/complex/1.png,images/complex/16.png,images/complex/13.png,images/complex/11.png,images/complex/3.png","0","null","","200","716.6200001258403","","","","target","",""
"","null","html-keyboard-response","94","259022","0.0-14.0-0.40","SS1604514066284","","null","","","","","","","","","","","","<img src=images/blank.png width =""500"" height = ""500"" style=""border:5px solid black"">","","",""
"","2259.4500000122935","stimulus-presentation","95","261501","0.0-14.0-1.40","SS1604514066284","<img src='images/simple/6.png' width ='500' height = '500' style='border:5px solid black'>","40","mixed_complex_deviant","images/simple/6.png","images/simple/17.png","images/complex/9.png,images/complex/8.png,images/complex/1.png,images/complex/16.png,images/complex/13.png,images/complex/11.png,images/complex/3.png","0","null","","200","2459.4500000122935","yes","826.0300001129508","","target","",""
"","null","html-keyboard-response","96","262716","0.0-14.0-0.41","SS1604514066284","","null","","","","","","","","","","","","<img src=images/blank.png width =""500"" height = ""500"" style=""border:5px solid black"">","","",""
"","949.9099999666214","stimulus-presentation","97","263875","0.0-14.0-1.41","SS1604514066284","<img src='images/simple/17.png' width ='500' height = '500' style='border:5px solid black'>","40","mixed_complex_deviant","images/simple/6.png","images/simple/17.png","images/complex/9.png,images/complex/8.png,images/complex/1.png,images/complex/16.png,images/complex/13.png,images/complex/11.png,images/complex/3.png","0","null","","200","1149.9099999666214","","","","background","",""
"","null","html-keyboard-response","98","265022","0.0-14.0-0.42","SS1604514066284","","null","","","","","","","","","","","","<img src=images/blank.png width =""500"" height = ""500"" style=""border:5px solid black"">","","",""
"","574.0149999037385","stimulus-presentation","99","265804","0.0-14.0-1.42","SS1604514066284","<img src='images/simple/17.png' width ='500' height = '500' style='border:5px solid black'>","40","mixed_complex_deviant","images/simple/6.png","images/simple/17.png","images/complex/9.png,images/complex/8.png,images/complex/1.png,images/complex/16.png,images/complex/13.png,images/complex/11.png,images/complex/3.png","0","null","","200","774.0149999037385","","","","background","",""
"","null","html-keyboard-response","100","266870","0.0-14.0-0.43","SS1604514066284","","null","","","","","","","","","","","","<img src=images/blank.png width =""500"" height = ""500"" style=""border:5px solid black"">","","",""
"","557.5899998657405","stimulus-presentation","101","267635","0.0-14.0-1.43","SS1604514066284","<img src='images/simple/17.png' width ='500' height = '500' style='border:5px solid black'>","40","mixed_complex_deviant","images/simple/6.png","images/simple/17.png","images/complex/9.png,images/complex/8.png,images/complex/1.png,images/complex/16.png,images/complex/13.png,images/complex/11.png,images/complex/3.png","0","null","","200","757.5899998657405","","","","background","",""
"","null","html-keyboard-response","102","268540","0.0-14.0-0.44","SS1604514066284","","null","","","","","","","","","","","","<img src=images/blank.png width =""500"" height = ""500"" style=""border:5px solid black"">","","",""
"","1832.850000122562","stimulus-presentation","103","270580","0.0-14.0-1.44","SS1604514066284","<img src='images/simple/6.png' width ='500' height = '500' style='border:5px solid black'>","40","mixed_complex_deviant","images/simple/6.png","images/simple/17.png","images/complex/9.png,images/complex/8.png,images/complex/1.png,images/complex/16.png,images/complex/13.png,images/complex/11.png,images/complex/3.png","0","null","","200","2032.850000122562","yes","759.2800001148134","","target","",""
"","null","html-keyboard-response","104","271716","0.0-14.0-0.45","SS1604514066284","","null","","","","","","","","","","","","<img src=images/blank.png width =""500"" height = ""500"" style=""border:5px solid black"">","","",""
"","649.1799999494106","stimulus-presentation","105","272574","0.0-14.0-1.45","SS1604514066284","<img src='images/simple/17.png' width ='500' height = '500' style='border:5px solid black'>","40","mixed_complex_deviant","images/simple/6.png","images/simple/17.png","images/complex/9.png,images/complex/8.png,images/complex/1.png,images/complex/16.png,images/complex/13.png,images/complex/11.png,images/complex/3.png","0","null","","200","849.1799999494106","","","","background","",""
"","null","html-keyboard-response","106","273863","0.0-14.0-0.46","SS1604514066284","","null","","","","","","","","","","","","<img src=images/blank.png width =""500"" height = ""500"" style=""border:5px solid black"">","","",""
"","693.7100000213832","stimulus-presentation","107","274766","0.0-14.0-1.46","SS1604514066284","<img src='images/simple/17.png' width ='500' height = '500' style='border:5px solid black'>","40","mixed_complex_deviant","images/simple/6.png","images/simple/17.png","images/complex/9.png,images/complex/8.png,images/complex/1.png,images/complex/16.png,images/complex/13.png,images/complex/11.png,images/complex/3.png","0","null","","200","893.7100000213832","","","","background","",""
"","null","html-keyboard-response","108","275635","0.0-14.0-0.47","SS1604514066284","","null","","","","","","","","","","","","<img src=images/blank.png width =""500"" height = ""500"" style=""border:5px solid black"">","","",""
"","725.5049999803305","stimulus-presentation","109","276568","0.0-14.0-1.47","SS1604514066284","<img src='images/simple/17.png' width ='500' height = '500' style='border:5px solid black'>","40","mixed_complex_deviant","images/simple/6.png","images/simple/17.png","images/complex/9.png,images/complex/8.png,images/complex/1.png,images/complex/16.png,images/complex/13.png,images/complex/11.png,images/complex/3.png","0","null","","200","925.5049999803305","","","","background","",""
"","null","html-keyboard-response","110","277773","0.0-14.0-0.48","SS1604514066284","","null","","","","","","","","","","","","<img src=images/blank.png width =""500"" height = ""500"" style=""border:5px solid black"">","","",""
"","655.2699999883771","stimulus-presentation","111","278643","0.0-14.0-1.48","SS1604514066284","<img src='images/simple/17.png' width ='500' height = '500' style='border:5px solid black'>","40","mixed_complex_deviant","images/simple/6.png","images/simple/17.png","images/complex/9.png,images/complex/8.png,images/complex/1.png,images/complex/16.png,images/complex/13.png,images/complex/11.png,images/complex/3.png","0","null","","200","855.2699999883771","","","","background","",""
"[{""page_index"":0,""viewing_time"":5158}]","5158","task-instructions","112","283809","0.0-15.0","SS1604514066284","","","","","","","","","","","","","","","","",""
"[{""page_index"":0,""viewing_time"":1943.3699999935925},{""page_index"":1,""viewing_time"":4969.584999838844},{""page_index"":2,""viewing_time"":2102.140000090003}]","9015.469999983907","instructions","113","292837","0.0-16.0","SS1604514066284","","","","","","","","","","","","","","","","",""
"","null","html-keyboard-response","114","293961","0.0-17.0-0.0","SS1604514066284","","null","","","","","","","","","","","","<img src=images/blank.png width =""500"" height = ""500"" style=""border:5px solid black"">","","",""
"","805.7150000240654","stimulus-presentation","115","294981","0.0-17.0-1.0","SS1604514066284","<img src='images/complex/18.png' width ='500' height = '500' style='border:5px solid black'>","40","all_complex","images/complex/6.png","images/complex/18.png","images/complex/14.png,images/complex/5.png,images/complex/12.png,images/complex/7.png,images/complex/10.png,images/complex/4.png,images/complex/15.png","1","null","","200","1005.7150000240654","","","","background","",""
"","null","html-keyboard-response","116","296223","0.0-17.0-0.1","SS1604514066284","","null","","","","","","","","","","","","<img src=images/blank.png width =""500"" height = ""500"" style=""border:5px solid black"">","","",""
"","859.2949998565018","stimulus-presentation","117","297294","0.0-17.0-1.1","SS1604514066284","<img src='images/complex/18.png' width ='500' height = '500' style='border:5px solid black'>","40","all_complex","images/complex/6.png","images/complex/18.png","images/complex/14.png,images/complex/5.png,images/complex/12.png,images/complex/7.png,images/complex/10.png,images/complex/4.png,images/complex/15.png","1","null","","200","1059.2949998565018","","","","background","",""
"","null","html-keyboard-response","118","298416","0.0-17.0-0.2","SS1604514066284","","null","","","","","","","","","","","","<img src=images/blank.png width =""500"" height = ""500"" style=""border:5px solid black"">","","",""
"","793.0199999827892","stimulus-presentation","119","299421","0.0-17.0-1.2","SS1604514066284","<img src='images/complex/18.png' width ='500' height = '500' style='border:5px solid black'>","40","all_complex","images/complex/6.png","images/complex/18.png","images/complex/14.png,images/complex/5.png,images/complex/12.png,images/complex/7.png,images/complex/10.png,images/complex/4.png,images/complex/15.png","1","null","","200","993.0199999827892","","","","background","",""
"","null","html-keyboard-response","120","300643","0.0-17.0-0.3","SS1604514066284","","null","","","","","","","","","","","","<img src=images/blank.png width =""500"" height = ""500"" style=""border:5px solid black"">","","",""
"","1767.7899999544024","stimulus-presentation","121","302625","0.0-17.0-1.3","SS1604514066284","<img src='images/complex/6.png' width ='500' height = '500' style='border:5px solid black'>","40","all_complex","images/complex/6.png","images/complex/18.png","images/complex/14.png,images/complex/5.png,images/complex/12.png,images/complex/7.png,images/complex/10.png,images/complex/4.png,images/complex/15.png","1","null","","200","1967.7899999544024","yes","635.6199998408556","","target","",""
"","null","html-keyboard-response","122","303606","0.0-17.0-0.4","SS1604514066284","","null","","","","","","","","","","","","<img src=images/blank.png width =""500"" height = ""500"" style=""border:5px solid black"">","","",""
"","614.3799999263138","stimulus-presentation","123","304436","0.0-17.0-1.4","SS1604514066284","<img src='images/complex/18.png' width ='500' height = '500' style='border:5px solid black'>","40","all_complex","images/complex/6.png","images/complex/18.png","images/complex/14.png,images/complex/5.png,images/complex/12.png,images/complex/7.png,images/complex/10.png,images/complex/4.png,images/complex/15.png","1","null","","200","814.3799999263138","","","","background","",""
"","null","html-keyboard-response","124","305346","0.0-17.0-0.5","SS1604514066284","","null","","","","","","","","","","","","<img src=images/blank.png width =""500"" height = ""500"" style=""border:5px solid black"">","","",""
"","566.4500000420958","stimulus-presentation","125","306122","0.0-17.0-1.5","SS1604514066284","<img src='images/complex/15.png' width ='500' height = '500' style='border:5px solid black'>","40","all_complex","images/complex/6.png","images/complex/18.png","images/complex/14.png,images/complex/5.png,images/complex/12.png,images/complex/7.png,images/complex/10.png,images/complex/4.png,images/complex/15.png","1","null","","200","766.4500000420958","","","","deviant","",""
"","null","html-keyboard-response","126","307116","0.0-17.0-0.6","SS1604514066284","","null","","","","","","","","","","","","<img src=images/blank.png width =""500"" height = ""500"" style=""border:5px solid black"">","","",""
"","665.345000103116","stimulus-presentation","127","307990","0.0-17.0-1.6","SS1604514066284","<img src='images/complex/18.png' width ='500' height = '500' style='border:5px solid black'>","40","all_complex","images/complex/6.png","images/complex/18.png","images/complex/14.png,images/complex/5.png,images/complex/12.png,images/complex/7.png,images/complex/10.png,images/complex/4.png,images/complex/15.png","1","null","","200","865.345000103116","","","","background","",""
"","null","html-keyboard-response","128","308891","0.0-17.0-0.7","SS1604514066284","","null","","","","","","","","","","","","<img src=images/blank.png width =""500"" height = ""500"" style=""border:5px solid black"">","","",""
"","708.8900001253933","stimulus-presentation","129","309812","0.0-17.0-1.7","SS1604514066284","<img src='images/complex/18.png' width ='500' height = '500' style='border:5px solid black'>","40","all_complex","images/complex/6.png","images/complex/18.png","images/complex/14.png,images/complex/5.png,images/complex/12.png,images/complex/7.png,images/complex/10.png,images/complex/4.png,images/complex/15.png","1","null","","200","908.8900001253933","","","","background","",""
"","null","html-keyboard-response","130","310912","0.0-17.0-0.8","SS1604514066284","","null","","","","","","","","","","","","<img src=images/blank.png width =""500"" height = ""500"" style=""border:5px solid black"">","","",""
"","1565.6999999191612","stimulus-presentation","131","312686","0.0-17.0-1.8","SS1604514066284","<img src='images/complex/6.png' width ='500' height = '500' style='border:5px solid black'>","40","all_complex","images/complex/6.png","images/complex/18.png","images/complex/14.png,images/complex/5.png,images/complex/12.png,images/complex/7.png,images/complex/10.png,images/complex/4.png,images/complex/15.png","1","null","","200","1765.6999999191612","yes","752.2749998606741","","target","",""
"","null","html-keyboard-response","132","313669","0.0-17.0-0.9","SS1604514066284","","null","","","","","","","","","","","","<img src=images/blank.png width =""500"" height = ""500"" style=""border:5px solid black"">","","",""
"","617.3450001515448","stimulus-presentation","133","314501","0.0-17.0-1.9","SS1604514066284","<img src='images/complex/18.png' width ='500' height = '500' style='border:5px solid black'>","40","all_complex","images/complex/6.png","images/complex/18.png","images/complex/14.png,images/complex/5.png,images/complex/12.png,images/complex/7.png,images/complex/10.png,images/complex/4.png,images/complex/15.png","1","null","","200","817.3450001515448","","","","background","",""
"","null","html-keyboard-response","134","315676","0.0-17.0-0.10","SS1604514066284","","null","","","","","","","","","","","","<img src=images/blank.png width =""500"" height = ""500"" style=""border:5px solid black"">","","",""
"","1047.9950001463294","stimulus-presentation","135","316945","0.0-17.0-1.10","SS1604514066284","<img src='images/complex/18.png' width ='500' height = '500' style='border:5px solid black'>","40","all_complex","images/complex/6.png","images/complex/18.png","images/complex/14.png,images/complex/5.png,images/complex/12.png,images/complex/7.png,images/complex/10.png,images/complex/4.png,images/complex/15.png","1","null","","200","1247.9950001463294","","","","background","",""
"","null","html-keyboard-response","136","318041","0.0-17.0-0.11","SS1604514066284","","null","","","","","","","","","","","","<img src=images/blank.png width =""500"" height = ""500"" style=""border:5px solid black"">","","",""
"","556.71999999322","stimulus-presentation","137","318814","0.0-17.0-1.11","SS1604514066284","<img src='images/complex/18.png' width ='500' height = '500' style='border:5px solid black'>","40","all_complex","images/complex/6.png","images/complex/18.png","images/complex/14.png,images/complex/5.png,images/complex/12.png,images/complex/7.png,images/complex/10.png,images/complex/4.png,images/complex/15.png","1","null","","200","756.71999999322","","","","background","",""
"","null","html-keyboard-response","138","319703","0.0-17.0-0.12","SS1604514066284","","null","","","","","","","","","","","","<img src=images/blank.png width =""500"" height = ""500"" style=""border:5px solid black"">","","",""
"","4709.904999937862","stimulus-presentation","139","324630","0.0-17.0-1.12","SS1604514066284","<img src='images/complex/6.png' width ='500' height = '500' style='border:5px solid black'>","40","all_complex","images/complex/6.png","images/complex/18.png","images/complex/14.png,images/complex/5.png,images/complex/12.png,images/complex/7.png,images/complex/10.png,images/complex/4.png,images/complex/15.png","1","null","","200","4909.904999937862","yes","1964.075000025332","","target","",""
"","null","html-keyboard-response","140","325510","0.0-17.0-0.13","SS1604514066284","","null","","","","","","","","","","","","<img src=images/blank.png width =""500"" height = ""500"" style=""border:5px solid black"">","","",""
"","617.3950000666082","stimulus-presentation","141","326338","0.0-17.0-1.13","SS1604514066284","<img src='images/complex/18.png' width ='500' height = '500' style='border:5px solid black'>","40","all_complex","images/complex/6.png","images/complex/18.png","images/complex/14.png,images/complex/5.png,images/complex/12.png,images/complex/7.png,images/complex/10.png,images/complex/4.png,images/complex/15.png","1","null","","200","817.3950000666082","","","","background","",""
"","null","html-keyboard-response","142","327309","0.0-17.0-0.14","SS1604514066284","","null","","","","","","","","","","","","<img src=images/blank.png width =""500"" height = ""500"" style=""border:5px solid black"">","","",""
"","519.7799999732524","stimulus-presentation","143","328044","0.0-17.0-1.14","SS1604514066284","<img src='images/complex/18.png' width ='500' height = '500' style='border:5px solid black'>","40","all_complex","images/complex/6.png","images/complex/18.png","images/complex/14.png,images/complex/5.png,images/complex/12.png,images/complex/7.png,images/complex/10.png,images/complex/4.png,images/complex/15.png","1","null","","200","719.7799999732524","","","","background","",""
"","null","html-keyboard-response","144","329350","0.0-17.0-0.15","SS1604514066284","","null","","","","","","","","","","","","<img src=images/blank.png width =""500"" height = ""500"" style=""border:5px solid black"">","","",""
"","625.8199999574572","stimulus-presentation","145","330190","0.0-17.0-1.15","SS1604514066284","<img src='images/complex/18.png' width ='500' height = '500' style='border:5px solid black'>","40","all_complex","images/complex/6.png","images/complex/18.png","images/complex/14.png,images/complex/5.png,images/complex/12.png,images/complex/7.png,images/complex/10.png,images/complex/4.png,images/complex/15.png","1","null","","200","825.8199999574572","","","","background","",""
"","null","html-keyboard-response","146","331012","0.0-17.0-0.16","SS1604514066284","","null","","","","","","","","","","","","<img src=images/blank.png width =""500"" height = ""500"" style=""border:5px solid black"">","","",""
"","1271.1750001180917","stimulus-presentation","147","332492","0.0-17.0-1.16","SS1604514066284","<img src='images/complex/14.png' width ='500' height = '500' style='border:5px solid black'>","40","all_complex","images/complex/6.png","images/complex/18.png","images/complex/14.png,images/complex/5.png,images/complex/12.png,images/complex/7.png,images/complex/10.png,images/complex/4.png,images/complex/15.png","1","null","","200","1471.1750001180917","","","","deviant","",""
"","null","html-keyboard-response","148","333759","0.0-17.0-0.17","SS1604514066284","","null","","","","","","","","","","","","<img src=images/blank.png width =""500"" height = ""500"" style=""border:5px solid black"">","","",""
"","1899.3199998512864","stimulus-presentation","149","335871","0.0-17.0-1.17","SS1604514066284","<img src='images/complex/18.png' width ='500' height = '500' style='border:5px solid black'>","40","all_complex","images/complex/6.png","images/complex/18.png","images/complex/14.png,images/complex/5.png,images/complex/12.png,images/complex/7.png,images/complex/10.png,images/complex/4.png,images/complex/15.png","1","null","","200","2099.3199998512864","","","","background","",""
"","null","html-keyboard-response","150","336898","0.0-17.0-0.18","SS1604514066284","","null","","","","","","","","","","","","<img src=images/blank.png width =""500"" height = ""500"" style=""border:5px solid black"">","","",""
"","1008.0099999904633","stimulus-presentation","151","338120","0.0-17.0-1.18","SS1604514066284","<img src='images/complex/18.png' width ='500' height = '500' style='border:5px solid black'>","40","all_complex","images/complex/6.png","images/complex/18.png","images/complex/14.png,images/complex/5.png,images/complex/12.png,images/complex/7.png,images/complex/10.png,images/complex/4.png,images/complex/15.png","1","null","","200","1208.0099999904633","","","","background","",""
"","null","html-keyboard-response","152","339193","0.0-17.0-0.19","SS1604514066284","","null","","","","","","","","","","","","<img src=images/blank.png width =""500"" height = ""500"" style=""border:5px solid black"">","","",""
"","648.3799999114126","stimulus-presentation","153","340056","0.0-17.0-1.19","SS1604514066284","<img src='images/complex/18.png' width ='500' height = '500' style='border:5px solid black'>","40","all_complex","images/complex/6.png","images/complex/18.png","images/complex/14.png,images/complex/5.png,images/complex/12.png,images/complex/7.png,images/complex/10.png,images/complex/4.png,images/complex/15.png","1","null","","200","848.3799999114126","","","","background","",""
"","null","html-keyboard-response","154","341243","0.0-17.0-0.20","SS1604514066284","","null","","","","","","","","","","","","<img src=images/blank.png width =""500"" height = ""500"" style=""border:5px solid black"">","","",""
"","551.0700000450015","stimulus-presentation","155","342005","0.0-17.0-1.20","SS1604514066284","<img src='images/complex/18.png' width ='500' height = '500' style='border:5px solid black'>","40","all_complex","images/complex/6.png","images/complex/18.png","images/complex/14.png,images/complex/5.png,images/complex/12.png,images/complex/7.png,images/complex/10.png,images/complex/4.png,images/complex/15.png","1","null","","200","751.0700000450015","","","","background","",""
"","null","html-keyboard-response","156","343042","0.0-17.0-0.21","SS1604514066284","","null","","","","","","","","","","","","<img src=images/blank.png width =""500"" height = ""500"" style=""border:5px solid black"">","","",""
"","1349.225000012666","stimulus-presentation","157","344600","0.0-17.0-1.21","SS1604514066284","<img src='images/complex/18.png' width ='500' height = '500' style='border:5px solid black'>","40","all_complex","images/complex/6.png","images/complex/18.png","images/complex/14.png,images/complex/5.png,images/complex/12.png,images/complex/7.png,images/complex/10.png,images/complex/4.png,images/complex/15.png","1","null","","200","1549.225000012666","","","","background","",""
"","null","html-keyboard-response","158","345433","0.0-17.0-0.22","SS1604514066284","","null","","","","","","","","","","","","<img src=images/blank.png width =""500"" height = ""500"" style=""border:5px solid black"">","","",""
"","1833.8249998632818","stimulus-presentation","159","347482","0.0-17.0-1.22","SS1604514066284","<img src='images/complex/6.png' width ='500' height = '500' style='border:5px solid black'>","40","all_complex","images/complex/6.png","images/complex/18.png","images/complex/14.png,images/complex/5.png,images/complex/12.png,images/complex/7.png,images/complex/10.png,images/complex/4.png,images/complex/15.png","1","null","","200","2033.8249998632818","yes","776.2749998364598","","target","",""
"","null","html-keyboard-response","160","348623","0.0-17.0-0.23","SS1604514066284","","null","","","","","","","","","","","","<img src=images/blank.png width =""500"" height = ""500"" style=""border:5px solid black"">","","",""
"","738.8999999966472","stimulus-presentation","161","349580","0.0-17.0-1.23","SS1604514066284","<img src='images/complex/18.png' width ='500' height = '500' style='border:5px solid black'>","40","all_complex","images/complex/6.png","images/complex/18.png","images/complex/14.png,images/complex/5.png,images/complex/12.png,images/complex/7.png,images/complex/10.png,images/complex/4.png,images/complex/15.png","1","null","","200","938.8999999966472","","","","background","",""
"","null","html-keyboard-response","162","350408","0.0-17.0-0.24","SS1604514066284","","null","","","","","","","","","","","","<img src=images/blank.png width =""500"" height = ""500"" style=""border:5px solid black"">","","",""
"","734.3599998857826","stimulus-presentation","163","351359","0.0-17.0-1.24","SS1604514066284","<img src='images/complex/10.png' width ='500' height = '500' style='border:5px solid black'>","40","all_complex","images/complex/6.png","images/complex/18.png","images/complex/14.png,images/complex/5.png,images/complex/12.png,images/complex/7.png,images/complex/10.png,images/complex/4.png,images/complex/15.png","1","null","","200","934.3599998857826","","","","deviant","",""
"","null","html-keyboard-response","164","352562","0.0-17.0-0.25","SS1604514066284","","null","","","","","","","","","","","","<img src=images/blank.png width =""500"" height = ""500"" style=""border:5px solid black"">","","",""
"","1524.2500000167638","stimulus-presentation","165","354301","0.0-17.0-1.25","SS1604514066284","<img src='images/complex/6.png' width ='500' height = '500' style='border:5px solid black'>","40","all_complex","images/complex/6.png","images/complex/18.png","images/complex/14.png,images/complex/5.png,images/complex/12.png,images/complex/7.png,images/complex/10.png,images/complex/4.png,images/complex/15.png","1","null","","200","1724.2500000167638","yes","639.9550000205636","","target","",""
"","null","html-keyboard-response","166","355269","0.0-17.0-0.26","SS1604514066284","","null","","","","","","","","","","","","<img src=images/blank.png width =""500"" height = ""500"" style=""border:5px solid black"">","","",""
"","637.6499999314547","stimulus-presentation","167","356121","0.0-17.0-1.26","SS1604514066284","<img src='images/complex/18.png' width ='500' height = '500' style='border:5px solid black'>","40","all_complex","images/complex/6.png","images/complex/18.png","images/complex/14.png,images/complex/5.png,images/complex/12.png,images/complex/7.png,images/complex/10.png,images/complex/4.png,images/complex/15.png","1","null","","200","837.6499999314547","","","","background","",""
"","null","html-keyboard-response","168","357394","0.0-17.0-0.27","SS1604514066284","","null","","","","","","","","","","","","<img src=images/blank.png width =""500"" height = ""500"" style=""border:5px solid black"">","","",""
"","692.124999826774","stimulus-presentation","169","358304","0.0-17.0-1.27","SS1604514066284","<img src='images/complex/4.png' width ='500' height = '500' style='border:5px solid black'>","40","all_complex","images/complex/6.png","images/complex/18.png","images/complex/14.png,images/complex/5.png,images/complex/12.png,images/complex/7.png,images/complex/10.png,images/complex/4.png,images/complex/15.png","1","null","","200","892.124999826774","","","","deviant","",""
"","null","html-keyboard-response","170","359298","0.0-17.0-0.28","SS1604514066284","","null","","","","","","","","","","","","<img src=images/blank.png width =""500"" height = ""500"" style=""border:5px solid black"">","","",""
"","548.4599999617785","stimulus-presentation","171","360057","0.0-17.0-1.28","SS1604514066284","<img src='images/complex/18.png' width ='500' height = '500' style='border:5px solid black'>","40","all_complex","images/complex/6.png","images/complex/18.png","images/complex/14.png,images/complex/5.png,images/complex/12.png,images/complex/7.png,images/complex/10.png,images/complex/4.png,images/complex/15.png","1","null","","200","748.4599999617785","","","","background","",""
"","null","html-keyboard-response","172","361144","0.0-17.0-0.29","SS1604514066284","","null","","","","","","","","","","","","<img src=images/blank.png width =""500"" height = ""500"" style=""border:5px solid black"">","","",""
"","572.9900000151247","stimulus-presentation","173","361929","0.0-17.0-1.29","SS1604514066284","<img src='images/complex/18.png' width ='500' height = '500' style='border:5px solid black'>","40","all_complex","images/complex/6.png","images/complex/18.png","images/complex/14.png,images/complex/5.png,images/complex/12.png,images/complex/7.png,images/complex/10.png,images/complex/4.png,images/complex/15.png","1","null","","200","772.9900000151247","","","","background","",""
"","null","html-keyboard-response","174","362998","0.0-17.0-0.30","SS1604514066284","","null","","","","","","","","","","","","<img src=images/blank.png width =""500"" height = ""500"" style=""border:5px solid black"">","","",""
"","540.7899999991059","stimulus-presentation","175","363749","0.0-17.0-1.30","SS1604514066284","<img src='images/complex/18.png' width ='500' height = '500' style='border:5px solid black'>","40","all_complex","images/complex/6.png","images/complex/18.png","images/complex/14.png,images/complex/5.png,images/complex/12.png,images/complex/7.png,images/complex/10.png,images/complex/4.png,images/complex/15.png","1","null","","200","740.7899999991059","","","","background","",""
"","null","html-keyboard-response","176","364570","0.0-17.0-0.31","SS1604514066284","","null","","","","","","","","","","","","<img src=images/blank.png width =""500"" height = ""500"" style=""border:5px solid black"">","","",""
"","710.0349999964237","stimulus-presentation","177","365490","0.0-17.0-1.31","SS1604514066284","<img src='images/complex/18.png' width ='500' height = '500' style='border:5px solid black'>","40","all_complex","images/complex/6.png","images/complex/18.png","images/complex/14.png,images/complex/5.png,images/complex/12.png,images/complex/7.png,images/complex/10.png,images/complex/4.png,images/complex/15.png","1","null","","200","910.0349999964237","","","","background","",""
"","null","html-keyboard-response","178","366321","0.0-17.0-0.32","SS1604514066284","","null","","","","","","","","","","","","<img src=images/blank.png width =""500"" height = ""500"" style=""border:5px solid black"">","","",""
"","594.9000001419336","stimulus-presentation","179","367126","0.0-17.0-1.32","SS1604514066284","<img src='images/complex/18.png' width ='500' height = '500' style='border:5px solid black'>","40","all_complex","images/complex/6.png","images/complex/18.png","images/complex/14.png,images/complex/5.png,images/complex/12.png,images/complex/7.png,images/complex/10.png,images/complex/4.png,images/complex/15.png","1","null","","200","794.9000001419336","","","","background","",""
"","null","html-keyboard-response","180","368161","0.0-17.0-0.33","SS1604514066284","","null","","","","","","","","","","","","<img src=images/blank.png width =""500"" height = ""500"" style=""border:5px solid black"">","","",""
"","560.7000000309199","stimulus-presentation","181","368933","0.0-17.0-1.33","SS1604514066284","<img src='images/complex/5.png' width ='500' height = '500' style='border:5px solid black'>","40","all_complex","images/complex/6.png","images/complex/18.png","images/complex/14.png,images/complex/5.png,images/complex/12.png,images/complex/7.png,images/complex/10.png,images/complex/4.png,images/complex/15.png","1","null","","200","760.7000000309199","","","","deviant","",""
"","null","html-keyboard-response","182","369968","0.0-17.0-0.34","SS1604514066284","","null","","","","","","","","","","","","<img src=images/blank.png width =""500"" height = ""500"" style=""border:5px solid black"">","","",""
"","621.8749999534339","stimulus-presentation","183","370803","0.0-17.0-1.34","SS1604514066284","<img src='images/complex/18.png' width ='500' height = '500' style='border:5px solid black'>","40","all_complex","images/complex/6.png","images/complex/18.png","images/complex/14.png,images/complex/5.png,images/complex/12.png,images/complex/7.png,images/complex/10.png,images/complex/4.png,images/complex/15.png","1","null","","200","821.8749999534339","","","","background","",""
"","null","html-keyboard-response","184","371835","0.0-17.0-0.35","SS1604514066284","","null","","","","","","","","","","","","<img src=images/blank.png width =""500"" height = ""500"" style=""border:5px solid black"">","","",""
"","582.6699999161065","stimulus-presentation","185","372629","0.0-17.0-1.35","SS1604514066284","<img src='images/complex/18.png' width ='500' height = '500' style='border:5px solid black'>","40","all_complex","images/complex/6.png","images/complex/18.png","images/complex/14.png,images/complex/5.png,images/complex/12.png,images/complex/7.png,images/complex/10.png,images/complex/4.png,images/complex/15.png","1","null","","200","782.6699999161065","","","","background","",""
"","null","html-keyboard-response","186","373503","0.0-17.0-0.36","SS1604514066284","","null","","","","","","","","","","","","<img src=images/blank.png width =""500"" height = ""500"" style=""border:5px solid black"">","","",""
"","777.7950000017881","stimulus-presentation","187","374495","0.0-17.0-1.36","SS1604514066284","<img src='images/complex/18.png' width ='500' height = '500' style='border:5px solid black'>","40","all_complex","images/complex/6.png","images/complex/18.png","images/complex/14.png,images/complex/5.png,images/complex/12.png,images/complex/7.png,images/complex/10.png,images/complex/4.png,images/complex/15.png","1","null","","200","977.7950000017881","","","","background","",""
"","null","html-keyboard-response","188","375519","0.0-17.0-0.37","SS1604514066284","","null","","","","","","","","","","","","<img src=images/blank.png width =""500"" height = ""500"" style=""border:5px solid black"">","","",""
"","634.4550000503659","stimulus-presentation","189","376363","0.0-17.0-1.37","SS1604514066284","<img src='images/complex/18.png' width ='500' height = '500' style='border:5px solid black'>","40","all_complex","images/complex/6.png","images/complex/18.png","images/complex/14.png,images/complex/5.png,images/complex/12.png,images/complex/7.png,images/complex/10.png,images/complex/4.png,images/complex/15.png","1","null","","200","834.4550000503659","","","","background","",""
"","null","html-keyboard-response","190","377569","0.0-17.0-0.38","SS1604514066284","","null","","","","","","","","","","","","<img src=images/blank.png width =""500"" height = ""500"" style=""border:5px solid black"">","","",""
"","612.239999929443","stimulus-presentation","191","378393","0.0-17.0-1.38","SS1604514066284","<img src='images/complex/18.png' width ='500' height = '500' style='border:5px solid black'>","40","all_complex","images/complex/6.png","images/complex/18.png","images/complex/14.png,images/complex/5.png,images/complex/12.png,images/complex/7.png,images/complex/10.png,images/complex/4.png,images/complex/15.png","1","null","","200","812.239999929443","","","","background","",""
"","null","html-keyboard-response","192","379668","0.0-17.0-0.39","SS1604514066284","","null","","","","","","","","","","","","<img src=images/blank.png width =""500"" height = ""500"" style=""border:5px solid black"">","","",""
"","1978.7299998570234","stimulus-presentation","193","381858","0.0-17.0-1.39","SS1604514066284","<img src='images/complex/6.png' width ='500' height = '500' style='border:5px solid black'>","40","all_complex","images/complex/6.png","images/complex/18.png","images/complex/14.png,images/complex/5.png,images/complex/12.png,images/complex/7.png,images/complex/10.png,images/complex/4.png,images/complex/15.png","1","null","","200","2178.7299998570234","yes","855.1900000311434","","target","",""
"","null","html-keyboard-response","194","382838","0.0-17.0-0.40","SS1604514066284","","null","","","","","","","","","","","","<img src=images/blank.png width =""500"" height = ""500"" style=""border:5px solid black"">","","",""
"","556.3850000035018","stimulus-presentation","195","383605","0.0-17.0-1.40","SS1604514066284","<img src='images/complex/18.png' width ='500' height = '500' style='border:5px solid black'>","40","all_complex","images/complex/6.png","images/complex/18.png","images/complex/14.png,images/complex/5.png,images/complex/12.png,images/complex/7.png,images/complex/10.png,images/complex/4.png,images/complex/15.png","1","null","","200","756.3850000035018","","","","background","",""
"","null","html-keyboard-response","196","384747","0.0-17.0-0.41","SS1604514066284","","null","","","","","","","","","","","","<img src=images/blank.png width =""500"" height = ""500"" style=""border:5px solid black"">","","",""
"","518.3100001886487","stimulus-presentation","197","385477","0.0-17.0-1.41","SS1604514066284","<img src='images/complex/7.png' width ='500' height = '500' style='border:5px solid black'>","40","all_complex","images/complex/6.png","images/complex/18.png","images/complex/14.png,images/complex/5.png,images/complex/12.png,images/complex/7.png,images/complex/10.png,images/complex/4.png,images/complex/15.png","1","null","","200","718.3100001886487","","","","deviant","",""
"","null","html-keyboard-response","198","386442","0.0-17.0-0.42","SS1604514066284","","null","","","","","","","","","","","","<img src=images/blank.png width =""500"" height = ""500"" style=""border:5px solid black"">","","",""
"","581.9899998605251","stimulus-presentation","199","387234","0.0-17.0-1.42","SS1604514066284","<img src='images/complex/18.png' width ='500' height = '500' style='border:5px solid black'>","40","all_complex","images/complex/6.png","images/complex/18.png","images/complex/14.png,images/complex/5.png,images/complex/12.png,images/complex/7.png,images/complex/10.png,images/complex/4.png,images/complex/15.png","1","null","","200","781.9899998605251","","","","background","",""
"","null","html-keyboard-response","200","388270","0.0-17.0-0.43","SS1604514066284","","null","","","","","","","","","","","","<img src=images/blank.png width =""500"" height = ""500"" style=""border:5px solid black"">","","",""
"","559.9249999504536","stimulus-presentation","201","389041","0.0-17.0-1.43","SS1604514066284","<img src='images/complex/18.png' width ='500' height = '500' style='border:5px solid black'>","40","all_complex","images/complex/6.png","images/complex/18.png","images/complex/14.png,images/complex/5.png,images/complex/12.png,images/complex/7.png,images/complex/10.png,images/complex/4.png,images/complex/15.png","1","null","","200","759.9249999504536","","","","background","",""
"","null","html-keyboard-response","202","390288","0.0-17.0-0.44","SS1604514066284","","null","","","","","","","","","","","","<img src=images/blank.png width =""500"" height = ""500"" style=""border:5px solid black"">","","",""
"","667.5950000062585","stimulus-presentation","203","391174","0.0-17.0-1.44","SS1604514066284","<img src='images/complex/6.png' width ='500' height = '500' style='border:5px solid black'>","40","all_complex","images/complex/6.png","images/complex/18.png","images/complex/14.png,images/complex/5.png,images/complex/12.png,images/complex/7.png,images/complex/10.png,images/complex/4.png,images/complex/15.png","1","null","","200","867.5950000062585","","","","target","",""
"","null","html-keyboard-response","204","392488","0.0-17.0-0.45","SS1604514066284","","null","","","","","","","","","","","","<img src=images/blank.png width =""500"" height = ""500"" style=""border:5px solid black"">","","",""
"","664.7300000768155","stimulus-presentation","205","393368","0.0-17.0-1.45","SS1604514066284","<img src='images/complex/12.png' width ='500' height = '500' style='border:5px solid black'>","40","all_complex","images/complex/6.png","images/complex/18.png","images/complex/14.png,images/complex/5.png,images/complex/12.png,images/complex/7.png,images/complex/10.png,images/complex/4.png,images/complex/15.png","1","null","","200","864.7300000768155","","","","deviant","",""
"","null","html-keyboard-response","206","394433","0.0-17.0-0.46","SS1604514066284","","null","","","","","","","","","","","","<img src=images/blank.png width =""500"" height = ""500"" style=""border:5px solid black"">","","",""
"","596.6000000480562","stimulus-presentation","207","395242","0.0-17.0-1.46","SS1604514066284","<img src='images/complex/18.png' width ='500' height = '500' style='border:5px solid black'>","40","all_complex","images/complex/6.png","images/complex/18.png","images/complex/14.png,images/complex/5.png,images/complex/12.png,images/complex/7.png,images/complex/10.png,images/complex/4.png,images/complex/15.png","1","null","","200","796.6000000480562","","","","background","",""
"","null","html-keyboard-response","208","396119","0.0-17.0-0.47","SS1604514066284","","null","","","","","","","","","","","","<img src=images/blank.png width =""500"" height = ""500"" style=""border:5px solid black"">","","",""
"","2038.2399999070913","stimulus-presentation","209","398372","0.0-17.0-1.47","SS1604514066284","<img src='images/complex/18.png' width ='500' height = '500' style='border:5px solid black'>","40","all_complex","images/complex/6.png","images/complex/18.png","images/complex/14.png,images/complex/5.png,images/complex/12.png,images/complex/7.png,images/complex/10.png,images/complex/4.png,images/complex/15.png","1","null","","200","2238.2399999070913","yes","1060.9299999196082","","background","",""
"","null","html-keyboard-response","210","399499","0.0-17.0-0.48","SS1604514066284","","null","","","","","","","","","","","","<img src=images/blank.png width =""500"" height = ""500"" style=""border:5px solid black"">","","",""
"","5296.384999994189","stimulus-presentation","211","405009","0.0-17.0-1.48","SS1604514066284","<img src='images/complex/18.png' width ='500' height = '500' style='border:5px solid black'>","40","all_complex","images/complex/6.png","images/complex/18.png","images/complex/14.png,images/complex/5.png,images/complex/12.png,images/complex/7.png,images/complex/10.png,images/complex/4.png,images/complex/15.png","1","null","","200","5496.384999994189","","","","background","",""
"[{""page_index"":0,""viewing_time"":2054}]","2054","task-instructions","212","407073","0.0-18.0","SS1604514066284","","","","","","","","","","","","","","","","",""
"[{""page_index"":0,""viewing_time"":2165.9649999346584},{""page_index"":1,""viewing_time"":3402.2049999330193},{""page_index"":2,""viewing_time"":1742.7850000094622}]","7311.179999960586","instructions","213","414396","0.0-19.0","SS1604514066284","","","","","","","","","","","","","","","","",""
"","null","html-keyboard-response","214","415241","0.0-20.0-0.0","SS1604514066284","","null","","","","","","","","","","","","<img src=images/blank.png width =""500"" height = ""500"" style=""border:5px solid black"">","","",""
"","780.3950000088662","stimulus-presentation","215","416233","0.0-20.0-1.0","SS1604514066284","<img src='images/simple/15.png' width ='500' height = '500' style='border:5px solid black'>","40","all_simple","images/simple/18.png","images/simple/15.png","images/simple/2.png,images/simple/9.png,images/simple/4.png,images/simple/1.png,images/simple/7.png,images/simple/16.png,images/simple/8.png","2","null","","200","980.3950000088662","","","","background","",""
"","null","html-keyboard-response","216","417086","0.0-20.0-0.1","SS1604514066284","","null","","","","","","","","","","","","<img src=images/blank.png width =""500"" height = ""500"" style=""border:5px solid black"">","","",""
"","609.5700000878423","stimulus-presentation","217","417911","0.0-20.0-1.1","SS1604514066284","<img src='images/simple/15.png' width ='500' height = '500' style='border:5px solid black'>","40","all_simple","images/simple/18.png","images/simple/15.png","images/simple/2.png,images/simple/9.png,images/simple/4.png,images/simple/1.png,images/simple/7.png,images/simple/16.png,images/simple/8.png","2","null","","200","809.5700000878423","","","","background","",""
"","null","html-keyboard-response","218","419154","0.0-20.0-0.2","SS1604514066284","","null","","","","","","","","","","","","<img src=images/blank.png width =""500"" height = ""500"" style=""border:5px solid black"">","","",""
"","1677.8299999423325","stimulus-presentation","219","421049","0.0-20.0-1.2","SS1604514066284","<img src='images/simple/18.png' width ='500' height = '500' style='border:5px solid black'>","40","all_simple","images/simple/18.png","images/simple/15.png","images/simple/2.png,images/simple/9.png,images/simple/4.png,images/simple/1.png,images/simple/7.png,images/simple/16.png,images/simple/8.png","2","null","","200","1877.8299999423325","yes","732.4249998200685","","target","",""
"","null","html-keyboard-response","220","422354","0.0-20.0-0.3","SS1604514066284","","null","","","","","","","","","","","","<img src=images/blank.png width =""500"" height = ""500"" style=""border:5px solid black"">","","",""
"","595.8050000481308","stimulus-presentation","221","423164","0.0-20.0-1.3","SS1604514066284","<img src='images/simple/8.png' width ='500' height = '500' style='border:5px solid black'>","40","all_simple","images/simple/18.png","images/simple/15.png","images/simple/2.png,images/simple/9.png,images/simple/4.png,images/simple/1.png,images/simple/7.png,images/simple/16.png,images/simple/8.png","2","null","","200","795.8050000481308","","","","deviant","",""
"","null","html-keyboard-response","222","424432","0.0-20.0-0.4","SS1604514066284","","null","","","","","","","","","","","","<img src=images/blank.png width =""500"" height = ""500"" style=""border:5px solid black"">","","",""
"","582.5500001665205","stimulus-presentation","223","425236","0.0-20.0-1.4","SS1604514066284","<img src='images/simple/15.png' width ='500' height = '500' style='border:5px solid black'>","40","all_simple","images/simple/18.png","images/simple/15.png","images/simple/2.png,images/simple/9.png,images/simple/4.png,images/simple/1.png,images/simple/7.png,images/simple/16.png,images/simple/8.png","2","null","","200","782.5500001665205","","","","background","",""
"","null","html-keyboard-response","224","426501","0.0-20.0-0.5","SS1604514066284","","null","","","","","","","","","","","","<img src=images/blank.png width =""500"" height = ""500"" style=""border:5px solid black"">","","",""
"","589.6199999842793","stimulus-presentation","225","427311","0.0-20.0-1.5","SS1604514066284","<img src='images/simple/15.png' width ='500' height = '500' style='border:5px solid black'>","40","all_simple","images/simple/18.png","images/simple/15.png","images/simple/2.png,images/simple/9.png,images/simple/4.png,images/simple/1.png,images/simple/7.png,images/simple/16.png,images/simple/8.png","2","null","","200","789.6199999842793","","","","background","",""
"","null","html-keyboard-response","226","428190","0.0-20.0-0.6","SS1604514066284","","null","","","","","","","","","","","","<img src=images/blank.png width =""500"" height = ""500"" style=""border:5px solid black"">","","",""
"","651.5150000341237","stimulus-presentation","227","429057","0.0-20.0-1.6","SS1604514066284","<img src='images/simple/15.png' width ='500' height = '500' style='border:5px solid black'>","40","all_simple","images/simple/18.png","images/simple/15.png","images/simple/2.png,images/simple/9.png,images/simple/4.png,images/simple/1.png,images/simple/7.png,images/simple/16.png,images/simple/8.png","2","null","","200","851.5150000341237","","","","background","",""
"","null","html-keyboard-response","228","430132","0.0-20.0-0.7","SS1604514066284","","null","","","","","","","","","","","","<img src=images/blank.png width =""500"" height = ""500"" style=""border:5px solid black"">","","",""
"","563.8099999632686","stimulus-presentation","229","430930","0.0-20.0-1.7","SS1604514066284","<img src='images/simple/15.png' width ='500' height = '500' style='border:5px solid black'>","40","all_simple","images/simple/18.png","images/simple/15.png","images/simple/2.png,images/simple/9.png,images/simple/4.png,images/simple/1.png,images/simple/7.png,images/simple/16.png,images/simple/8.png","2","null","","200","763.8099999632686","","","","background","",""
"","null","html-keyboard-response","230","432095","0.0-20.0-0.8","SS1604514066284","","null","","","","","","","","","","","","<img src=images/blank.png width =""500"" height = ""500"" style=""border:5px solid black"">","","",""
"","522.3399999085814","stimulus-presentation","231","432830","0.0-20.0-1.8","SS1604514066284","<img src='images/simple/18.png' width ='500' height = '500' style='border:5px solid black'>","40","all_simple","images/simple/18.png","images/simple/15.png","images/simple/2.png,images/simple/9.png,images/simple/4.png,images/simple/1.png,images/simple/7.png,images/simple/16.png,images/simple/8.png","2","null","","200","722.3399999085814","","","","target","",""
"","null","html-keyboard-response","232","433882","0.0-20.0-0.9","SS1604514066284","","null","","","","","","","","","","","","<img src=images/blank.png width =""500"" height = ""500"" style=""border:5px solid black"">","","",""
"","2921.665000030771","stimulus-presentation","233","437020","0.0-20.0-1.9","SS1604514066284","<img src='images/simple/18.png' width ='500' height = '500' style='border:5px solid black'>","40","all_simple","images/simple/18.png","images/simple/15.png","images/simple/2.png,images/simple/9.png,images/simple/4.png,images/simple/1.png,images/simple/7.png,images/simple/16.png,images/simple/8.png","2","null","","200","3121.665000030771","yes","1219.1800000146031","","target","",""
"","null","html-keyboard-response","234","437909","0.0-20.0-0.10","SS1604514066284","","null","","","","","","","","","","","","<img src=images/blank.png width =""500"" height = ""500"" style=""border:5px solid black"">","","",""
"","685.4550000280142","stimulus-presentation","235","438818","0.0-20.0-1.10","SS1604514066284","<img src='images/simple/4.png' width ='500' height = '500' style='border:5px solid black'>","40","all_simple","images/simple/18.png","images/simple/15.png","images/simple/2.png,images/simple/9.png,images/simple/4.png,images/simple/1.png,images/simple/7.png,images/simple/16.png,images/simple/8.png","2","null","","200","885.4550000280142","","","","deviant","",""
"","null","html-keyboard-response","236","440051","0.0-20.0-0.11","SS1604514066284","","null","","","","","","","","","","","","<img src=images/blank.png width =""500"" height = ""500"" style=""border:5px solid black"">","","",""
"","1299.7000000905246","stimulus-presentation","237","441569","0.0-20.0-1.11","SS1604514066284","<img src='images/simple/15.png' width ='500' height = '500' style='border:5px solid black'>","40","all_simple","images/simple/18.png","images/simple/15.png","images/simple/2.png,images/simple/9.png,images/simple/4.png,images/simple/1.png,images/simple/7.png,images/simple/16.png,images/simple/8.png","2","null","","200","1499.7000000905246","","","","background","",""
"","null","html-keyboard-response","238","442552","0.0-20.0-0.12","SS1604514066284","","null","","","","","","","","","","","","<img src=images/blank.png width =""500"" height = ""500"" style=""border:5px solid black"">","","",""
"","559.8599999211729","stimulus-presentation","239","443327","0.0-20.0-1.12","SS1604514066284","<img src='images/simple/15.png' width ='500' height = '500' style='border:5px solid black'>","40","all_simple","images/simple/18.png","images/simple/15.png","images/simple/2.png,images/simple/9.png,images/simple/4.png,images/simple/1.png,images/simple/7.png,images/simple/16.png,images/simple/8.png","2","null","","200","759.8599999211729","","","","background","",""
"","null","html-keyboard-response","240","444340","0.0-20.0-0.13","SS1604514066284","","null","","","","","","","","","","","","<img src=images/blank.png width =""500"" height = ""500"" style=""border:5px solid black"">","","",""
"","580.4500000085682","stimulus-presentation","241","445134","0.0-20.0-1.13","SS1604514066284","<img src='images/simple/15.png' width ='500' height = '500' style='border:5px solid black'>","40","all_simple","images/simple/18.png","images/simple/15.png","images/simple/2.png,images/simple/9.png,images/simple/4.png,images/simple/1.png,images/simple/7.png,images/simple/16.png,images/simple/8.png","2","null","","200","780.4500000085682","","","","background","",""
"","null","html-keyboard-response","242","446093","0.0-20.0-0.14","SS1604514066284","","null","","","","","","","","","","","","<img src=images/blank.png width =""500"" height = ""500"" style=""border:5px solid black"">","","",""
"","514.2600000835955","stimulus-presentation","243","446820","0.0-20.0-1.14","SS1604514066284","<img src='images/simple/15.png' width ='500' height = '500' style='border:5px solid black'>","40","all_simple","images/simple/18.png","images/simple/15.png","images/simple/2.png,images/simple/9.png,images/simple/4.png,images/simple/1.png,images/simple/7.png,images/simple/16.png,images/simple/8.png","2","null","","200","714.2600000835955","","","","background","",""
"","null","html-keyboard-response","244","447846","0.0-20.0-0.15","SS1604514066284","","null","","","","","","","","","","","","<img src=images/blank.png width =""500"" height = ""500"" style=""border:5px solid black"">","","",""
"","533.144999993965","stimulus-presentation","245","448591","0.0-20.0-1.15","SS1604514066284","<img src='images/simple/15.png' width ='500' height = '500' style='border:5px solid black'>","40","all_simple","images/simple/18.png","images/simple/15.png","images/simple/2.png,images/simple/9.png,images/simple/4.png,images/simple/1.png,images/simple/7.png,images/simple/16.png,images/simple/8.png","2","null","","200","733.144999993965","","","","background","",""
"","null","html-keyboard-response","246","449728","0.0-20.0-0.16","SS1604514066284","","null","","","","","","","","","","","","<img src=images/blank.png width =""500"" height = ""500"" style=""border:5px solid black"">","","",""
"","2836.0049999319017","stimulus-presentation","247","452783","0.0-20.0-1.16","SS1604514066284","<img src='images/simple/15.png' width ='500' height = '500' style='border:5px solid black'>","40","all_simple","images/simple/18.png","images/simple/15.png","images/simple/2.png,images/simple/9.png,images/simple/4.png,images/simple/1.png,images/simple/7.png,images/simple/16.png,images/simple/8.png","2","null","","200","3036.0049999319017","","","","background","",""
"","null","html-keyboard-response","248","453621","0.0-20.0-0.17","SS1604514066284","","null","","","","","","","","","","","","<img src=images/blank.png width =""500"" height = ""500"" style=""border:5px solid black"">","","",""
"","881.0550000052899","stimulus-presentation","249","454717","0.0-20.0-1.17","SS1604514066284","<img src='images/simple/15.png' width ='500' height = '500' style='border:5px solid black'>","40","all_simple","images/simple/18.png","images/simple/15.png","images/simple/2.png,images/simple/9.png,images/simple/4.png,images/simple/1.png,images/simple/7.png,images/simple/16.png,images/simple/8.png","2","null","","200","1081.05500000529","","","","background","",""
"","null","html-keyboard-response","250","455800","0.0-20.0-0.18","SS1604514066284","","null","","","","","","","","","","","","<img src=images/blank.png width =""500"" height = ""500"" style=""border:5px solid black"">","","",""
"","2579.9250002019107","stimulus-presentation","251","458597","0.0-20.0-1.18","SS1604514066284","<img src='images/simple/15.png' width ='500' height = '500' style='border:5px solid black'>","40","all_simple","images/simple/18.png","images/simple/15.png","images/simple/2.png,images/simple/9.png,images/simple/4.png,images/simple/1.png,images/simple/7.png,images/simple/16.png,images/simple/8.png","2","null","","200","2779.9250002019107","","","","background","",""
"","null","html-keyboard-response","252","459627","0.0-20.0-0.19","SS1604514066284","","null","","","","","","","","","","","","<img src=images/blank.png width =""500"" height = ""500"" style=""border:5px solid black"">","","",""
"","560.3899999987334","stimulus-presentation","253","460404","0.0-20.0-1.19","SS1604514066284","<img src='images/simple/15.png' width ='500' height = '500' style='border:5px solid black'>","40","all_simple","images/simple/18.png","images/simple/15.png","images/simple/2.png,images/simple/9.png,images/simple/4.png,images/simple/1.png,images/simple/7.png,images/simple/16.png,images/simple/8.png","2","null","","200","760.3899999987334","","","","background","",""
"","null","html-keyboard-response","254","461377","0.0-20.0-0.20","SS1604514066284","","null","","","","","","","","","","","","<img src=images/blank.png width =""500"" height = ""500"" style=""border:5px solid black"">","","",""
"","1948.490000097081","stimulus-presentation","255","463545","0.0-20.0-1.20","SS1604514066284","<img src='images/simple/15.png' width ='500' height = '500' style='border:5px solid black'>","40","all_simple","images/simple/18.png","images/simple/15.png","images/simple/2.png,images/simple/9.png,images/simple/4.png,images/simple/1.png,images/simple/7.png,images/simple/16.png,images/simple/8.png","2","null","","200","2148.490000097081","yes","610.5949999764562","","background","",""
"","null","html-keyboard-response","256","464644","0.0-20.0-0.21","SS1604514066284","","null","","","","","","","","","","","","<img src=images/blank.png width =""500"" height = ""500"" style=""border:5px solid black"">","","",""
"","1620.0300001073629","stimulus-presentation","257","466478","0.0-20.0-1.21","SS1604514066284","<img src='images/simple/15.png' width ='500' height = '500' style='border:5px solid black'>","40","all_simple","images/simple/18.png","images/simple/15.png","images/simple/2.png,images/simple/9.png,images/simple/4.png,images/simple/1.png,images/simple/7.png,images/simple/16.png,images/simple/8.png","2","null","","200","1820.0300001073629","","","","background","",""
"","null","html-keyboard-response","258","467726","0.0-20.0-0.22","SS1604514066284","","null","","","","","","","","","","","","<img src=images/blank.png width =""500"" height = ""500"" style=""border:5px solid black"">","","",""
"","532.704999903217","stimulus-presentation","259","468487","0.0-20.0-1.22","SS1604514066284","<img src='images/simple/7.png' width ='500' height = '500' style='border:5px solid black'>","40","all_simple","images/simple/18.png","images/simple/15.png","images/simple/2.png,images/simple/9.png,images/simple/4.png,images/simple/1.png,images/simple/7.png,images/simple/16.png,images/simple/8.png","2","null","","200","732.704999903217","","","","deviant","",""
"","null","html-keyboard-response","260","469632","0.0-20.0-0.23","SS1604514066284","","null","","","","","","","","","","","","<img src=images/blank.png width =""500"" height = ""500"" style=""border:5px solid black"">","","",""
"","558.6049999110401","stimulus-presentation","261","470416","0.0-20.0-1.23","SS1604514066284","<img src='images/simple/15.png' width ='500' height = '500' style='border:5px solid black'>","40","all_simple","images/simple/18.png","images/simple/15.png","images/simple/2.png,images/simple/9.png,images/simple/4.png,images/simple/1.png,images/simple/7.png,images/simple/16.png,images/simple/8.png","2","null","","200","758.6049999110401","","","","background","",""
"","null","html-keyboard-response","262","471304","0.0-20.0-0.24","SS1604514066284","","null","","","","","","","","","","","","<img src=images/blank.png width =""500"" height = ""500"" style=""border:5px solid black"">","","",""
"","892.3299999441952","stimulus-presentation","263","472412","0.0-20.0-1.24","SS1604514066284","<img src='images/simple/15.png' width ='500' height = '500' style='border:5px solid black'>","40","all_simple","images/simple/18.png","images/simple/15.png","images/simple/2.png,images/simple/9.png,images/simple/4.png,images/simple/1.png,images/simple/7.png,images/simple/16.png,images/simple/8.png","2","null","","200","1092.3299999441952","","","","background","",""
"","null","html-keyboard-response","264","473535","0.0-20.0-0.25","SS1604514066284","","null","","","","","","","","","","","","<img src=images/blank.png width =""500"" height = ""500"" style=""border:5px solid black"">","","",""
"","610.0099999457598","stimulus-presentation","265","474361","0.0-20.0-1.25","SS1604514066284","<img src='images/simple/15.png' width ='500' height = '500' style='border:5px solid black'>","40","all_simple","images/simple/18.png","images/simple/15.png","images/simple/2.png,images/simple/9.png,images/simple/4.png,images/simple/1.png,images/simple/7.png,images/simple/16.png,images/simple/8.png","2","null","","200","810.0099999457598","","","","background","",""
"","null","html-keyboard-response","266","475182","0.0-20.0-0.26","SS1604514066284","","null","","","","","","","","","","","","<img src=images/blank.png width =""500"" height = ""500"" style=""border:5px solid black"">","","",""
"","2703.6250000819564","stimulus-presentation","267","478100","0.0-20.0-1.26","SS1604514066284","<img src='images/simple/18.png' width ='500' height = '500' style='border:5px solid black'>","40","all_simple","images/simple/18.png","images/simple/15.png","images/simple/2.png,images/simple/9.png,images/simple/4.png,images/simple/1.png,images/simple/7.png,images/simple/16.png,images/simple/8.png","2","null","","200","2903.6250000819564","","","","target","",""
"","null","html-keyboard-response","268","478978","0.0-20.0-0.27","SS1604514066284","","null","","","","","","","","","","","","<img src=images/blank.png width =""500"" height = ""500"" style=""border:5px solid black"">","","",""
"","723.204999929294","stimulus-presentation","269","479916","0.0-20.0-1.27","SS1604514066284","<img src='images/simple/9.png' width ='500' height = '500' style='border:5px solid black'>","40","all_simple","images/simple/18.png","images/simple/15.png","images/simple/2.png,images/simple/9.png,images/simple/4.png,images/simple/1.png,images/simple/7.png,images/simple/16.png,images/simple/8.png","2","null","","200","923.204999929294","","","","deviant","",""
"","null","html-keyboard-response","270","480820","0.0-20.0-0.28","SS1604514066284","","null","","","","","","","","","","","","<img src=images/blank.png width =""500"" height = ""500"" style=""border:5px solid black"">","","",""
"","4011.915000155568","stimulus-presentation","271","485044","0.0-20.0-1.28","SS1604514066284","<img src='images/simple/18.png' width ='500' height = '500' style='border:5px solid black'>","40","all_simple","images/simple/18.png","images/simple/15.png","images/simple/2.png,images/simple/9.png,images/simple/4.png,images/simple/1.png,images/simple/7.png,images/simple/16.png,images/simple/8.png","2","null","","200","4211.915000155568","","","","target","",""
"","null","html-keyboard-response","272","486284","0.0-20.0-0.29","SS1604514066284","","null","","","","","","","","","","","","<img src=images/blank.png width =""500"" height = ""500"" style=""border:5px solid black"">","","",""
"","748.2849999796599","stimulus-presentation","273","487246","0.0-20.0-1.29","SS1604514066284","<img src='images/simple/15.png' width ='500' height = '500' style='border:5px solid black'>","40","all_simple","images/simple/18.png","images/simple/15.png","images/simple/2.png,images/simple/9.png,images/simple/4.png,images/simple/1.png,images/simple/7.png,images/simple/16.png,images/simple/8.png","2","null","","200","948.2849999796599","","","","background","",""
"","null","html-keyboard-response","274","488543","0.0-20.0-0.30","SS1604514066284","","null","","","","","","","","","","","","<img src=images/blank.png width =""500"" height = ""500"" style=""border:5px solid black"">","","",""
"","553.1999999657273","stimulus-presentation","275","489316","0.0-20.0-1.30","SS1604514066284","<img src='images/simple/15.png' width ='500' height = '500' style='border:5px solid black'>","40","all_simple","images/simple/18.png","images/simple/15.png","images/simple/2.png,images/simple/9.png,images/simple/4.png,images/simple/1.png,images/simple/7.png,images/simple/16.png,images/simple/8.png","2","null","","200","753.1999999657273","","","","background","",""
"","null","html-keyboard-response","276","490374","0.0-20.0-0.31","SS1604514066284","","null","","","","","","","","","","","","<img src=images/blank.png width =""500"" height = ""500"" style=""border:5px solid black"">","","",""
"","1142.824999988079","stimulus-presentation","277","491744","0.0-20.0-1.31","SS1604514066284","<img src='images/simple/15.png' width ='500' height = '500' style='border:5px solid black'>","40","all_simple","images/simple/18.png","images/simple/15.png","images/simple/2.png,images/simple/9.png,images/simple/4.png,images/simple/1.png,images/simple/7.png,images/simple/16.png,images/simple/8.png","2","null","","200","1342.824999988079","","","","background","",""
"","null","html-keyboard-response","278","492896","0.0-20.0-0.32","SS1604514066284","","null","","","","","","","","","","","","<img src=images/blank.png width =""500"" height = ""500"" style=""border:5px solid black"">","","",""
"","824.5099999476224","stimulus-presentation","279","493948","0.0-20.0-1.32","SS1604514066284","<img src='images/simple/15.png' width ='500' height = '500' style='border:5px solid black'>","40","all_simple","images/simple/18.png","images/simple/15.png","images/simple/2.png,images/simple/9.png,images/simple/4.png,images/simple/1.png,images/simple/7.png,images/simple/16.png,images/simple/8.png","2","null","","200","1024.5099999476224","","","","background","",""
"","null","html-keyboard-response","280","494812","0.0-20.0-0.33","SS1604514066284","","null","","","","","","","","","","","","<img src=images/blank.png width =""500"" height = ""500"" style=""border:5px solid black"">","","",""
"","639.8899999912828","stimulus-presentation","281","495679","0.0-20.0-1.33","SS1604514066284","<img src='images/simple/15.png' width ='500' height = '500' style='border:5px solid black'>","40","all_simple","images/simple/18.png","images/simple/15.png","images/simple/2.png,images/simple/9.png,images/simple/4.png,images/simple/1.png,images/simple/7.png,images/simple/16.png,images/simple/8.png","2","null","","200","839.8899999912828","","","","background","",""
"","null","html-keyboard-response","282","496609","0.0-20.0-0.34","SS1604514066284","","null","","","","","","","","","","","","<img src=images/blank.png width =""500"" height = ""500"" style=""border:5px solid black"">","","",""
"","804.4350000564009","stimulus-presentation","283","497642","0.0-20.0-1.34","SS1604514066284","<img src='images/simple/16.png' width ='500' height = '500' style='border:5px solid black'>","40","all_simple","images/simple/18.png","images/simple/15.png","images/simple/2.png,images/simple/9.png,images/simple/4.png,images/simple/1.png,images/simple/7.png,images/simple/16.png,images/simple/8.png","2","null","","200","1004.4350000564009","","","","deviant","",""
"","null","html-keyboard-response","284","498675","0.0-20.0-0.35","SS1604514066284","","null","","","","","","","","","","","","<img src=images/blank.png width =""500"" height = ""500"" style=""border:5px solid black"">","","",""
