"view_history","rt","trial_type","trial_index","time_elapsed","internal_node_id","subject","trial_stimulus","key_press","task_type","task_target_stimulus","task_background_stimulus","task_deviant_stimuli","task_order_number","block_order_number","trial_order_number","minimum_viewing_duration","trial_looking_time","trial_pressed_space_bar","trial_space_bar_rt","stimulus","trial_stimulus_type","responses","question_order"
"[{""page_index"":0,""viewing_time"":65947}]","65947","instructions","0","65960","0.0-0.0","SS1604516882157","","","","","","","","","","","","","","","","",""
"[{""page_index"":0,""viewing_time"":5917},{""page_index"":1,""viewing_time"":2335},{""page_index"":2,""viewing_time"":5626},{""page_index"":3,""viewing_time"":2963},{""page_index"":4,""viewing_time"":2458},{""page_index"":5,""viewing_time"":7495},{""page_index"":6,""viewing_time"":1695},{""page_index"":7,""viewing_time"":2858},{""page_index"":8,""viewing_time"":855}]","32203","instructions","1","98168","0.0-1.0","SS1604516882157","","","","","","","","","","","","","","","","",""
"[{""page_index"":0,""viewing_time"":2495},{""page_index"":1,""viewing_time"":6118},{""page_index"":2,""viewing_time"":1110}]","9723","instructions","2","107894","0.0-2.0","SS1604516882157","","","","","","","","","","","","","","","","",""
"","706","practice-block","3","108817","0.0-3.0","SS1604516882157","<img src='images/practice/practice_background.jpeg' width ='500' height = '500' style='border:5px solid black'>","40","null","images/practice/practice_target.jpg","null","null","null","null","","200","906","","","","","",""
"","null","html-keyboard-response","4","109722","0.0-4.0","SS1604516882157","","null","","","","","","","","","","","","<img src=images/blank.png width =""500"" height = ""500"" style=""border:5px solid black"">","","",""
"","340","practice-block","5","110278","0.0-5.0","SS1604516882157","<img src='images/practice/practice_background.jpeg' width ='500' height = '500' style='border:5px solid black'>","40","null","images/practice/practice_target.jpg","null","null","null","null","","200","540","","","","","",""
"","null","html-keyboard-response","6","111225","0.0-6.0","SS1604516882157","","null","","","","","","","","","","","","<img src=images/blank.png width =""500"" height = ""500"" style=""border:5px solid black"">","","",""
"","232","practice-block","7","111660","0.0-7.0","SS1604516882157","<img src='images/practice/practice_deviant.jpeg' width ='500' height = '500' style='border:5px solid black'>","40","null","images/practice/practice_target.jpg","null","null","null","null","","200","432","","","","","",""
"","null","html-keyboard-response","8","112516","0.0-8.0","SS1604516882157","","null","","","","","","","","","","","","<img src=images/blank.png width =""500"" height = ""500"" style=""border:5px solid black"">","","",""
"","3219","practice-block","9","115949","0.0-9.0-0.0","SS1604516882157","<img src='images/practice/practice_target.jpg' width ='500' height = '500' style='border:5px solid black'>","40","null","images/practice/practice_target.jpg","null","null","null","null","","200","3419","yes","569","","","",""
"","null","html-keyboard-response","10","117117","0.0-10.0","SS1604516882157","","null","","","","","","","","","","","","<img src=images/blank.png width =""500"" height = ""500"" style=""border:5px solid black"">","","",""
"","308","practice-block","11","117646","0.0-11.0","SS1604516882157","<img src='images/practice/practice_background.jpeg' width ='500' height = '500' style='border:5px solid black'>","40","null","images/practice/practice_target.jpg","null","null","null","null","","200","508","","","","","",""
"[{""page_index"":0,""viewing_time"":1838}]","1838","task-instructions","12","119489","0.0-12.0","SS1604516882157","","","","","","","","","","","","","","","","",""
"[{""page_index"":0,""viewing_time"":1414},{""page_index"":1,""viewing_time"":4254},{""page_index"":2,""viewing_time"":1702}]","7370","instructions","13","126862","0.0-13.0","SS1604516882157","","","","","","","","","","","","","","","","",""
"","null","html-keyboard-response","14","127811","0.0-14.0-0.0","SS1604516882157","","null","","","","","","","","","","","","<img src=images/blank.png width =""500"" height = ""500"" style=""border:5px solid black"">","","",""
"","397","stimulus-presentation","15","128412","0.0-14.0-1.0","SS1604516882157","<img src='images/complex/8.png' width ='500' height = '500' style='border:5px solid black'>","40","mixed_simple_deviant","images/complex/9.png","images/complex/8.png","images/simple/13.png,images/simple/1.png,images/simple/2.png,images/simple/17.png,images/simple/6.png,images/simple/15.png,images/simple/14.png","0","null","","200","597","","","","background","",""
"","null","html-keyboard-response","16","129301","0.0-14.0-0.1","SS1604516882157","","null","","","","","","","","","","","","<img src=images/blank.png width =""500"" height = ""500"" style=""border:5px solid black"">","","",""
"","136","stimulus-presentation","17","129640","0.0-14.0-1.1","SS1604516882157","<img src='images/complex/8.png' width ='500' height = '500' style='border:5px solid black'>","40","mixed_simple_deviant","images/complex/9.png","images/complex/8.png","images/simple/13.png,images/simple/1.png,images/simple/2.png,images/simple/17.png,images/simple/6.png,images/simple/15.png,images/simple/14.png","0","null","","200","336","","","","background","",""
"","null","html-keyboard-response","18","130842","0.0-14.0-0.2","SS1604516882157","","null","","","","","","","","","","","","<img src=images/blank.png width =""500"" height = ""500"" style=""border:5px solid black"">","","",""
"","179","stimulus-presentation","19","131225","0.0-14.0-1.2","SS1604516882157","<img src='images/complex/8.png' width ='500' height = '500' style='border:5px solid black'>","40","mixed_simple_deviant","images/complex/9.png","images/complex/8.png","images/simple/13.png,images/simple/1.png,images/simple/2.png,images/simple/17.png,images/simple/6.png,images/simple/15.png,images/simple/14.png","0","null","","200","379","","","","background","",""
"","null","html-keyboard-response","20","132176","0.0-14.0-0.3","SS1604516882157","","null","","","","","","","","","","","","<img src=images/blank.png width =""500"" height = ""500"" style=""border:5px solid black"">","","",""
"","122","stimulus-presentation","21","132516","0.0-14.0-1.3","SS1604516882157","<img src='images/complex/8.png' width ='500' height = '500' style='border:5px solid black'>","40","mixed_simple_deviant","images/complex/9.png","images/complex/8.png","images/simple/13.png,images/simple/1.png,images/simple/2.png,images/simple/17.png,images/simple/6.png,images/simple/15.png,images/simple/14.png","0","null","","200","322","","","","background","",""
"","null","html-keyboard-response","22","133557","0.0-14.0-0.4","SS1604516882157","","null","","","","","","","","","","","","<img src=images/blank.png width =""500"" height = ""500"" style=""border:5px solid black"">","","",""
"","498","stimulus-presentation","23","134271","0.0-14.0-1.4","SS1604516882157","<img src='images/simple/17.png' width ='500' height = '500' style='border:5px solid black'>","40","mixed_simple_deviant","images/complex/9.png","images/complex/8.png","images/simple/13.png,images/simple/1.png,images/simple/2.png,images/simple/17.png,images/simple/6.png,images/simple/15.png,images/simple/14.png","0","null","","200","698","","","","deviant","",""
"","null","html-keyboard-response","24","135531","0.0-14.0-0.5","SS1604516882157","","null","","","","","","","","","","","","<img src=images/blank.png width =""500"" height = ""500"" style=""border:5px solid black"">","","",""
"","4505","stimulus-presentation","25","140250","0.0-14.0-1.5","SS1604516882157","<img src='images/complex/8.png' width ='500' height = '500' style='border:5px solid black'>","40","mixed_simple_deviant","images/complex/9.png","images/complex/8.png","images/simple/13.png,images/simple/1.png,images/simple/2.png,images/simple/17.png,images/simple/6.png,images/simple/15.png,images/simple/14.png","0","null","","200","4705","","","","background","",""
"","null","html-keyboard-response","26","141407","0.0-14.0-0.6","SS1604516882157","","null","","","","","","","","","","","","<img src=images/blank.png width =""500"" height = ""500"" style=""border:5px solid black"">","","",""
"","296","stimulus-presentation","27","141918","0.0-14.0-1.6","SS1604516882157","<img src='images/complex/8.png' width ='500' height = '500' style='border:5px solid black'>","40","mixed_simple_deviant","images/complex/9.png","images/complex/8.png","images/simple/13.png,images/simple/1.png,images/simple/2.png,images/simple/17.png,images/simple/6.png,images/simple/15.png,images/simple/14.png","0","null","","200","496","","","","background","",""
"","null","html-keyboard-response","28","143158","0.0-14.0-0.7","SS1604516882157","","null","","","","","","","","","","","","<img src=images/blank.png width =""500"" height = ""500"" style=""border:5px solid black"">","","",""
"","446","stimulus-presentation","29","143805","0.0-14.0-1.7","SS1604516882157","<img src='images/simple/6.png' width ='500' height = '500' style='border:5px solid black'>","40","mixed_simple_deviant","images/complex/9.png","images/complex/8.png","images/simple/13.png,images/simple/1.png,images/simple/2.png,images/simple/17.png,images/simple/6.png,images/simple/15.png,images/simple/14.png","0","null","","200","646","","","","deviant","",""
"","null","html-keyboard-response","30","144768","0.0-14.0-0.8","SS1604516882157","","null","","","","","","","","","","","","<img src=images/blank.png width =""500"" height = ""500"" style=""border:5px solid black"">","","",""
"","368","stimulus-presentation","31","145352","0.0-14.0-1.8","SS1604516882157","<img src='images/complex/8.png' width ='500' height = '500' style='border:5px solid black'>","40","mixed_simple_deviant","images/complex/9.png","images/complex/8.png","images/simple/13.png,images/simple/1.png,images/simple/2.png,images/simple/17.png,images/simple/6.png,images/simple/15.png,images/simple/14.png","0","null","","200","568","","","","background","",""
"","null","html-keyboard-response","32","146272","0.0-14.0-0.9","SS1604516882157","","null","","","","","","","","","","","","<img src=images/blank.png width =""500"" height = ""500"" style=""border:5px solid black"">","","",""
"","237","stimulus-presentation","33","146727","0.0-14.0-1.9","SS1604516882157","<img src='images/complex/8.png' width ='500' height = '500' style='border:5px solid black'>","40","mixed_simple_deviant","images/complex/9.png","images/complex/8.png","images/simple/13.png,images/simple/1.png,images/simple/2.png,images/simple/17.png,images/simple/6.png,images/simple/15.png,images/simple/14.png","0","null","","200","437","","","","background","",""
"","null","html-keyboard-response","34","147903","0.0-14.0-0.10","SS1604516882157","","null","","","","","","","","","","","","<img src=images/blank.png width =""500"" height = ""500"" style=""border:5px solid black"">","","",""
"","257","stimulus-presentation","35","148379","0.0-14.0-1.10","SS1604516882157","<img src='images/simple/15.png' width ='500' height = '500' style='border:5px solid black'>","40","mixed_simple_deviant","images/complex/9.png","images/complex/8.png","images/simple/13.png,images/simple/1.png,images/simple/2.png,images/simple/17.png,images/simple/6.png,images/simple/15.png,images/simple/14.png","0","null","","200","457","","","","deviant","",""
"","null","html-keyboard-response","36","149204","0.0-14.0-0.11","SS1604516882157","","null","","","","","","","","","","","","<img src=images/blank.png width =""500"" height = ""500"" style=""border:5px solid black"">","","",""
"","246","stimulus-presentation","37","149654","0.0-14.0-1.11","SS1604516882157","<img src='images/complex/8.png' width ='500' height = '500' style='border:5px solid black'>","40","mixed_simple_deviant","images/complex/9.png","images/complex/8.png","images/simple/13.png,images/simple/1.png,images/simple/2.png,images/simple/17.png,images/simple/6.png,images/simple/15.png,images/simple/14.png","0","null","","200","446","","","","background","",""
"","null","html-keyboard-response","38","150817","0.0-14.0-0.12","SS1604516882157","","null","","","","","","","","","","","","<img src=images/blank.png width =""500"" height = ""500"" style=""border:5px solid black"">","","",""
"","222","stimulus-presentation","39","151244","0.0-14.0-1.12","SS1604516882157","<img src='images/complex/8.png' width ='500' height = '500' style='border:5px solid black'>","40","mixed_simple_deviant","images/complex/9.png","images/complex/8.png","images/simple/13.png,images/simple/1.png,images/simple/2.png,images/simple/17.png,images/simple/6.png,images/simple/15.png,images/simple/14.png","0","null","","200","422","","","","background","",""
"","null","html-keyboard-response","40","152352","0.0-14.0-0.13","SS1604516882157","","null","","","","","","","","","","","","<img src=images/blank.png width =""500"" height = ""500"" style=""border:5px solid black"">","","",""
"","9378","stimulus-presentation","41","161947","0.0-14.0-1.13","SS1604516882157","<img src='images/complex/9.png' width ='500' height = '500' style='border:5px solid black'>","40","mixed_simple_deviant","images/complex/9.png","images/complex/8.png","images/simple/13.png,images/simple/1.png,images/simple/2.png,images/simple/17.png,images/simple/6.png,images/simple/15.png,images/simple/14.png","0","null","","200","9578","yes","4989","","target","",""
"","null","html-keyboard-response","42","163024","0.0-14.0-0.14","SS1604516882157","","null","","","","","","","","","","","","<img src=images/blank.png width =""500"" height = ""500"" style=""border:5px solid black"">","","",""
"","340","stimulus-presentation","43","163585","0.0-14.0-1.14","SS1604516882157","<img src='images/complex/8.png' width ='500' height = '500' style='border:5px solid black'>","40","mixed_simple_deviant","images/complex/9.png","images/complex/8.png","images/simple/13.png,images/simple/1.png,images/simple/2.png,images/simple/17.png,images/simple/6.png,images/simple/15.png,images/simple/14.png","0","null","","200","540","","","","background","",""
"","null","html-keyboard-response","44","164776","0.0-14.0-0.15","SS1604516882157","","null","","","","","","","","","","","","<img src=images/blank.png width =""500"" height = ""500"" style=""border:5px solid black"">","","",""
"","1425","stimulus-presentation","45","166418","0.0-14.0-1.15","SS1604516882157","<img src='images/complex/8.png' width ='500' height = '500' style='border:5px solid black'>","40","mixed_simple_deviant","images/complex/9.png","images/complex/8.png","images/simple/13.png,images/simple/1.png,images/simple/2.png,images/simple/17.png,images/simple/6.png,images/simple/15.png,images/simple/14.png","0","null","","200","1625","","","","background","",""
"","null","html-keyboard-response","46","167492","0.0-14.0-0.16","SS1604516882157","","null","","","","","","","","","","","","<img src=images/blank.png width =""500"" height = ""500"" style=""border:5px solid black"">","","",""
"","922","stimulus-presentation","47","168631","0.0-14.0-1.16","SS1604516882157","<img src='images/complex/8.png' width ='500' height = '500' style='border:5px solid black'>","40","mixed_simple_deviant","images/complex/9.png","images/complex/8.png","images/simple/13.png,images/simple/1.png,images/simple/2.png,images/simple/17.png,images/simple/6.png,images/simple/15.png,images/simple/14.png","0","null","","200","1122","","","","background","",""
"","null","html-keyboard-response","48","169768","0.0-14.0-0.17","SS1604516882157","","null","","","","","","","","","","","","<img src=images/blank.png width =""500"" height = ""500"" style=""border:5px solid black"">","","",""
"","360","stimulus-presentation","49","170345","0.0-14.0-1.17","SS1604516882157","<img src='images/complex/8.png' width ='500' height = '500' style='border:5px solid black'>","40","mixed_simple_deviant","images/complex/9.png","images/complex/8.png","images/simple/13.png,images/simple/1.png,images/simple/2.png,images/simple/17.png,images/simple/6.png,images/simple/15.png,images/simple/14.png","0","null","","200","560","","","","background","",""
"","null","html-keyboard-response","50","171644","0.0-14.0-0.18","SS1604516882157","","null","","","","","","","","","","","","<img src=images/blank.png width =""500"" height = ""500"" style=""border:5px solid black"">","","",""
"","183","stimulus-presentation","51","172043","0.0-14.0-1.18","SS1604516882157","<img src='images/complex/8.png' width ='500' height = '500' style='border:5px solid black'>","40","mixed_simple_deviant","images/complex/9.png","images/complex/8.png","images/simple/13.png,images/simple/1.png,images/simple/2.png,images/simple/17.png,images/simple/6.png,images/simple/15.png,images/simple/14.png","0","null","","200","383","","","","background","",""
"","null","html-keyboard-response","52","173272","0.0-14.0-0.19","SS1604516882157","","null","","","","","","","","","","","","<img src=images/blank.png width =""500"" height = ""500"" style=""border:5px solid black"">","","",""
"","1672","stimulus-presentation","53","175147","0.0-14.0-1.19","SS1604516882157","<img src='images/complex/9.png' width ='500' height = '500' style='border:5px solid black'>","40","mixed_simple_deviant","images/complex/9.png","images/complex/8.png","images/simple/13.png,images/simple/1.png,images/simple/2.png,images/simple/17.png,images/simple/6.png,images/simple/15.png,images/simple/14.png","0","null","","200","1872","yes","971","","target","",""
"","null","html-keyboard-response","54","176207","0.0-14.0-0.20","SS1604516882157","","null","","","","","","","","","","","","<img src=images/blank.png width =""500"" height = ""500"" style=""border:5px solid black"">","","",""
"","835","stimulus-presentation","55","177245","0.0-14.0-1.20","SS1604516882157","<img src='images/simple/14.png' width ='500' height = '500' style='border:5px solid black'>","40","mixed_simple_deviant","images/complex/9.png","images/complex/8.png","images/simple/13.png,images/simple/1.png,images/simple/2.png,images/simple/17.png,images/simple/6.png,images/simple/15.png,images/simple/14.png","0","null","","200","1035","","","","deviant","",""
"","null","html-keyboard-response","56","178320","0.0-14.0-0.21","SS1604516882157","","null","","","","","","","","","","","","<img src=images/blank.png width =""500"" height = ""500"" style=""border:5px solid black"">","","",""
"","1205","stimulus-presentation","57","179728","0.0-14.0-1.21","SS1604516882157","<img src='images/complex/8.png' width ='500' height = '500' style='border:5px solid black'>","40","mixed_simple_deviant","images/complex/9.png","images/complex/8.png","images/simple/13.png,images/simple/1.png,images/simple/2.png,images/simple/17.png,images/simple/6.png,images/simple/15.png,images/simple/14.png","0","null","","200","1405","","","","background","",""
"","null","html-keyboard-response","58","181019","0.0-14.0-0.22","SS1604516882157","","null","","","","","","","","","","","","<img src=images/blank.png width =""500"" height = ""500"" style=""border:5px solid black"">","","",""
"","752","stimulus-presentation","59","181985","0.0-14.0-1.22","SS1604516882157","<img src='images/complex/8.png' width ='500' height = '500' style='border:5px solid black'>","40","mixed_simple_deviant","images/complex/9.png","images/complex/8.png","images/simple/13.png,images/simple/1.png,images/simple/2.png,images/simple/17.png,images/simple/6.png,images/simple/15.png,images/simple/14.png","0","null","","200","952","","","","background","",""
"","null","html-keyboard-response","60","182981","0.0-14.0-0.23","SS1604516882157","","null","","","","","","","","","","","","<img src=images/blank.png width =""500"" height = ""500"" style=""border:5px solid black"">","","",""
"","268","stimulus-presentation","61","183467","0.0-14.0-1.23","SS1604516882157","<img src='images/complex/8.png' width ='500' height = '500' style='border:5px solid black'>","40","mixed_simple_deviant","images/complex/9.png","images/complex/8.png","images/simple/13.png,images/simple/1.png,images/simple/2.png,images/simple/17.png,images/simple/6.png,images/simple/15.png,images/simple/14.png","0","null","","200","468","","","","background","",""
"","null","html-keyboard-response","62","184580","0.0-14.0-0.24","SS1604516882157","","null","","","","","","","","","","","","<img src=images/blank.png width =""500"" height = ""500"" style=""border:5px solid black"">","","",""
"","194","stimulus-presentation","63","184993","0.0-14.0-1.24","SS1604516882157","<img src='images/complex/8.png' width ='500' height = '500' style='border:5px solid black'>","40","mixed_simple_deviant","images/complex/9.png","images/complex/8.png","images/simple/13.png,images/simple/1.png,images/simple/2.png,images/simple/17.png,images/simple/6.png,images/simple/15.png,images/simple/14.png","0","null","","200","394","","","","background","",""
"","null","html-keyboard-response","64","186274","0.0-14.0-0.25","SS1604516882157","","null","","","","","","","","","","","","<img src=images/blank.png width =""500"" height = ""500"" style=""border:5px solid black"">","","",""
"","3536","stimulus-presentation","65","190028","0.0-14.0-1.25","SS1604516882157","<img src='images/complex/9.png' width ='500' height = '500' style='border:5px solid black'>","40","mixed_simple_deviant","images/complex/9.png","images/complex/8.png","images/simple/13.png,images/simple/1.png,images/simple/2.png,images/simple/17.png,images/simple/6.png,images/simple/15.png,images/simple/14.png","0","null","","200","3736","yes","2299","","target","",""
"","null","html-keyboard-response","66","191013","0.0-14.0-0.26","SS1604516882157","","null","","","","","","","","","","","","<img src=images/blank.png width =""500"" height = ""500"" style=""border:5px solid black"">","","",""
"","72","stimulus-presentation","67","191302","0.0-14.0-1.26","SS1604516882157","<img src='images/complex/8.png' width ='500' height = '500' style='border:5px solid black'>","40","mixed_simple_deviant","images/complex/9.png","images/complex/8.png","images/simple/13.png,images/simple/1.png,images/simple/2.png,images/simple/17.png,images/simple/6.png,images/simple/15.png,images/simple/14.png","0","null","","200","272","","","","background","",""
"","null","html-keyboard-response","68","192486","0.0-14.0-0.27","SS1604516882157","","null","","","","","","","","","","","","<img src=images/blank.png width =""500"" height = ""500"" style=""border:5px solid black"">","","",""
"","241","stimulus-presentation","69","192945","0.0-14.0-1.27","SS1604516882157","<img src='images/complex/8.png' width ='500' height = '500' style='border:5px solid black'>","40","mixed_simple_deviant","images/complex/9.png","images/complex/8.png","images/simple/13.png,images/simple/1.png,images/simple/2.png,images/simple/17.png,images/simple/6.png,images/simple/15.png,images/simple/14.png","0","null","","200","441","","","","background","",""
"","null","html-keyboard-response","70","194179","0.0-14.0-0.28","SS1604516882157","","null","","","","","","","","","","","","<img src=images/blank.png width =""500"" height = ""500"" style=""border:5px solid black"">","","",""
"","2068","stimulus-presentation","71","196464","0.0-14.0-1.28","SS1604516882157","<img src='images/complex/9.png' width ='500' height = '500' style='border:5px solid black'>","40","mixed_simple_deviant","images/complex/9.png","images/complex/8.png","images/simple/13.png,images/simple/1.png,images/simple/2.png,images/simple/17.png,images/simple/6.png,images/simple/15.png,images/simple/14.png","0","null","","200","2268","yes","1243","","target","",""
"","null","html-keyboard-response","72","197725","0.0-14.0-0.29","SS1604516882157","","null","","","","","","","","","","","","<img src=images/blank.png width =""500"" height = ""500"" style=""border:5px solid black"">","","",""
"","1400","stimulus-presentation","73","199341","0.0-14.0-1.29","SS1604516882157","<img src='images/simple/1.png' width ='500' height = '500' style='border:5px solid black'>","40","mixed_simple_deviant","images/complex/9.png","images/complex/8.png","images/simple/13.png,images/simple/1.png,images/simple/2.png,images/simple/17.png,images/simple/6.png,images/simple/15.png,images/simple/14.png","0","null","","200","1600","","","","deviant","",""
"","null","html-keyboard-response","74","200529","0.0-14.0-0.30","SS1604516882157","","null","","","","","","","","","","","","<img src=images/blank.png width =""500"" height = ""500"" style=""border:5px solid black"">","","",""
"","602","stimulus-presentation","75","201349","0.0-14.0-1.30","SS1604516882157","<img src='images/complex/8.png' width ='500' height = '500' style='border:5px solid black'>","40","mixed_simple_deviant","images/complex/9.png","images/complex/8.png","images/simple/13.png,images/simple/1.png,images/simple/2.png,images/simple/17.png,images/simple/6.png,images/simple/15.png,images/simple/14.png","0","null","","200","802","","","","background","",""
"","null","html-keyboard-response","76","202177","0.0-14.0-0.31","SS1604516882157","","null","","","","","","","","","","","","<img src=images/blank.png width =""500"" height = ""500"" style=""border:5px solid black"">","","",""
"","450","stimulus-presentation","77","202845","0.0-14.0-1.31","SS1604516882157","<img src='images/complex/8.png' width ='500' height = '500' style='border:5px solid black'>","40","mixed_simple_deviant","images/complex/9.png","images/complex/8.png","images/simple/13.png,images/simple/1.png,images/simple/2.png,images/simple/17.png,images/simple/6.png,images/simple/15.png,images/simple/14.png","0","null","","200","650","","","","background","",""
"","null","html-keyboard-response","78","203779","0.0-14.0-0.32","SS1604516882157","","null","","","","","","","","","","","","<img src=images/blank.png width =""500"" height = ""500"" style=""border:5px solid black"">","","",""
"","259","stimulus-presentation","79","204252","0.0-14.0-1.32","SS1604516882157","<img src='images/complex/8.png' width ='500' height = '500' style='border:5px solid black'>","40","mixed_simple_deviant","images/complex/9.png","images/complex/8.png","images/simple/13.png,images/simple/1.png,images/simple/2.png,images/simple/17.png,images/simple/6.png,images/simple/15.png,images/simple/14.png","0","null","","200","459","","","","background","",""
"","null","html-keyboard-response","80","205172","0.0-14.0-0.33","SS1604516882157","","null","","","","","","","","","","","","<img src=images/blank.png width =""500"" height = ""500"" style=""border:5px solid black"">","","",""
"","212","stimulus-presentation","81","205602","0.0-14.0-1.33","SS1604516882157","<img src='images/complex/8.png' width ='500' height = '500' style='border:5px solid black'>","40","mixed_simple_deviant","images/complex/9.png","images/complex/8.png","images/simple/13.png,images/simple/1.png,images/simple/2.png,images/simple/17.png,images/simple/6.png,images/simple/15.png,images/simple/14.png","0","null","","200","412","","","","background","",""
"","null","html-keyboard-response","82","206443","0.0-14.0-0.34","SS1604516882157","","null","","","","","","","","","","","","<img src=images/blank.png width =""500"" height = ""500"" style=""border:5px solid black"">","","",""
"","190","stimulus-presentation","83","206852","0.0-14.0-1.34","SS1604516882157","<img src='images/complex/8.png' width ='500' height = '500' style='border:5px solid black'>","40","mixed_simple_deviant","images/complex/9.png","images/complex/8.png","images/simple/13.png,images/simple/1.png,images/simple/2.png,images/simple/17.png,images/simple/6.png,images/simple/15.png,images/simple/14.png","0","null","","200","390","","","","background","",""
"","null","html-keyboard-response","84","207780","0.0-14.0-0.35","SS1604516882157","","null","","","","","","","","","","","","<img src=images/blank.png width =""500"" height = ""500"" style=""border:5px solid black"">","","",""
"","1187","stimulus-presentation","85","209186","0.0-14.0-1.35","SS1604516882157","<img src='images/complex/9.png' width ='500' height = '500' style='border:5px solid black'>","40","mixed_simple_deviant","images/complex/9.png","images/complex/8.png","images/simple/13.png,images/simple/1.png,images/simple/2.png,images/simple/17.png,images/simple/6.png,images/simple/15.png,images/simple/14.png","0","null","","200","1387","yes","477","","target","",""
"","null","html-keyboard-response","86","210342","0.0-14.0-0.36","SS1604516882157","","null","","","","","","","","","","","","<img src=images/blank.png width =""500"" height = ""500"" style=""border:5px solid black"">","","",""
"","164","stimulus-presentation","87","210725","0.0-14.0-1.36","SS1604516882157","<img src='images/simple/13.png' width ='500' height = '500' style='border:5px solid black'>","40","mixed_simple_deviant","images/complex/9.png","images/complex/8.png","images/simple/13.png,images/simple/1.png,images/simple/2.png,images/simple/17.png,images/simple/6.png,images/simple/15.png,images/simple/14.png","0","null","","200","364","","","","deviant","",""
"","null","html-keyboard-response","88","211721","0.0-14.0-0.37","SS1604516882157","","null","","","","","","","","","","","","<img src=images/blank.png width =""500"" height = ""500"" style=""border:5px solid black"">","","",""
"","134","stimulus-presentation","89","212070","0.0-14.0-1.37","SS1604516882157","<img src='images/complex/8.png' width ='500' height = '500' style='border:5px solid black'>","40","mixed_simple_deviant","images/complex/9.png","images/complex/8.png","images/simple/13.png,images/simple/1.png,images/simple/2.png,images/simple/17.png,images/simple/6.png,images/simple/15.png,images/simple/14.png","0","null","","200","334","","","","background","",""
"","null","html-keyboard-response","90","213113","0.0-14.0-0.38","SS1604516882157","","null","","","","","","","","","","","","<img src=images/blank.png width =""500"" height = ""500"" style=""border:5px solid black"">","","",""
"","1426","stimulus-presentation","91","214756","0.0-14.0-1.38","SS1604516882157","<img src='images/complex/9.png' width ='500' height = '500' style='border:5px solid black'>","40","mixed_simple_deviant","images/complex/9.png","images/complex/8.png","images/simple/13.png,images/simple/1.png,images/simple/2.png,images/simple/17.png,images/simple/6.png,images/simple/15.png,images/simple/14.png","0","null","","200","1626","yes","688","","target","",""
"","null","html-keyboard-response","92","215638","0.0-14.0-0.39","SS1604516882157","","null","","","","","","","","","","","","<img src=images/blank.png width =""500"" height = ""500"" style=""border:5px solid black"">","","",""
"","185","stimulus-presentation","93","216039","0.0-14.0-1.39","SS1604516882157","<img src='images/complex/8.png' width ='500' height = '500' style='border:5px solid black'>","40","mixed_simple_deviant","images/complex/9.png","images/complex/8.png","images/simple/13.png,images/simple/1.png,images/simple/2.png,images/simple/17.png,images/simple/6.png,images/simple/15.png,images/simple/14.png","0","null","","200","385","","","","background","",""
"","null","html-keyboard-response","94","217346","0.0-14.0-0.40","SS1604516882157","","null","","","","","","","","","","","","<img src=images/blank.png width =""500"" height = ""500"" style=""border:5px solid black"">","","",""
"","188","stimulus-presentation","95","217752","0.0-14.0-1.40","SS1604516882157","<img src='images/complex/8.png' width ='500' height = '500' style='border:5px solid black'>","40","mixed_simple_deviant","images/complex/9.png","images/complex/8.png","images/simple/13.png,images/simple/1.png,images/simple/2.png,images/simple/17.png,images/simple/6.png,images/simple/15.png,images/simple/14.png","0","null","","200","388","","","","background","",""
"","null","html-keyboard-response","96","218836","0.0-14.0-0.41","SS1604516882157","","null","","","","","","","","","","","","<img src=images/blank.png width =""500"" height = ""500"" style=""border:5px solid black"">","","",""
"","178","stimulus-presentation","97","219232","0.0-14.0-1.41","SS1604516882157","<img src='images/complex/8.png' width ='500' height = '500' style='border:5px solid black'>","40","mixed_simple_deviant","images/complex/9.png","images/complex/8.png","images/simple/13.png,images/simple/1.png,images/simple/2.png,images/simple/17.png,images/simple/6.png,images/simple/15.png,images/simple/14.png","0","null","","200","378","","","","background","",""
"","null","html-keyboard-response","98","220359","0.0-14.0-0.42","SS1604516882157","","null","","","","","","","","","","","","<img src=images/blank.png width =""500"" height = ""500"" style=""border:5px solid black"">","","",""
"","365","stimulus-presentation","99","220939","0.0-14.0-1.42","SS1604516882157","<img src='images/simple/2.png' width ='500' height = '500' style='border:5px solid black'>","40","mixed_simple_deviant","images/complex/9.png","images/complex/8.png","images/simple/13.png,images/simple/1.png,images/simple/2.png,images/simple/17.png,images/simple/6.png,images/simple/15.png,images/simple/14.png","0","null","","200","565","","","","deviant","",""
"","null","html-keyboard-response","100","221923","0.0-14.0-0.43","SS1604516882157","","null","","","","","","","","","","","","<img src=images/blank.png width =""500"" height = ""500"" style=""border:5px solid black"">","","",""
"","332","stimulus-presentation","101","222471","0.0-14.0-1.43","SS1604516882157","<img src='images/complex/8.png' width ='500' height = '500' style='border:5px solid black'>","40","mixed_simple_deviant","images/complex/9.png","images/complex/8.png","images/simple/13.png,images/simple/1.png,images/simple/2.png,images/simple/17.png,images/simple/6.png,images/simple/15.png,images/simple/14.png","0","null","","200","532","","","","background","",""
"","null","html-keyboard-response","102","223393","0.0-14.0-0.44","SS1604516882157","","null","","","","","","","","","","","","<img src=images/blank.png width =""500"" height = ""500"" style=""border:5px solid black"">","","",""
"","267","stimulus-presentation","103","223878","0.0-14.0-1.44","SS1604516882157","<img src='images/complex/8.png' width ='500' height = '500' style='border:5px solid black'>","40","mixed_simple_deviant","images/complex/9.png","images/complex/8.png","images/simple/13.png,images/simple/1.png,images/simple/2.png,images/simple/17.png,images/simple/6.png,images/simple/15.png,images/simple/14.png","0","null","","200","467","","","","background","",""
"","null","html-keyboard-response","104","225067","0.0-14.0-0.45","SS1604516882157","","null","","","","","","","","","","","","<img src=images/blank.png width =""500"" height = ""500"" style=""border:5px solid black"">","","",""
"","243","stimulus-presentation","105","225526","0.0-14.0-1.45","SS1604516882157","<img src='images/complex/8.png' width ='500' height = '500' style='border:5px solid black'>","40","mixed_simple_deviant","images/complex/9.png","images/complex/8.png","images/simple/13.png,images/simple/1.png,images/simple/2.png,images/simple/17.png,images/simple/6.png,images/simple/15.png,images/simple/14.png","0","null","","200","443","","","","background","",""
"","null","html-keyboard-response","106","226698","0.0-14.0-0.46","SS1604516882157","","null","","","","","","","","","","","","<img src=images/blank.png width =""500"" height = ""500"" style=""border:5px solid black"">","","",""
"","210","stimulus-presentation","107","227124","0.0-14.0-1.46","SS1604516882157","<img src='images/complex/8.png' width ='500' height = '500' style='border:5px solid black'>","40","mixed_simple_deviant","images/complex/9.png","images/complex/8.png","images/simple/13.png,images/simple/1.png,images/simple/2.png,images/simple/17.png,images/simple/6.png,images/simple/15.png,images/simple/14.png","0","null","","200","410","","","","background","",""
"","null","html-keyboard-response","108","227973","0.0-14.0-0.47","SS1604516882157","","null","","","","","","","","","","","","<img src=images/blank.png width =""500"" height = ""500"" style=""border:5px solid black"">","","",""
"","216","stimulus-presentation","109","228405","0.0-14.0-1.47","SS1604516882157","<img src='images/complex/8.png' width ='500' height = '500' style='border:5px solid black'>","40","mixed_simple_deviant","images/complex/9.png","images/complex/8.png","images/simple/13.png,images/simple/1.png,images/simple/2.png,images/simple/17.png,images/simple/6.png,images/simple/15.png,images/simple/14.png","0","null","","200","416","","","","background","",""
"","null","html-keyboard-response","110","229459","0.0-14.0-0.48","SS1604516882157","","null","","","","","","","","","","","","<img src=images/blank.png width =""500"" height = ""500"" style=""border:5px solid black"">","","",""
"","1198","stimulus-presentation","111","230875","0.0-14.0-1.48","SS1604516882157","<img src='images/complex/9.png' width ='500' height = '500' style='border:5px solid black'>","40","mixed_simple_deviant","images/complex/9.png","images/complex/8.png","images/simple/13.png,images/simple/1.png,images/simple/2.png,images/simple/17.png,images/simple/6.png,images/simple/15.png,images/simple/14.png","0","null","","200","1398","yes","519","","target","",""
"[{""page_index"":0,""viewing_time"":84389}]","84389","task-instructions","112","315272","0.0-15.0","SS1604516882157","","","","","","","","","","","","","","","","",""
"[{""page_index"":0,""viewing_time"":1915},{""page_index"":1,""viewing_time"":3698},{""page_index"":2,""viewing_time"":1029}]","6642","instructions","113","321919","0.0-16.0","SS1604516882157","","","","","","","","","","","","","","","","",""
"","null","html-keyboard-response","114","322984","0.0-17.0-0.0","SS1604516882157","","null","","","","","","","","","","","","<img src=images/blank.png width =""500"" height = ""500"" style=""border:5px solid black"">","","",""
"","637","stimulus-presentation","115","323839","0.0-17.0-1.0","SS1604516882157","<img src='images/simple/9.png' width ='500' height = '500' style='border:5px solid black'>","40","mixed_complex_deviant","images/simple/12.png","images/simple/9.png","images/complex/13.png,images/complex/5.png,images/complex/10.png,images/complex/6.png,images/complex/16.png,images/complex/4.png,images/complex/11.png","1","null","","200","837","","","","background","",""
"","null","html-keyboard-response","116","324876","0.0-17.0-0.1","SS1604516882157","","null","","","","","","","","","","","","<img src=images/blank.png width =""500"" height = ""500"" style=""border:5px solid black"">","","",""
"","167","stimulus-presentation","117","325262","0.0-17.0-1.1","SS1604516882157","<img src='images/simple/9.png' width ='500' height = '500' style='border:5px solid black'>","40","mixed_complex_deviant","images/simple/12.png","images/simple/9.png","images/complex/13.png,images/complex/5.png,images/complex/10.png,images/complex/6.png,images/complex/16.png,images/complex/4.png,images/complex/11.png","1","null","","200","367","","","","background","",""
"","null","html-keyboard-response","118","326303","0.0-17.0-0.2","SS1604516882157","","null","","","","","","","","","","","","<img src=images/blank.png width =""500"" height = ""500"" style=""border:5px solid black"">","","",""
"","155","stimulus-presentation","119","326676","0.0-17.0-1.2","SS1604516882157","<img src='images/simple/9.png' width ='500' height = '500' style='border:5px solid black'>","40","mixed_complex_deviant","images/simple/12.png","images/simple/9.png","images/complex/13.png,images/complex/5.png,images/complex/10.png,images/complex/6.png,images/complex/16.png,images/complex/4.png,images/complex/11.png","1","null","","200","355","","","","background","",""
"","null","html-keyboard-response","120","327907","0.0-17.0-0.3","SS1604516882157","","null","","","","","","","","","","","","<img src=images/blank.png width =""500"" height = ""500"" style=""border:5px solid black"">","","",""
"","245","stimulus-presentation","121","328369","0.0-17.0-1.3","SS1604516882157","<img src='images/complex/11.png' width ='500' height = '500' style='border:5px solid black'>","40","mixed_complex_deviant","images/simple/12.png","images/simple/9.png","images/complex/13.png,images/complex/5.png,images/complex/10.png,images/complex/6.png,images/complex/16.png,images/complex/4.png,images/complex/11.png","1","null","","200","445","","","","deviant","",""
"","null","html-keyboard-response","122","329628","0.0-17.0-0.4","SS1604516882157","","null","","","","","","","","","","","","<img src=images/blank.png width =""500"" height = ""500"" style=""border:5px solid black"">","","",""
"","1600","stimulus-presentation","123","331446","0.0-17.0-1.4","SS1604516882157","<img src='images/simple/12.png' width ='500' height = '500' style='border:5px solid black'>","40","mixed_complex_deviant","images/simple/12.png","images/simple/9.png","images/complex/13.png,images/complex/5.png,images/complex/10.png,images/complex/6.png,images/complex/16.png,images/complex/4.png,images/complex/11.png","1","null","","200","1800","yes","610","","target","",""
"","null","html-keyboard-response","124","332307","0.0-17.0-0.5","SS1604516882157","","null","","","","","","","","","","","","<img src=images/blank.png width =""500"" height = ""500"" style=""border:5px solid black"">","","",""
"","137","stimulus-presentation","125","332662","0.0-17.0-1.5","SS1604516882157","<img src='images/simple/9.png' width ='500' height = '500' style='border:5px solid black'>","40","mixed_complex_deviant","images/simple/12.png","images/simple/9.png","images/complex/13.png,images/complex/5.png,images/complex/10.png,images/complex/6.png,images/complex/16.png,images/complex/4.png,images/complex/11.png","1","null","","200","337","","","","background","",""
"","null","html-keyboard-response","126","333598","0.0-17.0-0.6","SS1604516882157","","null","","","","","","","","","","","","<img src=images/blank.png width =""500"" height = ""500"" style=""border:5px solid black"">","","",""
"","77","stimulus-presentation","127","333891","0.0-17.0-1.6","SS1604516882157","<img src='images/simple/9.png' width ='500' height = '500' style='border:5px solid black'>","40","mixed_complex_deviant","images/simple/12.png","images/simple/9.png","images/complex/13.png,images/complex/5.png,images/complex/10.png,images/complex/6.png,images/complex/16.png,images/complex/4.png,images/complex/11.png","1","null","","200","277","","","","background","",""
"","null","html-keyboard-response","128","334747","0.0-17.0-0.7","SS1604516882157","","null","","","","","","","","","","","","<img src=images/blank.png width =""500"" height = ""500"" style=""border:5px solid black"">","","",""
"","140","stimulus-presentation","129","335104","0.0-17.0-1.7","SS1604516882157","<img src='images/simple/9.png' width ='500' height = '500' style='border:5px solid black'>","40","mixed_complex_deviant","images/simple/12.png","images/simple/9.png","images/complex/13.png,images/complex/5.png,images/complex/10.png,images/complex/6.png,images/complex/16.png,images/complex/4.png,images/complex/11.png","1","null","","200","340","","","","background","",""
"","null","html-keyboard-response","130","335971","0.0-17.0-0.8","SS1604516882157","","null","","","","","","","","","","","","<img src=images/blank.png width =""500"" height = ""500"" style=""border:5px solid black"">","","",""
"","95","stimulus-presentation","131","336284","0.0-17.0-1.8","SS1604516882157","<img src='images/simple/9.png' width ='500' height = '500' style='border:5px solid black'>","40","mixed_complex_deviant","images/simple/12.png","images/simple/9.png","images/complex/13.png,images/complex/5.png,images/complex/10.png,images/complex/6.png,images/complex/16.png,images/complex/4.png,images/complex/11.png","1","null","","200","295","","","","background","",""
"","null","html-keyboard-response","132","337289","0.0-17.0-0.9","SS1604516882157","","null","","","","","","","","","","","","<img src=images/blank.png width =""500"" height = ""500"" style=""border:5px solid black"">","","",""
"","145","stimulus-presentation","133","337651","0.0-17.0-1.9","SS1604516882157","<img src='images/complex/10.png' width ='500' height = '500' style='border:5px solid black'>","40","mixed_complex_deviant","images/simple/12.png","images/simple/9.png","images/complex/13.png,images/complex/5.png,images/complex/10.png,images/complex/6.png,images/complex/16.png,images/complex/4.png,images/complex/11.png","1","null","","200","345","","","","deviant","",""
"","null","html-keyboard-response","134","338814","0.0-17.0-0.10","SS1604516882157","","null","","","","","","","","","","","","<img src=images/blank.png width =""500"" height = ""500"" style=""border:5px solid black"">","","",""
"","73","stimulus-presentation","135","339106","0.0-17.0-1.10","SS1604516882157","<img src='images/simple/9.png' width ='500' height = '500' style='border:5px solid black'>","40","mixed_complex_deviant","images/simple/12.png","images/simple/9.png","images/complex/13.png,images/complex/5.png,images/complex/10.png,images/complex/6.png,images/complex/16.png,images/complex/4.png,images/complex/11.png","1","null","","200","273","","","","background","",""
"","null","html-keyboard-response","136","340413","0.0-17.0-0.11","SS1604516882157","","null","","","","","","","","","","","","<img src=images/blank.png width =""500"" height = ""500"" style=""border:5px solid black"">","","",""
"","118","stimulus-presentation","137","340748","0.0-17.0-1.11","SS1604516882157","<img src='images/simple/9.png' width ='500' height = '500' style='border:5px solid black'>","40","mixed_complex_deviant","images/simple/12.png","images/simple/9.png","images/complex/13.png,images/complex/5.png,images/complex/10.png,images/complex/6.png,images/complex/16.png,images/complex/4.png,images/complex/11.png","1","null","","200","318","","","","background","",""
"","null","html-keyboard-response","138","341853","0.0-17.0-0.12","SS1604516882157","","null","","","","","","","","","","","","<img src=images/blank.png width =""500"" height = ""500"" style=""border:5px solid black"">","","",""
"","119","stimulus-presentation","139","342189","0.0-17.0-1.12","SS1604516882157","<img src='images/simple/9.png' width ='500' height = '500' style='border:5px solid black'>","40","mixed_complex_deviant","images/simple/12.png","images/simple/9.png","images/complex/13.png,images/complex/5.png,images/complex/10.png,images/complex/6.png,images/complex/16.png,images/complex/4.png,images/complex/11.png","1","null","","200","319","","","","background","",""
"","null","html-keyboard-response","140","343171","0.0-17.0-0.13","SS1604516882157","","null","","","","","","","","","","","","<img src=images/blank.png width =""500"" height = ""500"" style=""border:5px solid black"">","","",""
"","149","stimulus-presentation","141","343536","0.0-17.0-1.13","SS1604516882157","<img src='images/simple/9.png' width ='500' height = '500' style='border:5px solid black'>","40","mixed_complex_deviant","images/simple/12.png","images/simple/9.png","images/complex/13.png,images/complex/5.png,images/complex/10.png,images/complex/6.png,images/complex/16.png,images/complex/4.png,images/complex/11.png","1","null","","200","349","","","","background","",""
"","null","html-keyboard-response","142","344690","0.0-17.0-0.14","SS1604516882157","","null","","","","","","","","","","","","<img src=images/blank.png width =""500"" height = ""500"" style=""border:5px solid black"">","","",""
"","205","stimulus-presentation","143","345112","0.0-17.0-1.14","SS1604516882157","<img src='images/complex/5.png' width ='500' height = '500' style='border:5px solid black'>","40","mixed_complex_deviant","images/simple/12.png","images/simple/9.png","images/complex/13.png,images/complex/5.png,images/complex/10.png,images/complex/6.png,images/complex/16.png,images/complex/4.png,images/complex/11.png","1","null","","200","405","","","","deviant","",""
"","null","html-keyboard-response","144","346214","0.0-17.0-0.15","SS1604516882157","","null","","","","","","","","","","","","<img src=images/blank.png width =""500"" height = ""500"" style=""border:5px solid black"">","","",""
"","199","stimulus-presentation","145","346631","0.0-17.0-1.15","SS1604516882157","<img src='images/simple/12.png' width ='500' height = '500' style='border:5px solid black'>","40","mixed_complex_deviant","images/simple/12.png","images/simple/9.png","images/complex/13.png,images/complex/5.png,images/complex/10.png,images/complex/6.png,images/complex/16.png,images/complex/4.png,images/complex/11.png","1","null","","200","399","","","","target","",""
"","null","html-keyboard-response","146","347609","0.0-17.0-0.16","SS1604516882157","","null","","","","","","","","","","","","<img src=images/blank.png width =""500"" height = ""500"" style=""border:5px solid black"">","","",""
"","154","stimulus-presentation","147","347980","0.0-17.0-1.16","SS1604516882157","<img src='images/simple/9.png' width ='500' height = '500' style='border:5px solid black'>","40","mixed_complex_deviant","images/simple/12.png","images/simple/9.png","images/complex/13.png,images/complex/5.png,images/complex/10.png,images/complex/6.png,images/complex/16.png,images/complex/4.png,images/complex/11.png","1","null","","200","354","","","","background","",""
"","null","html-keyboard-response","148","349224","0.0-17.0-0.17","SS1604516882157","","null","","","","","","","","","","","","<img src=images/blank.png width =""500"" height = ""500"" style=""border:5px solid black"">","","",""
"","238","stimulus-presentation","149","349679","0.0-17.0-1.17","SS1604516882157","<img src='images/simple/9.png' width ='500' height = '500' style='border:5px solid black'>","40","mixed_complex_deviant","images/simple/12.png","images/simple/9.png","images/complex/13.png,images/complex/5.png,images/complex/10.png,images/complex/6.png,images/complex/16.png,images/complex/4.png,images/complex/11.png","1","null","","200","438","","","","background","",""
"","null","html-keyboard-response","150","350664","0.0-17.0-0.18","SS1604516882157","","null","","","","","","","","","","","","<img src=images/blank.png width =""500"" height = ""500"" style=""border:5px solid black"">","","",""
"","139","stimulus-presentation","151","351023","0.0-17.0-1.18","SS1604516882157","<img src='images/simple/9.png' width ='500' height = '500' style='border:5px solid black'>","40","mixed_complex_deviant","images/simple/12.png","images/simple/9.png","images/complex/13.png,images/complex/5.png,images/complex/10.png,images/complex/6.png,images/complex/16.png,images/complex/4.png,images/complex/11.png","1","null","","200","339","","","","background","",""
"","null","html-keyboard-response","152","352236","0.0-17.0-0.19","SS1604516882157","","null","","","","","","","","","","","","<img src=images/blank.png width =""500"" height = ""500"" style=""border:5px solid black"">","","",""
"","1299","stimulus-presentation","153","353755","0.0-17.0-1.19","SS1604516882157","<img src='images/simple/12.png' width ='500' height = '500' style='border:5px solid black'>","40","mixed_complex_deviant","images/simple/12.png","images/simple/9.png","images/complex/13.png,images/complex/5.png,images/complex/10.png,images/complex/6.png,images/complex/16.png,images/complex/4.png,images/complex/11.png","1","null","","200","1499","yes","588","","target","",""
"","null","html-keyboard-response","154","354939","0.0-17.0-0.20","SS1604516882157","","null","","","","","","","","","","","","<img src=images/blank.png width =""500"" height = ""500"" style=""border:5px solid black"">","","",""
"","304","stimulus-presentation","155","355461","0.0-17.0-1.20","SS1604516882157","<img src='images/simple/9.png' width ='500' height = '500' style='border:5px solid black'>","40","mixed_complex_deviant","images/simple/12.png","images/simple/9.png","images/complex/13.png,images/complex/5.png,images/complex/10.png,images/complex/6.png,images/complex/16.png,images/complex/4.png,images/complex/11.png","1","null","","200","504","","","","background","",""
"","null","html-keyboard-response","156","356391","0.0-17.0-0.21","SS1604516882157","","null","","","","","","","","","","","","<img src=images/blank.png width =""500"" height = ""500"" style=""border:5px solid black"">","","",""
"","901","stimulus-presentation","157","357511","0.0-17.0-1.21","SS1604516882157","<img src='images/simple/9.png' width ='500' height = '500' style='border:5px solid black'>","40","mixed_complex_deviant","images/simple/12.png","images/simple/9.png","images/complex/13.png,images/complex/5.png,images/complex/10.png,images/complex/6.png,images/complex/16.png,images/complex/4.png,images/complex/11.png","1","null","","200","1101","","","","background","",""
"","null","html-keyboard-response","158","358597","0.0-17.0-0.22","SS1604516882157","","null","","","","","","","","","","","","<img src=images/blank.png width =""500"" height = ""500"" style=""border:5px solid black"">","","",""
"","205","stimulus-presentation","159","359020","0.0-17.0-1.22","SS1604516882157","<img src='images/simple/9.png' width ='500' height = '500' style='border:5px solid black'>","40","mixed_complex_deviant","images/simple/12.png","images/simple/9.png","images/complex/13.png,images/complex/5.png,images/complex/10.png,images/complex/6.png,images/complex/16.png,images/complex/4.png,images/complex/11.png","1","null","","200","405","","","","background","",""
"","null","html-keyboard-response","160","360215","0.0-17.0-0.23","SS1604516882157","","null","","","","","","","","","","","","<img src=images/blank.png width =""500"" height = ""500"" style=""border:5px solid black"">","","",""
"","141","stimulus-presentation","161","360575","0.0-17.0-1.23","SS1604516882157","<img src='images/simple/9.png' width ='500' height = '500' style='border:5px solid black'>","40","mixed_complex_deviant","images/simple/12.png","images/simple/9.png","images/complex/13.png,images/complex/5.png,images/complex/10.png,images/complex/6.png,images/complex/16.png,images/complex/4.png,images/complex/11.png","1","null","","200","341","","","","background","",""
"","null","html-keyboard-response","162","361535","0.0-17.0-0.24","SS1604516882157","","null","","","","","","","","","","","","<img src=images/blank.png width =""500"" height = ""500"" style=""border:5px solid black"">","","",""
"","1326","stimulus-presentation","163","363078","0.0-17.0-1.24","SS1604516882157","<img src='images/simple/12.png' width ='500' height = '500' style='border:5px solid black'>","40","mixed_complex_deviant","images/simple/12.png","images/simple/9.png","images/complex/13.png,images/complex/5.png,images/complex/10.png,images/complex/6.png,images/complex/16.png,images/complex/4.png,images/complex/11.png","1","null","","200","1526","yes","736","","target","",""
"","null","html-keyboard-response","164","363920","0.0-17.0-0.25","SS1604516882157","","null","","","","","","","","","","","","<img src=images/blank.png width =""500"" height = ""500"" style=""border:5px solid black"">","","",""
"","1346","stimulus-presentation","165","365485","0.0-17.0-1.25","SS1604516882157","<img src='images/simple/9.png' width ='500' height = '500' style='border:5px solid black'>","40","mixed_complex_deviant","images/simple/12.png","images/simple/9.png","images/complex/13.png,images/complex/5.png,images/complex/10.png,images/complex/6.png,images/complex/16.png,images/complex/4.png,images/complex/11.png","1","null","","200","1546","","","","background","",""
"","null","html-keyboard-response","166","366698","0.0-17.0-0.26","SS1604516882157","","null","","","","","","","","","","","","<img src=images/blank.png width =""500"" height = ""500"" style=""border:5px solid black"">","","",""
"","113","stimulus-presentation","167","367029","0.0-17.0-1.26","SS1604516882157","<img src='images/simple/9.png' width ='500' height = '500' style='border:5px solid black'>","40","mixed_complex_deviant","images/simple/12.png","images/simple/9.png","images/complex/13.png,images/complex/5.png,images/complex/10.png,images/complex/6.png,images/complex/16.png,images/complex/4.png,images/complex/11.png","1","null","","200","313","","","","background","",""
"","null","html-keyboard-response","168","368169","0.0-17.0-0.27","SS1604516882157","","null","","","","","","","","","","","","<img src=images/blank.png width =""500"" height = ""500"" style=""border:5px solid black"">","","",""
"","75","stimulus-presentation","169","368460","0.0-17.0-1.27","SS1604516882157","<img src='images/complex/6.png' width ='500' height = '500' style='border:5px solid black'>","40","mixed_complex_deviant","images/simple/12.png","images/simple/9.png","images/complex/13.png,images/complex/5.png,images/complex/10.png,images/complex/6.png,images/complex/16.png,images/complex/4.png,images/complex/11.png","1","null","","200","275","","","","deviant","",""
"","null","html-keyboard-response","170","369438","0.0-17.0-0.28","SS1604516882157","","null","","","","","","","","","","","","<img src=images/blank.png width =""500"" height = ""500"" style=""border:5px solid black"">","","",""
"","169","stimulus-presentation","171","369825","0.0-17.0-1.28","SS1604516882157","<img src='images/simple/9.png' width ='500' height = '500' style='border:5px solid black'>","40","mixed_complex_deviant","images/simple/12.png","images/simple/9.png","images/complex/13.png,images/complex/5.png,images/complex/10.png,images/complex/6.png,images/complex/16.png,images/complex/4.png,images/complex/11.png","1","null","","200","369","","","","background","",""
"","null","html-keyboard-response","172","371086","0.0-17.0-0.29","SS1604516882157","","null","","","","","","","","","","","","<img src=images/blank.png width =""500"" height = ""500"" style=""border:5px solid black"">","","",""
"","1333","stimulus-presentation","173","372638","0.0-17.0-1.29","SS1604516882157","<img src='images/simple/12.png' width ='500' height = '500' style='border:5px solid black'>","40","mixed_complex_deviant","images/simple/12.png","images/simple/9.png","images/complex/13.png,images/complex/5.png,images/complex/10.png,images/complex/6.png,images/complex/16.png,images/complex/4.png,images/complex/11.png","1","null","","200","1533","yes","730","","target","",""
"","null","html-keyboard-response","174","373836","0.0-17.0-0.30","SS1604516882157","","null","","","","","","","","","","","","<img src=images/blank.png width =""500"" height = ""500"" style=""border:5px solid black"">","","",""
"","1366","stimulus-presentation","175","375420","0.0-17.0-1.30","SS1604516882157","<img src='images/simple/12.png' width ='500' height = '500' style='border:5px solid black'>","40","mixed_complex_deviant","images/simple/12.png","images/simple/9.png","images/complex/13.png,images/complex/5.png,images/complex/10.png,images/complex/6.png,images/complex/16.png,images/complex/4.png,images/complex/11.png","1","null","","200","1566","yes","713","","target","",""
"","null","html-keyboard-response","176","376492","0.0-17.0-0.31","SS1604516882157","","null","","","","","","","","","","","","<img src=images/blank.png width =""500"" height = ""500"" style=""border:5px solid black"">","","",""
"","137","stimulus-presentation","177","376845","0.0-17.0-1.31","SS1604516882157","<img src='images/simple/9.png' width ='500' height = '500' style='border:5px solid black'>","40","mixed_complex_deviant","images/simple/12.png","images/simple/9.png","images/complex/13.png,images/complex/5.png,images/complex/10.png,images/complex/6.png,images/complex/16.png,images/complex/4.png,images/complex/11.png","1","null","","200","337","","","","background","",""
"","null","html-keyboard-response","178","378095","0.0-17.0-0.32","SS1604516882157","","null","","","","","","","","","","","","<img src=images/blank.png width =""500"" height = ""500"" style=""border:5px solid black"">","","",""
"","460","stimulus-presentation","179","378788","0.0-17.0-1.32","SS1604516882157","<img src='images/complex/13.png' width ='500' height = '500' style='border:5px solid black'>","40","mixed_complex_deviant","images/simple/12.png","images/simple/9.png","images/complex/13.png,images/complex/5.png,images/complex/10.png,images/complex/6.png,images/complex/16.png,images/complex/4.png,images/complex/11.png","1","null","","200","660","","","","deviant","",""
"","null","html-keyboard-response","180","380062","0.0-17.0-0.33","SS1604516882157","","null","","","","","","","","","","","","<img src=images/blank.png width =""500"" height = ""500"" style=""border:5px solid black"">","","",""
"","3546","stimulus-presentation","181","383826","0.0-17.0-1.33","SS1604516882157","<img src='images/simple/9.png' width ='500' height = '500' style='border:5px solid black'>","40","mixed_complex_deviant","images/simple/12.png","images/simple/9.png","images/complex/13.png,images/complex/5.png,images/complex/10.png,images/complex/6.png,images/complex/16.png,images/complex/4.png,images/complex/11.png","1","null","","200","3746","","","","background","",""
"","null","html-keyboard-response","182","384850","0.0-17.0-0.34","SS1604516882157","","null","","","","","","","","","","","","<img src=images/blank.png width =""500"" height = ""500"" style=""border:5px solid black"">","","",""
"","211","stimulus-presentation","183","385279","0.0-17.0-1.34","SS1604516882157","<img src='images/simple/9.png' width ='500' height = '500' style='border:5px solid black'>","40","mixed_complex_deviant","images/simple/12.png","images/simple/9.png","images/complex/13.png,images/complex/5.png,images/complex/10.png,images/complex/6.png,images/complex/16.png,images/complex/4.png,images/complex/11.png","1","null","","200","411","","","","background","",""
"","null","html-keyboard-response","184","386296","0.0-17.0-0.35","SS1604516882157","","null","","","","","","","","","","","","<img src=images/blank.png width =""500"" height = ""500"" style=""border:5px solid black"">","","",""
"","237","stimulus-presentation","185","386747","0.0-17.0-1.35","SS1604516882157","<img src='images/simple/9.png' width ='500' height = '500' style='border:5px solid black'>","40","mixed_complex_deviant","images/simple/12.png","images/simple/9.png","images/complex/13.png,images/complex/5.png,images/complex/10.png,images/complex/6.png,images/complex/16.png,images/complex/4.png,images/complex/11.png","1","null","","200","437","","","","background","",""
"","null","html-keyboard-response","186","387986","0.0-17.0-0.36","SS1604516882157","","null","","","","","","","","","","","","<img src=images/blank.png width =""500"" height = ""500"" style=""border:5px solid black"">","","",""
"","258","stimulus-presentation","187","388462","0.0-17.0-1.36","SS1604516882157","<img src='images/simple/9.png' width ='500' height = '500' style='border:5px solid black'>","40","mixed_complex_deviant","images/simple/12.png","images/simple/9.png","images/complex/13.png,images/complex/5.png,images/complex/10.png,images/complex/6.png,images/complex/16.png,images/complex/4.png,images/complex/11.png","1","null","","200","458","","","","background","",""
"","null","html-keyboard-response","188","389758","0.0-17.0-0.37","SS1604516882157","","null","","","","","","","","","","","","<img src=images/blank.png width =""500"" height = ""500"" style=""border:5px solid black"">","","",""
"","190","stimulus-presentation","189","390167","0.0-17.0-1.37","SS1604516882157","<img src='images/simple/9.png' width ='500' height = '500' style='border:5px solid black'>","40","mixed_complex_deviant","images/simple/12.png","images/simple/9.png","images/complex/13.png,images/complex/5.png,images/complex/10.png,images/complex/6.png,images/complex/16.png,images/complex/4.png,images/complex/11.png","1","null","","200","390","","","","background","",""
"","null","html-keyboard-response","190","391310","0.0-17.0-0.38","SS1604516882157","","null","","","","","","","","","","","","<img src=images/blank.png width =""500"" height = ""500"" style=""border:5px solid black"">","","",""
"","147","stimulus-presentation","191","391676","0.0-17.0-1.38","SS1604516882157","<img src='images/simple/9.png' width ='500' height = '500' style='border:5px solid black'>","40","mixed_complex_deviant","images/simple/12.png","images/simple/9.png","images/complex/13.png,images/complex/5.png,images/complex/10.png,images/complex/6.png,images/complex/16.png,images/complex/4.png,images/complex/11.png","1","null","","200","347","","","","background","",""
"","null","html-keyboard-response","192","392663","0.0-17.0-0.39","SS1604516882157","","null","","","","","","","","","","","","<img src=images/blank.png width =""500"" height = ""500"" style=""border:5px solid black"">","","",""
"","195","stimulus-presentation","193","393074","0.0-17.0-1.39","SS1604516882157","<img src='images/simple/9.png' width ='500' height = '500' style='border:5px solid black'>","40","mixed_complex_deviant","images/simple/12.png","images/simple/9.png","images/complex/13.png,images/complex/5.png,images/complex/10.png,images/complex/6.png,images/complex/16.png,images/complex/4.png,images/complex/11.png","1","null","","200","395","","","","background","",""
"","null","html-keyboard-response","194","394135","0.0-17.0-0.40","SS1604516882157","","null","","","","","","","","","","","","<img src=images/blank.png width =""500"" height = ""500"" style=""border:5px solid black"">","","",""
"","155","stimulus-presentation","195","394508","0.0-17.0-1.40","SS1604516882157","<img src='images/simple/9.png' width ='500' height = '500' style='border:5px solid black'>","40","mixed_complex_deviant","images/simple/12.png","images/simple/9.png","images/complex/13.png,images/complex/5.png,images/complex/10.png,images/complex/6.png,images/complex/16.png,images/complex/4.png,images/complex/11.png","1","null","","200","355","","","","background","",""
"","null","html-keyboard-response","196","395700","0.0-17.0-0.41","SS1604516882157","","null","","","","","","","","","","","","<img src=images/blank.png width =""500"" height = ""500"" style=""border:5px solid black"">","","",""
"","208","stimulus-presentation","197","396127","0.0-17.0-1.41","SS1604516882157","<img src='images/simple/9.png' width ='500' height = '500' style='border:5px solid black'>","40","mixed_complex_deviant","images/simple/12.png","images/simple/9.png","images/complex/13.png,images/complex/5.png,images/complex/10.png,images/complex/6.png,images/complex/16.png,images/complex/4.png,images/complex/11.png","1","null","","200","408","","","","background","",""
"","null","html-keyboard-response","198","397007","0.0-17.0-0.42","SS1604516882157","","null","","","","","","","","","","","","<img src=images/blank.png width =""500"" height = ""500"" style=""border:5px solid black"">","","",""
"","458","stimulus-presentation","199","397682","0.0-17.0-1.42","SS1604516882157","<img src='images/complex/16.png' width ='500' height = '500' style='border:5px solid black'>","40","mixed_complex_deviant","images/simple/12.png","images/simple/9.png","images/complex/13.png,images/complex/5.png,images/complex/10.png,images/complex/6.png,images/complex/16.png,images/complex/4.png,images/complex/11.png","1","null","","200","658","","","","deviant","",""
"","null","html-keyboard-response","200","398893","0.0-17.0-0.43","SS1604516882157","","null","","","","","","","","","","","","<img src=images/blank.png width =""500"" height = ""500"" style=""border:5px solid black"">","","",""
"","1128","stimulus-presentation","201","400238","0.0-17.0-1.43","SS1604516882157","<img src='images/simple/12.png' width ='500' height = '500' style='border:5px solid black'>","40","mixed_complex_deviant","images/simple/12.png","images/simple/9.png","images/complex/13.png,images/complex/5.png,images/complex/10.png,images/complex/6.png,images/complex/16.png,images/complex/4.png,images/complex/11.png","1","null","","200","1328","yes","441","","target","",""
"","null","html-keyboard-response","202","401128","0.0-17.0-0.44","SS1604516882157","","null","","","","","","","","","","","","<img src=images/blank.png width =""500"" height = ""500"" style=""border:5px solid black"">","","",""
"","275","stimulus-presentation","203","401618","0.0-17.0-1.44","SS1604516882157","<img src='images/complex/4.png' width ='500' height = '500' style='border:5px solid black'>","40","mixed_complex_deviant","images/simple/12.png","images/simple/9.png","images/complex/13.png,images/complex/5.png,images/complex/10.png,images/complex/6.png,images/complex/16.png,images/complex/4.png,images/complex/11.png","1","null","","200","475","","","","deviant","",""
"","null","html-keyboard-response","204","402664","0.0-17.0-0.45","SS1604516882157","","null","","","","","","","","","","","","<img src=images/blank.png width =""500"" height = ""500"" style=""border:5px solid black"">","","",""
"","147","stimulus-presentation","205","403028","0.0-17.0-1.45","SS1604516882157","<img src='images/simple/9.png' width ='500' height = '500' style='border:5px solid black'>","40","mixed_complex_deviant","images/simple/12.png","images/simple/9.png","images/complex/13.png,images/complex/5.png,images/complex/10.png,images/complex/6.png,images/complex/16.png,images/complex/4.png,images/complex/11.png","1","null","","200","347","","","","background","",""
"","null","html-keyboard-response","206","404264","0.0-17.0-0.46","SS1604516882157","","null","","","","","","","","","","","","<img src=images/blank.png width =""500"" height = ""500"" style=""border:5px solid black"">","","",""
"","121","stimulus-presentation","207","404601","0.0-17.0-1.46","SS1604516882157","<img src='images/simple/9.png' width ='500' height = '500' style='border:5px solid black'>","40","mixed_complex_deviant","images/simple/12.png","images/simple/9.png","images/complex/13.png,images/complex/5.png,images/complex/10.png,images/complex/6.png,images/complex/16.png,images/complex/4.png,images/complex/11.png","1","null","","200","321","","","","background","",""
"","null","html-keyboard-response","208","405552","0.0-17.0-0.47","SS1604516882157","","null","","","","","","","","","","","","<img src=images/blank.png width =""500"" height = ""500"" style=""border:5px solid black"">","","",""
"","182","stimulus-presentation","209","405953","0.0-17.0-1.47","SS1604516882157","<img src='images/simple/9.png' width ='500' height = '500' style='border:5px solid black'>","40","mixed_complex_deviant","images/simple/12.png","images/simple/9.png","images/complex/13.png,images/complex/5.png,images/complex/10.png,images/complex/6.png,images/complex/16.png,images/complex/4.png,images/complex/11.png","1","null","","200","382","","","","background","",""
"","null","html-keyboard-response","210","407163","0.0-17.0-0.48","SS1604516882157","","null","","","","","","","","","","","","<img src=images/blank.png width =""500"" height = ""500"" style=""border:5px solid black"">","","",""
"","78","stimulus-presentation","211","407457","0.0-17.0-1.48","SS1604516882157","<img src='images/simple/9.png' width ='500' height = '500' style='border:5px solid black'>","40","mixed_complex_deviant","images/simple/12.png","images/simple/9.png","images/complex/13.png,images/complex/5.png,images/complex/10.png,images/complex/6.png,images/complex/16.png,images/complex/4.png,images/complex/11.png","1","null","","200","278","","","","background","",""
"[{""page_index"":0,""viewing_time"":6776}]","6777","task-instructions","212","414239","0.0-18.0","SS1604516882157","","","","","","","","","","","","","","","","",""
"[{""page_index"":0,""viewing_time"":911},{""page_index"":1,""viewing_time"":2558},{""page_index"":2,""viewing_time"":878}]","4348","instructions","213","418591","0.0-19.0","SS1604516882157","","","","","","","","","","","","","","","","",""
"","null","html-keyboard-response","214","419485","0.0-20.0-0.0","SS1604516882157","","null","","","","","","","","","","","","<img src=images/blank.png width =""500"" height = ""500"" style=""border:5px solid black"">","","",""
"","556","stimulus-presentation","215","420255","0.0-20.0-1.0","SS1604516882157","<img src='images/simple/3.png' width ='500' height = '500' style='border:5px solid black'>","40","all_simple","images/simple/5.png","images/simple/3.png","images/simple/4.png,images/simple/18.png,images/simple/7.png,images/simple/10.png,images/simple/11.png,images/simple/16.png,images/simple/8.png","2","null","","200","756","","","","background","",""
"","null","html-keyboard-response","216","421099","0.0-20.0-0.1","SS1604516882157","","null","","","","","","","","","","","","<img src=images/blank.png width =""500"" height = ""500"" style=""border:5px solid black"">","","",""
"","88","stimulus-presentation","217","421404","0.0-20.0-1.1","SS1604516882157","<img src='images/simple/3.png' width ='500' height = '500' style='border:5px solid black'>","40","all_simple","images/simple/5.png","images/simple/3.png","images/simple/4.png,images/simple/18.png,images/simple/7.png,images/simple/10.png,images/simple/11.png,images/simple/16.png,images/simple/8.png","2","null","","200","288","","","","background","",""
"","null","html-keyboard-response","218","422622","0.0-20.0-0.2","SS1604516882157","","null","","","","","","","","","","","","<img src=images/blank.png width =""500"" height = ""500"" style=""border:5px solid black"">","","",""
"","297","stimulus-presentation","219","423138","0.0-20.0-1.2","SS1604516882157","<img src='images/simple/7.png' width ='500' height = '500' style='border:5px solid black'>","40","all_simple","images/simple/5.png","images/simple/3.png","images/simple/4.png,images/simple/18.png,images/simple/7.png,images/simple/10.png,images/simple/11.png,images/simple/16.png,images/simple/8.png","2","null","","200","497","","","","deviant","",""
"","null","html-keyboard-response","220","424365","0.0-20.0-0.3","SS1604516882157","","null","","","","","","","","","","","","<img src=images/blank.png width =""500"" height = ""500"" style=""border:5px solid black"">","","",""
"","312","stimulus-presentation","221","424895","0.0-20.0-1.3","SS1604516882157","<img src='images/simple/3.png' width ='500' height = '500' style='border:5px solid black'>","40","all_simple","images/simple/5.png","images/simple/3.png","images/simple/4.png,images/simple/18.png,images/simple/7.png,images/simple/10.png,images/simple/11.png,images/simple/16.png,images/simple/8.png","2","null","","200","512","","","","background","",""
"","null","html-keyboard-response","222","426166","0.0-20.0-0.4","SS1604516882157","","null","","","","","","","","","","","","<img src=images/blank.png width =""500"" height = ""500"" style=""border:5px solid black"">","","",""
"","976","stimulus-presentation","223","427357","0.0-20.0-1.4","SS1604516882157","<img src='images/simple/5.png' width ='500' height = '500' style='border:5px solid black'>","40","all_simple","images/simple/5.png","images/simple/3.png","images/simple/4.png,images/simple/18.png,images/simple/7.png,images/simple/10.png,images/simple/11.png,images/simple/16.png,images/simple/8.png","2","null","","200","1176","yes","356","","target","",""
"","null","html-keyboard-response","224","428260","0.0-20.0-0.5","SS1604516882157","","null","","","","","","","","","","","","<img src=images/blank.png width =""500"" height = ""500"" style=""border:5px solid black"">","","",""
"","414","stimulus-presentation","225","428893","0.0-20.0-1.5","SS1604516882157","<img src='images/simple/18.png' width ='500' height = '500' style='border:5px solid black'>","40","all_simple","images/simple/5.png","images/simple/3.png","images/simple/4.png,images/simple/18.png,images/simple/7.png,images/simple/10.png,images/simple/11.png,images/simple/16.png,images/simple/8.png","2","null","","200","614","","","","deviant","",""
"","null","html-keyboard-response","226","429969","0.0-20.0-0.6","SS1604516882157","","null","","","","","","","","","","","","<img src=images/blank.png width =""500"" height = ""500"" style=""border:5px solid black"">","","",""
"","1243","stimulus-presentation","227","431428","0.0-20.0-1.6","SS1604516882157","<img src='images/simple/5.png' width ='500' height = '500' style='border:5px solid black'>","40","all_simple","images/simple/5.png","images/simple/3.png","images/simple/4.png,images/simple/18.png,images/simple/7.png,images/simple/10.png,images/simple/11.png,images/simple/16.png,images/simple/8.png","2","null","","200","1443","yes","510","","target","",""
"","null","html-keyboard-response","228","432588","0.0-20.0-0.7","SS1604516882157","","null","","","","","","","","","","","","<img src=images/blank.png width =""500"" height = ""500"" style=""border:5px solid black"">","","",""
"","499","stimulus-presentation","229","433304","0.0-20.0-1.7","SS1604516882157","<img src='images/simple/3.png' width ='500' height = '500' style='border:5px solid black'>","40","all_simple","images/simple/5.png","images/simple/3.png","images/simple/4.png,images/simple/18.png,images/simple/7.png,images/simple/10.png,images/simple/11.png,images/simple/16.png,images/simple/8.png","2","null","","200","699","","","","background","",""
"","null","html-keyboard-response","230","434219","0.0-20.0-0.8","SS1604516882157","","null","","","","","","","","","","","","<img src=images/blank.png width =""500"" height = ""500"" style=""border:5px solid black"">","","",""
"","373","stimulus-presentation","231","434809","0.0-20.0-1.8","SS1604516882157","<img src='images/simple/3.png' width ='500' height = '500' style='border:5px solid black'>","40","all_simple","images/simple/5.png","images/simple/3.png","images/simple/4.png,images/simple/18.png,images/simple/7.png,images/simple/10.png,images/simple/11.png,images/simple/16.png,images/simple/8.png","2","null","","200","573","","","","background","",""
"","null","html-keyboard-response","232","435785","0.0-20.0-0.9","SS1604516882157","","null","","","","","","","","","","","","<img src=images/blank.png width =""500"" height = ""500"" style=""border:5px solid black"">","","",""
"","1190","stimulus-presentation","233","437191","0.0-20.0-1.9","SS1604516882157","<img src='images/simple/5.png' width ='500' height = '500' style='border:5px solid black'>","40","all_simple","images/simple/5.png","images/simple/3.png","images/simple/4.png,images/simple/18.png,images/simple/7.png,images/simple/10.png,images/simple/11.png,images/simple/16.png,images/simple/8.png","2","null","","200","1390","yes","413","","target","",""
"","null","html-keyboard-response","234","438078","0.0-20.0-0.10","SS1604516882157","","null","","","","","","","","","","","","<img src=images/blank.png width =""500"" height = ""500"" style=""border:5px solid black"">","","",""
"","416","stimulus-presentation","235","438711","0.0-20.0-1.10","SS1604516882157","<img src='images/simple/16.png' width ='500' height = '500' style='border:5px solid black'>","40","all_simple","images/simple/5.png","images/simple/3.png","images/simple/4.png,images/simple/18.png,images/simple/7.png,images/simple/10.png,images/simple/11.png,images/simple/16.png,images/simple/8.png","2","null","","200","616","","","","deviant","",""
"","null","html-keyboard-response","236","440017","0.0-20.0-0.11","SS1604516882157","","null","","","","","","","","","","","","<img src=images/blank.png width =""500"" height = ""500"" style=""border:5px solid black"">","","",""
"","2197","stimulus-presentation","237","442430","0.0-20.0-1.11","SS1604516882157","<img src='images/simple/5.png' width ='500' height = '500' style='border:5px solid black'>","40","all_simple","images/simple/5.png","images/simple/3.png","images/simple/4.png,images/simple/18.png,images/simple/7.png,images/simple/10.png,images/simple/11.png,images/simple/16.png,images/simple/8.png","2","null","","200","2397","yes","638","","target","",""
"","null","html-keyboard-response","238","443410","0.0-20.0-0.12","SS1604516882157","","null","","","","","","","","","","","","<img src=images/blank.png width =""500"" height = ""500"" style=""border:5px solid black"">","","",""
"","232","stimulus-presentation","239","443860","0.0-20.0-1.12","SS1604516882157","<img src='images/simple/3.png' width ='500' height = '500' style='border:5px solid black'>","40","all_simple","images/simple/5.png","images/simple/3.png","images/simple/4.png,images/simple/18.png,images/simple/7.png,images/simple/10.png,images/simple/11.png,images/simple/16.png,images/simple/8.png","2","null","","200","432","","","","background","",""
"","null","html-keyboard-response","240","444948","0.0-20.0-0.13","SS1604516882157","","null","","","","","","","","","","","","<img src=images/blank.png width =""500"" height = ""500"" style=""border:5px solid black"">","","",""
"","222","stimulus-presentation","241","445389","0.0-20.0-1.13","SS1604516882157","<img src='images/simple/3.png' width ='500' height = '500' style='border:5px solid black'>","40","all_simple","images/simple/5.png","images/simple/3.png","images/simple/4.png,images/simple/18.png,images/simple/7.png,images/simple/10.png,images/simple/11.png,images/simple/16.png,images/simple/8.png","2","null","","200","422","","","","background","",""
"","null","html-keyboard-response","242","446674","0.0-20.0-0.14","SS1604516882157","","null","","","","","","","","","","","","<img src=images/blank.png width =""500"" height = ""500"" style=""border:5px solid black"">","","",""
"","476","stimulus-presentation","243","447367","0.0-20.0-1.14","SS1604516882157","<img src='images/simple/3.png' width ='500' height = '500' style='border:5px solid black'>","40","all_simple","images/simple/5.png","images/simple/3.png","images/simple/4.png,images/simple/18.png,images/simple/7.png,images/simple/10.png,images/simple/11.png,images/simple/16.png,images/simple/8.png","2","null","","200","676","","","","background","",""
"","null","html-keyboard-response","244","448523","0.0-20.0-0.15","SS1604516882157","","null","","","","","","","","","","","","<img src=images/blank.png width =""500"" height = ""500"" style=""border:5px solid black"">","","",""
"","235","stimulus-presentation","245","448975","0.0-20.0-1.15","SS1604516882157","<img src='images/simple/3.png' width ='500' height = '500' style='border:5px solid black'>","40","all_simple","images/simple/5.png","images/simple/3.png","images/simple/4.png,images/simple/18.png,images/simple/7.png,images/simple/10.png,images/simple/11.png,images/simple/16.png,images/simple/8.png","2","null","","200","435","","","","background","",""
"","null","html-keyboard-response","246","449935","0.0-20.0-0.16","SS1604516882157","","null","","","","","","","","","","","","<img src=images/blank.png width =""500"" height = ""500"" style=""border:5px solid black"">","","",""
"","286","stimulus-presentation","247","450439","0.0-20.0-1.16","SS1604516882157","<img src='images/simple/3.png' width ='500' height = '500' style='border:5px solid black'>","40","all_simple","images/simple/5.png","images/simple/3.png","images/simple/4.png,images/simple/18.png,images/simple/7.png,images/simple/10.png,images/simple/11.png,images/simple/16.png,images/simple/8.png","2","null","","200","486","","","","background","",""
"","null","html-keyboard-response","248","451597","0.0-20.0-0.17","SS1604516882157","","null","","","","","","","","","","","","<img src=images/blank.png width =""500"" height = ""500"" style=""border:5px solid black"">","","",""
"","493","stimulus-presentation","249","452306","0.0-20.0-1.17","SS1604516882157","<img src='images/simple/11.png' width ='500' height = '500' style='border:5px solid black'>","40","all_simple","images/simple/5.png","images/simple/3.png","images/simple/4.png,images/simple/18.png,images/simple/7.png,images/simple/10.png,images/simple/11.png,images/simple/16.png,images/simple/8.png","2","null","","200","693","","","","deviant","",""
"","null","html-keyboard-response","250","453520","0.0-20.0-0.18","SS1604516882157","","null","","","","","","","","","","","","<img src=images/blank.png width =""500"" height = ""500"" style=""border:5px solid black"">","","",""
"","473","stimulus-presentation","251","454209","0.0-20.0-1.18","SS1604516882157","<img src='images/simple/3.png' width ='500' height = '500' style='border:5px solid black'>","40","all_simple","images/simple/5.png","images/simple/3.png","images/simple/4.png,images/simple/18.png,images/simple/7.png,images/simple/10.png,images/simple/11.png,images/simple/16.png,images/simple/8.png","2","null","","200","673","","","","background","",""
"","null","html-keyboard-response","252","455164","0.0-20.0-0.19","SS1604516882157","","null","","","","","","","","","","","","<img src=images/blank.png width =""500"" height = ""500"" style=""border:5px solid black"">","","",""
"","184","stimulus-presentation","253","455565","0.0-20.0-1.19","SS1604516882157","<img src='images/simple/3.png' width ='500' height = '500' style='border:5px solid black'>","40","all_simple","images/simple/5.png","images/simple/3.png","images/simple/4.png,images/simple/18.png,images/simple/7.png,images/simple/10.png,images/simple/11.png,images/simple/16.png,images/simple/8.png","2","null","","200","384","","","","background","",""
"","null","html-keyboard-response","254","456624","0.0-20.0-0.20","SS1604516882157","","null","","","","","","","","","","","","<img src=images/blank.png width =""500"" height = ""500"" style=""border:5px solid black"">","","",""
"","228","stimulus-presentation","255","457071","0.0-20.0-1.20","SS1604516882157","<img src='images/simple/3.png' width ='500' height = '500' style='border:5px solid black'>","40","all_simple","images/simple/5.png","images/simple/3.png","images/simple/4.png,images/simple/18.png,images/simple/7.png,images/simple/10.png,images/simple/11.png,images/simple/16.png,images/simple/8.png","2","null","","200","428","","","","background","",""
"","null","html-keyboard-response","256","458348","0.0-20.0-0.21","SS1604516882157","","null","","","","","","","","","","","","<img src=images/blank.png width =""500"" height = ""500"" style=""border:5px solid black"">","","",""
"","130","stimulus-presentation","257","458693","0.0-20.0-1.21","SS1604516882157","<img src='images/simple/3.png' width ='500' height = '500' style='border:5px solid black'>","40","all_simple","images/simple/5.png","images/simple/3.png","images/simple/4.png,images/simple/18.png,images/simple/7.png,images/simple/10.png,images/simple/11.png,images/simple/16.png,images/simple/8.png","2","null","","200","330","","","","background","",""
"","null","html-keyboard-response","258","459711","0.0-20.0-0.22","SS1604516882157","","null","","","","","","","","","","","","<img src=images/blank.png width =""500"" height = ""500"" style=""border:5px solid black"">","","",""
"","143","stimulus-presentation","259","460071","0.0-20.0-1.22","SS1604516882157","<img src='images/simple/3.png' width ='500' height = '500' style='border:5px solid black'>","40","all_simple","images/simple/5.png","images/simple/3.png","images/simple/4.png,images/simple/18.png,images/simple/7.png,images/simple/10.png,images/simple/11.png,images/simple/16.png,images/simple/8.png","2","null","","200","343","","","","background","",""
"","null","html-keyboard-response","260","461310","0.0-20.0-0.23","SS1604516882157","","null","","","","","","","","","","","","<img src=images/blank.png width =""500"" height = ""500"" style=""border:5px solid black"">","","",""
"","1075","stimulus-presentation","261","462603","0.0-20.0-1.23","SS1604516882157","<img src='images/simple/10.png' width ='500' height = '500' style='border:5px solid black'>","40","all_simple","images/simple/5.png","images/simple/3.png","images/simple/4.png,images/simple/18.png,images/simple/7.png,images/simple/10.png,images/simple/11.png,images/simple/16.png,images/simple/8.png","2","null","","200","1275","","","","deviant","",""
"","null","html-keyboard-response","262","463674","0.0-20.0-0.24","SS1604516882157","","null","","","","","","","","","","","","<img src=images/blank.png width =""500"" height = ""500"" style=""border:5px solid black"">","","",""
"","200","stimulus-presentation","263","464092","0.0-20.0-1.24","SS1604516882157","<img src='images/simple/3.png' width ='500' height = '500' style='border:5px solid black'>","40","all_simple","images/simple/5.png","images/simple/3.png","images/simple/4.png,images/simple/18.png,images/simple/7.png,images/simple/10.png,images/simple/11.png,images/simple/16.png,images/simple/8.png","2","null","","200","400","","","","background","",""
"","null","html-keyboard-response","264","465319","0.0-20.0-0.25","SS1604516882157","","null","","","","","","","","","","","","<img src=images/blank.png width =""500"" height = ""500"" style=""border:5px solid black"">","","",""
"","290","stimulus-presentation","265","465826","0.0-20.0-1.25","SS1604516882157","<img src='images/simple/3.png' width ='500' height = '500' style='border:5px solid black'>","40","all_simple","images/simple/5.png","images/simple/3.png","images/simple/4.png,images/simple/18.png,images/simple/7.png,images/simple/10.png,images/simple/11.png,images/simple/16.png,images/simple/8.png","2","null","","200","490","","","","background","",""
"","null","html-keyboard-response","266","466973","0.0-20.0-0.26","SS1604516882157","","null","","","","","","","","","","","","<img src=images/blank.png width =""500"" height = ""500"" style=""border:5px solid black"">","","",""
"","421","stimulus-presentation","267","467613","0.0-20.0-1.26","SS1604516882157","<img src='images/simple/3.png' width ='500' height = '500' style='border:5px solid black'>","40","all_simple","images/simple/5.png","images/simple/3.png","images/simple/4.png,images/simple/18.png,images/simple/7.png,images/simple/10.png,images/simple/11.png,images/simple/16.png,images/simple/8.png","2","null","","200","621","","","","background","",""
"","null","html-keyboard-response","268","468511","0.0-20.0-0.27","SS1604516882157","","null","","","","","","","","","","","","<img src=images/blank.png width =""500"" height = ""500"" style=""border:5px solid black"">","","",""
"","1231","stimulus-presentation","269","469975","0.0-20.0-1.27","SS1604516882157","<img src='images/simple/3.png' width ='500' height = '500' style='border:5px solid black'>","40","all_simple","images/simple/5.png","images/simple/3.png","images/simple/4.png,images/simple/18.png,images/simple/7.png,images/simple/10.png,images/simple/11.png,images/simple/16.png,images/simple/8.png","2","null","","200","1431","","","","background","",""
"","null","html-keyboard-response","270","470827","0.0-20.0-0.28","SS1604516882157","","null","","","","","","","","","","","","<img src=images/blank.png width =""500"" height = ""500"" style=""border:5px solid black"">","","",""
"","1218","stimulus-presentation","271","472264","0.0-20.0-1.28","SS1604516882157","<img src='images/simple/3.png' width ='500' height = '500' style='border:5px solid black'>","40","all_simple","images/simple/5.png","images/simple/3.png","images/simple/4.png,images/simple/18.png,images/simple/7.png,images/simple/10.png,images/simple/11.png,images/simple/16.png,images/simple/8.png","2","null","","200","1418","","","","background","",""
"","null","html-keyboard-response","272","473353","0.0-20.0-0.29","SS1604516882157","","null","","","","","","","","","","","","<img src=images/blank.png width =""500"" height = ""500"" style=""border:5px solid black"">","","",""
"","1020","stimulus-presentation","273","474590","0.0-20.0-1.29","SS1604516882157","<img src='images/simple/3.png' width ='500' height = '500' style='border:5px solid black'>","40","all_simple","images/simple/5.png","images/simple/3.png","images/simple/4.png,images/simple/18.png,images/simple/7.png,images/simple/10.png,images/simple/11.png,images/simple/16.png,images/simple/8.png","2","null","","200","1220","","","","background","",""
"","null","html-keyboard-response","274","475575","0.0-20.0-0.30","SS1604516882157","","null","","","","","","","","","","","","<img src=images/blank.png width =""500"" height = ""500"" style=""border:5px solid black"">","","",""
"","530","stimulus-presentation","275","476322","0.0-20.0-1.30","SS1604516882157","<img src='images/simple/8.png' width ='500' height = '500' style='border:5px solid black'>","40","all_simple","images/simple/5.png","images/simple/3.png","images/simple/4.png,images/simple/18.png,images/simple/7.png,images/simple/10.png,images/simple/11.png,images/simple/16.png,images/simple/8.png","2","null","","200","730","","","","deviant","",""
"","null","html-keyboard-response","276","477157","0.0-20.0-0.31","SS1604516882157","","null","","","","","","","","","","","","<img src=images/blank.png width =""500"" height = ""500"" style=""border:5px solid black"">","","",""
"","216","stimulus-presentation","277","477591","0.0-20.0-1.31","SS1604516882157","<img src='images/simple/3.png' width ='500' height = '500' style='border:5px solid black'>","40","all_simple","images/simple/5.png","images/simple/3.png","images/simple/4.png,images/simple/18.png,images/simple/7.png,images/simple/10.png,images/simple/11.png,images/simple/16.png,images/simple/8.png","2","null","","200","416","","","","background","",""
"","null","html-keyboard-response","278","478663","0.0-20.0-0.32","SS1604516882157","","null","","","","","","","","","","","","<img src=images/blank.png width =""500"" height = ""500"" style=""border:5px solid black"">","","",""
"","173","stimulus-presentation","279","479055","0.0-20.0-1.32","SS1604516882157","<img src='images/simple/3.png' width ='500' height = '500' style='border:5px solid black'>","40","all_simple","images/simple/5.png","images/simple/3.png","images/simple/4.png,images/simple/18.png,images/simple/7.png,images/simple/10.png,images/simple/11.png,images/simple/16.png,images/simple/8.png","2","null","","200","373","","","","background","",""
"","null","html-keyboard-response","280","480198","0.0-20.0-0.33","SS1604516882157","","null","","","","","","","","","","","","<img src=images/blank.png width =""500"" height = ""500"" style=""border:5px solid black"">","","",""
"","576","stimulus-presentation","281","480991","0.0-20.0-1.33","SS1604516882157","<img src='images/simple/3.png' width ='500' height = '500' style='border:5px solid black'>","40","all_simple","images/simple/5.png","images/simple/3.png","images/simple/4.png,images/simple/18.png,images/simple/7.png,images/simple/10.png,images/simple/11.png,images/simple/16.png,images/simple/8.png","2","null","","200","776","","","","background","",""
"","null","html-keyboard-response","282","481978","0.0-20.0-0.34","SS1604516882157","","null","","","","","","","","","","","","<img src=images/blank.png width =""500"" height = ""500"" style=""border:5px solid black"">","","",""
"","211","stimulus-presentation","283","482407","0.0-20.0-1.34","SS1604516882157","<img src='images/simple/3.png' width ='500' height = '500' style='border:5px solid black'>","40","all_simple","images/simple/5.png","images/simple/3.png","images/simple/4.png,images/simple/18.png,images/simple/7.png,images/simple/10.png,images/simple/11.png,images/simple/16.png,images/simple/8.png","2","null","","200","411","","","","background","",""
"","null","html-keyboard-response","284","483481","0.0-20.0-0.35","SS1604516882157","","null","","","","","","","","","","","","<img src=images/blank.png width =""500"" height = ""500"" style=""border:5px solid black"">","","",""
"","130","stimulus-presentation","285","483843","0.0-20.0-1.35","SS1604516882157","<img src='images/simple/3.png' width ='500' height = '500' style='border:5px solid black'>","40","all_simple","images/simple/5.png","images/simple/3.png","images/simple/4.png,images/simple/18.png,images/simple/7.png,images/simple/10.png,images/simple/11.png,images/simple/16.png,images/simple/8.png","2","null","","200","330","","","","background","",""
"","null","html-keyboard-response","286","484818","0.0-20.0-0.36","SS1604516882157","","null","","","","","","","","","","","","<img src=images/blank.png width =""500"" height = ""500"" style=""border:5px solid black"">","","",""
"","125","stimulus-presentation","287","485158","0.0-20.0-1.36","SS1604516882157","<img src='images/simple/3.png' width ='500' height = '500' style='border:5px solid black'>","40","all_simple","images/simple/5.png","images/simple/3.png","images/simple/4.png,images/simple/18.png,images/simple/7.png,images/simple/10.png,images/simple/11.png,images/simple/16.png,images/simple/8.png","2","null","","200","325","","","","background","",""
"","null","html-keyboard-response","288","486319","0.0-20.0-0.37","SS1604516882157","","null","","","","","","","","","","","","<img src=images/blank.png width =""500"" height = ""500"" style=""border:5px solid black"">","","",""
"","84","stimulus-presentation","289","486618","0.0-20.0-1.37","SS1604516882157","<img src='images/simple/3.png' width ='500' height = '500' style='border:5px solid black'>","40","all_simple","images/simple/5.png","images/simple/3.png","images/simple/4.png,images/simple/18.png,images/simple/7.png,images/simple/10.png,images/simple/11.png,images/simple/16.png,images/simple/8.png","2","null","","200","284","","","","background","",""
"","null","html-keyboard-response","290","487636","0.0-20.0-0.38","SS1604516882157","","null","","","","","","","","","","","","<img src=images/blank.png width =""500"" height = ""500"" style=""border:5px solid black"">","","",""
"","151","stimulus-presentation","291","488005","0.0-20.0-1.38","SS1604516882157","<img src='images/simple/3.png' width ='500' height = '500' style='border:5px solid black'>","40","all_simple","images/simple/5.png","images/simple/3.png","images/simple/4.png,images/simple/18.png,images/simple/7.png,images/simple/10.png,images/simple/11.png,images/simple/16.png,images/simple/8.png","2","null","","200","351","","","","background","",""
"","null","html-keyboard-response","292","489268","0.0-20.0-0.39","SS1604516882157","","null","","","","","","","","","","","","<img src=images/blank.png width =""500"" height = ""500"" style=""border:5px solid black"">","","",""
"","184","stimulus-presentation","293","489670","0.0-20.0-1.39","SS1604516882157","<img src='images/simple/3.png' width ='500' height = '500' style='border:5px solid black'>","40","all_simple","images/simple/5.png","images/simple/3.png","images/simple/4.png,images/simple/18.png,images/simple/7.png,images/simple/10.png,images/simple/11.png,images/simple/16.png,images/simple/8.png","2","null","","200","384","","","","background","",""
"","null","html-keyboard-response","294","490498","0.0-20.0-0.40","SS1604516882157","","null","","","","","","","","","","","","<img src=images/blank.png width =""500"" height = ""500"" style=""border:5px solid black"">","","",""
"","202","stimulus-presentation","295","490916","0.0-20.0-1.40","SS1604516882157","<img src='images/simple/3.png' width ='500' height = '500' style='border:5px solid black'>","40","all_simple","images/simple/5.png","images/simple/3.png","images/simple/4.png,images/simple/18.png,images/simple/7.png,images/simple/10.png,images/simple/11.png,images/simple/16.png,images/simple/8.png","2","null","","200","402","","","","background","",""
"","null","html-keyboard-response","296","491892","0.0-20.0-0.41","SS1604516882157","","null","","","","","","","","","","","","<img src=images/blank.png width =""500"" height = ""500"" style=""border:5px solid black"">","","",""
