"view_history","rt","trial_type","trial_index","time_elapsed","internal_node_id","subject","trial_stimulus","key_press","task_type","task_target_stimulus","task_background_stimulus","task_deviant_stimuli","task_order_number","block_order_number","trial_order_number","minimum_viewing_duration","trial_looking_time","trial_pressed_space_bar","trial_space_bar_rt","stimulus","trial_stimulus_type","responses","question_order"
"[{""page_index"":0,""viewing_time"":2536.0799999907613}]","2537.125000031665","instructions","0","2577","0.0-0.0","SS1604513969042","","","","","","","","","","","","","","","","",""
"[{""page_index"":0,""viewing_time"":7658.264999976382},{""page_index"":1,""viewing_time"":2973.259999998845},{""page_index"":2,""viewing_time"":2853.4249999793246},{""page_index"":3,""viewing_time"":5217.794999945909},{""page_index"":4,""viewing_time"":1776.1000000173226},{""page_index"":5,""viewing_time"":2029.4200000353158},{""page_index"":6,""viewing_time"":1737.4800000106916},{""page_index"":7,""viewing_time"":6611.730000004172},{""page_index"":8,""viewing_time"":1871.3149999966845}]","32729.41999998875","instructions","1","35313","0.0-1.0","SS1604513969042","","","","","","","","","","","","","","","","",""
"[{""page_index"":0,""viewing_time"":1362.4999999301508},{""page_index"":1,""viewing_time"":5237.725000013597},{""page_index"":2,""viewing_time"":1429.9299999838695}]","8031.094999983907","instructions","2","43348","0.0-2.0","SS1604513969042","","","","","","","","","","","","","","","","",""
"","825.3750000149012","practice-block","3","44387","0.0-3.0","SS1604513969042","<img src='images/practice/practice_background.jpeg' width ='500' height = '500' style='border:5px solid black'>","40","null","images/practice/practice_target.jpg","null","null","null","null","","200","1025.3750000149012","","","","","",""
"","null","html-keyboard-response","4","45509","0.0-4.0","SS1604513969042","","null","","","","","","","","","","","","<img src=images/blank.png width =""500"" height = ""500"" style=""border:5px solid black"">","","",""
"","197.23500008694828","practice-block","5","45912","0.0-5.0","SS1604513969042","<img src='images/practice/practice_background.jpeg' width ='500' height = '500' style='border:5px solid black'>","40","null","images/practice/practice_target.jpg","null","null","null","null","","200","397.2350000869483","","","","","",""
"","null","html-keyboard-response","6","47120","0.0-6.0","SS1604513969042","","null","","","","","","","","","","","","<img src=images/blank.png width =""500"" height = ""500"" style=""border:5px solid black"">","","",""
"","271.6299999738112","practice-block","7","47601","0.0-7.0","SS1604513969042","<img src='images/practice/practice_deviant.jpeg' width ='500' height = '500' style='border:5px solid black'>","40","null","images/practice/practice_target.jpg","null","null","null","null","","200","471.6299999738112","","","","","",""
"","null","html-keyboard-response","8","48536","0.0-8.0","SS1604513969042","","null","","","","","","","","","","","","<img src=images/blank.png width =""500"" height = ""500"" style=""border:5px solid black"">","","",""
"","3538.1449999986216","practice-block","9","52280","0.0-9.0-0.0","SS1604513969042","<img src='images/practice/practice_target.jpg' width ='500' height = '500' style='border:5px solid black'>","40","null","images/practice/practice_target.jpg","null","null","null","null","","200","3738.1449999986216","yes","521.2700000265613","","","",""
"","null","html-keyboard-response","10","53515","0.0-10.0","SS1604513969042","","null","","","","","","","","","","","","<img src=images/blank.png width =""500"" height = ""500"" style=""border:5px solid black"">","","",""
"","165.68500001449138","practice-block","11","53900","0.0-11.0","SS1604513969042","<img src='images/practice/practice_background.jpeg' width ='500' height = '500' style='border:5px solid black'>","40","null","images/practice/practice_target.jpg","null","null","null","null","","200","365.6850000144914","","","","","",""
"[{""page_index"":0,""viewing_time"":1847}]","1849","task-instructions","12","55754","0.0-12.0","SS1604513969042","","","","","","","","","","","","","","","","",""
"[{""page_index"":0,""viewing_time"":1959.210000000894},{""page_index"":1,""viewing_time"":46600.00999993645},{""page_index"":2,""viewing_time"":1496.0699999937788}]","50056.484999950044","instructions","13","105815","0.0-13.0","SS1604513969042","","","","","","","","","","","","","","","","",""
"","null","html-keyboard-response","14","106697","0.0-14.0-0.0","SS1604513969042","","null","","","","","","","","","","","","<img src=images/blank.png width =""500"" height = ""500"" style=""border:5px solid black"">","","",""
"","254.25999995786697","stimulus-presentation","15","107170","0.0-14.0-1.0","SS1604513969042","<img src='images/complex/7.png' width ='500' height = '500' style='border:5px solid black'>","40","mixed_simple_deviant","images/complex/11.png","images/complex/7.png","images/simple/11.png,images/simple/6.png,images/simple/10.png,images/simple/16.png,images/simple/8.png,images/simple/9.png,images/simple/18.png","0","null","","200","454.25999995786697","","","","background","",""
"","null","html-keyboard-response","16","108361","0.0-14.0-0.1","SS1604513969042","","null","","","","","","","","","","","","<img src=images/blank.png width =""500"" height = ""500"" style=""border:5px solid black"">","","",""
"","185.5750000104308","stimulus-presentation","17","108755","0.0-14.0-1.1","SS1604513969042","<img src='images/complex/7.png' width ='500' height = '500' style='border:5px solid black'>","40","mixed_simple_deviant","images/complex/11.png","images/complex/7.png","images/simple/11.png,images/simple/6.png,images/simple/10.png,images/simple/16.png,images/simple/8.png,images/simple/9.png,images/simple/18.png","0","null","","200","385.5750000104308","","","","background","",""
"","null","html-keyboard-response","18","109862","0.0-14.0-0.2","SS1604513969042","","null","","","","","","","","","","","","<img src=images/blank.png width =""500"" height = ""500"" style=""border:5px solid black"">","","",""
"","315.6050000106916","stimulus-presentation","19","110398","0.0-14.0-1.2","SS1604513969042","<img src='images/simple/18.png' width ='500' height = '500' style='border:5px solid black'>","40","mixed_simple_deviant","images/complex/11.png","images/complex/7.png","images/simple/11.png,images/simple/6.png,images/simple/10.png,images/simple/16.png,images/simple/8.png,images/simple/9.png,images/simple/18.png","0","null","","200","515.6050000106916","","","","deviant","",""
"","null","html-keyboard-response","20","111628","0.0-14.0-0.3","SS1604513969042","","null","","","","","","","","","","","","<img src=images/blank.png width =""500"" height = ""500"" style=""border:5px solid black"">","","",""
"","157.57499996107072","stimulus-presentation","21","111999","0.0-14.0-1.3","SS1604513969042","<img src='images/complex/7.png' width ='500' height = '500' style='border:5px solid black'>","40","mixed_simple_deviant","images/complex/11.png","images/complex/7.png","images/simple/11.png,images/simple/6.png,images/simple/10.png,images/simple/16.png,images/simple/8.png,images/simple/9.png,images/simple/18.png","0","null","","200","357.5749999610707","","","","background","",""
"","null","html-keyboard-response","22","113216","0.0-14.0-0.4","SS1604513969042","","null","","","","","","","","","","","","<img src=images/blank.png width =""500"" height = ""500"" style=""border:5px solid black"">","","",""
"","141.38499996624887","stimulus-presentation","23","113587","0.0-14.0-1.4","SS1604513969042","<img src='images/complex/7.png' width ='500' height = '500' style='border:5px solid black'>","40","mixed_simple_deviant","images/complex/11.png","images/complex/7.png","images/simple/11.png,images/simple/6.png,images/simple/10.png,images/simple/16.png,images/simple/8.png,images/simple/9.png,images/simple/18.png","0","null","","200","341.38499996624887","","","","background","",""
"","null","html-keyboard-response","24","114677","0.0-14.0-0.5","SS1604513969042","","null","","","","","","","","","","","","<img src=images/blank.png width =""500"" height = ""500"" style=""border:5px solid black"">","","",""
"","2477.489999961108","stimulus-presentation","25","117365","0.0-14.0-1.5","SS1604513969042","<img src='images/complex/11.png' width ='500' height = '500' style='border:5px solid black'>","40","mixed_simple_deviant","images/complex/11.png","images/complex/7.png","images/simple/11.png,images/simple/6.png,images/simple/10.png,images/simple/16.png,images/simple/8.png,images/simple/9.png,images/simple/18.png","0","null","","200","2677.489999961108","","","","target","",""
"","null","html-keyboard-response","26","118653","0.0-14.0-0.6","SS1604513969042","","null","","","","","","","","","","","","<img src=images/blank.png width =""500"" height = ""500"" style=""border:5px solid black"">","","",""
"","140.9849999472499","stimulus-presentation","27","119004","0.0-14.0-1.6","SS1604513969042","<img src='images/simple/10.png' width ='500' height = '500' style='border:5px solid black'>","40","mixed_simple_deviant","images/complex/11.png","images/complex/7.png","images/simple/11.png,images/simple/6.png,images/simple/10.png,images/simple/16.png,images/simple/8.png,images/simple/9.png,images/simple/18.png","0","null","","200","340.9849999472499","","","","deviant","",""
"","null","html-keyboard-response","28","120263","0.0-14.0-0.7","SS1604513969042","","null","","","","","","","","","","","","<img src=images/blank.png width =""500"" height = ""500"" style=""border:5px solid black"">","","",""
"","248.13000007998198","stimulus-presentation","29","120725","0.0-14.0-1.7","SS1604513969042","<img src='images/complex/7.png' width ='500' height = '500' style='border:5px solid black'>","40","mixed_simple_deviant","images/complex/11.png","images/complex/7.png","images/simple/11.png,images/simple/6.png,images/simple/10.png,images/simple/16.png,images/simple/8.png,images/simple/9.png,images/simple/18.png","0","null","","200","448.130000079982","","","","background","",""
"","null","html-keyboard-response","30","121716","0.0-14.0-0.8","SS1604513969042","","null","","","","","","","","","","","","<img src=images/blank.png width =""500"" height = ""500"" style=""border:5px solid black"">","","",""
"","149.72499990835786","stimulus-presentation","31","122082","0.0-14.0-1.8","SS1604513969042","<img src='images/complex/7.png' width ='500' height = '500' style='border:5px solid black'>","40","mixed_simple_deviant","images/complex/11.png","images/complex/7.png","images/simple/11.png,images/simple/6.png,images/simple/10.png,images/simple/16.png,images/simple/8.png,images/simple/9.png,images/simple/18.png","0","null","","200","349.72499990835786","","","","background","",""
"","null","html-keyboard-response","32","123318","0.0-14.0-0.9","SS1604513969042","","null","","","","","","","","","","","","<img src=images/blank.png width =""500"" height = ""500"" style=""border:5px solid black"">","","",""
"","121.54500000178814","stimulus-presentation","33","123650","0.0-14.0-1.9","SS1604513969042","<img src='images/complex/7.png' width ='500' height = '500' style='border:5px solid black'>","40","mixed_simple_deviant","images/complex/11.png","images/complex/7.png","images/simple/11.png,images/simple/6.png,images/simple/10.png,images/simple/16.png,images/simple/8.png,images/simple/9.png,images/simple/18.png","0","null","","200","321.54500000178814","","","","background","",""
"","null","html-keyboard-response","34","124555","0.0-14.0-0.10","SS1604513969042","","null","","","","","","","","","","","","<img src=images/blank.png width =""500"" height = ""500"" style=""border:5px solid black"">","","",""
"","122.48999997973442","stimulus-presentation","35","124886","0.0-14.0-1.10","SS1604513969042","<img src='images/complex/7.png' width ='500' height = '500' style='border:5px solid black'>","40","mixed_simple_deviant","images/complex/11.png","images/complex/7.png","images/simple/11.png,images/simple/6.png,images/simple/10.png,images/simple/16.png,images/simple/8.png,images/simple/9.png,images/simple/18.png","0","null","","200","322.4899999797344","","","","background","",""
"","null","html-keyboard-response","36","125715","0.0-14.0-0.11","SS1604513969042","","null","","","","","","","","","","","","<img src=images/blank.png width =""500"" height = ""500"" style=""border:5px solid black"">","","",""
"","146.8200000235811","stimulus-presentation","37","126074","0.0-14.0-1.11","SS1604513969042","<img src='images/complex/7.png' width ='500' height = '500' style='border:5px solid black'>","40","mixed_simple_deviant","images/complex/11.png","images/complex/7.png","images/simple/11.png,images/simple/6.png,images/simple/10.png,images/simple/16.png,images/simple/8.png,images/simple/9.png,images/simple/18.png","0","null","","200","346.8200000235811","","","","background","",""
"","null","html-keyboard-response","38","127074","0.0-14.0-0.12","SS1604513969042","","null","","","","","","","","","","","","<img src=images/blank.png width =""500"" height = ""500"" style=""border:5px solid black"">","","",""
"","89.29500007070601","stimulus-presentation","39","127376","0.0-14.0-1.12","SS1604513969042","<img src='images/complex/7.png' width ='500' height = '500' style='border:5px solid black'>","40","mixed_simple_deviant","images/complex/11.png","images/complex/7.png","images/simple/11.png,images/simple/6.png,images/simple/10.png,images/simple/16.png,images/simple/8.png,images/simple/9.png,images/simple/18.png","0","null","","200","289.295000070706","","","","background","",""
"","null","html-keyboard-response","40","128327","0.0-14.0-0.13","SS1604513969042","","null","","","","","","","","","","","","<img src=images/blank.png width =""500"" height = ""500"" style=""border:5px solid black"">","","",""
"","316.7350000003353","stimulus-presentation","41","128859","0.0-14.0-1.13","SS1604513969042","<img src='images/simple/16.png' width ='500' height = '500' style='border:5px solid black'>","40","mixed_simple_deviant","images/complex/11.png","images/complex/7.png","images/simple/11.png,images/simple/6.png,images/simple/10.png,images/simple/16.png,images/simple/8.png,images/simple/9.png,images/simple/18.png","0","null","","200","516.7350000003353","","","","deviant","",""
"","null","html-keyboard-response","42","130076","0.0-14.0-0.14","SS1604513969042","","null","","","","","","","","","","","","<img src=images/blank.png width =""500"" height = ""500"" style=""border:5px solid black"">","","",""
"","1244.4750000722706","stimulus-presentation","43","131537","0.0-14.0-1.14","SS1604513969042","<img src='images/complex/11.png' width ='500' height = '500' style='border:5px solid black'>","40","mixed_simple_deviant","images/complex/11.png","images/complex/7.png","images/simple/11.png,images/simple/6.png,images/simple/10.png,images/simple/16.png,images/simple/8.png,images/simple/9.png,images/simple/18.png","0","null","","200","1444.4750000722706","yes","316.3199999835342","","target","",""
"","null","html-keyboard-response","44","132753","0.0-14.0-0.15","SS1604513969042","","null","","","","","","","","","","","","<img src=images/blank.png width =""500"" height = ""500"" style=""border:5px solid black"">","","",""
"","139.94499994441867","stimulus-presentation","45","133110","0.0-14.0-1.15","SS1604513969042","<img src='images/complex/7.png' width ='500' height = '500' style='border:5px solid black'>","40","mixed_simple_deviant","images/complex/11.png","images/complex/7.png","images/simple/11.png,images/simple/6.png,images/simple/10.png,images/simple/16.png,images/simple/8.png,images/simple/9.png,images/simple/18.png","0","null","","200","339.94499994441867","","","","background","",""
"","null","html-keyboard-response","46","134300","0.0-14.0-0.16","SS1604513969042","","null","","","","","","","","","","","","<img src=images/blank.png width =""500"" height = ""500"" style=""border:5px solid black"">","","",""
"","30.559999984689057","stimulus-presentation","47","134545","0.0-14.0-1.16","SS1604513969042","<img src='images/complex/7.png' width ='500' height = '500' style='border:5px solid black'>","40","mixed_simple_deviant","images/complex/11.png","images/complex/7.png","images/simple/11.png,images/simple/6.png,images/simple/10.png,images/simple/16.png,images/simple/8.png,images/simple/9.png,images/simple/18.png","0","null","","200","230.55999998468906","","","","background","",""
"","null","html-keyboard-response","48","135626","0.0-14.0-0.17","SS1604513969042","","null","","","","","","","","","","","","<img src=images/blank.png width =""500"" height = ""500"" style=""border:5px solid black"">","","",""
"","43.11999992933124","stimulus-presentation","49","135884","0.0-14.0-1.17","SS1604513969042","<img src='images/complex/11.png' width ='500' height = '500' style='border:5px solid black'>","40","mixed_simple_deviant","images/complex/11.png","images/complex/7.png","images/simple/11.png,images/simple/6.png,images/simple/10.png,images/simple/16.png,images/simple/8.png,images/simple/9.png,images/simple/18.png","0","null","","200","243.11999992933124","","","","target","",""
"","null","html-keyboard-response","50","136965","0.0-14.0-0.18","SS1604513969042","","null","","","","","","","","","","","","<img src=images/blank.png width =""500"" height = ""500"" style=""border:5px solid black"">","","",""
"","206.28499996382743","stimulus-presentation","51","137384","0.0-14.0-1.18","SS1604513969042","<img src='images/complex/7.png' width ='500' height = '500' style='border:5px solid black'>","40","mixed_simple_deviant","images/complex/11.png","images/complex/7.png","images/simple/11.png,images/simple/6.png,images/simple/10.png,images/simple/16.png,images/simple/8.png,images/simple/9.png,images/simple/18.png","0","null","","200","406.28499996382743","","","","background","",""
"","null","html-keyboard-response","52","138557","0.0-14.0-0.19","SS1604513969042","","null","","","","","","","","","","","","<img src=images/blank.png width =""500"" height = ""500"" style=""border:5px solid black"">","","",""
"","162.33000007923692","stimulus-presentation","53","138931","0.0-14.0-1.19","SS1604513969042","<img src='images/complex/7.png' width ='500' height = '500' style='border:5px solid black'>","40","mixed_simple_deviant","images/complex/11.png","images/complex/7.png","images/simple/11.png,images/simple/6.png,images/simple/10.png,images/simple/16.png,images/simple/8.png,images/simple/9.png,images/simple/18.png","0","null","","200","362.3300000792369","","","","background","",""
"","null","html-keyboard-response","54","139799","0.0-14.0-0.20","SS1604513969042","","null","","","","","","","","","","","","<img src=images/blank.png width =""500"" height = ""500"" style=""border:5px solid black"">","","",""
"","173.5000000335276","stimulus-presentation","55","140188","0.0-14.0-1.20","SS1604513969042","<img src='images/complex/7.png' width ='500' height = '500' style='border:5px solid black'>","40","mixed_simple_deviant","images/complex/11.png","images/complex/7.png","images/simple/11.png,images/simple/6.png,images/simple/10.png,images/simple/16.png,images/simple/8.png,images/simple/9.png,images/simple/18.png","0","null","","200","373.5000000335276","","","","background","",""
"","null","html-keyboard-response","56","141217","0.0-14.0-0.21","SS1604513969042","","null","","","","","","","","","","","","<img src=images/blank.png width =""500"" height = ""500"" style=""border:5px solid black"">","","",""
"","435.5800000485033","stimulus-presentation","57","141868","0.0-14.0-1.21","SS1604513969042","<img src='images/simple/11.png' width ='500' height = '500' style='border:5px solid black'>","40","mixed_simple_deviant","images/complex/11.png","images/complex/7.png","images/simple/11.png,images/simple/6.png,images/simple/10.png,images/simple/16.png,images/simple/8.png,images/simple/9.png,images/simple/18.png","0","null","","200","635.5800000485033","","","","deviant","",""
"","null","html-keyboard-response","58","142807","0.0-14.0-0.22","SS1604513969042","","null","","","","","","","","","","","","<img src=images/blank.png width =""500"" height = ""500"" style=""border:5px solid black"">","","",""
"","176.97500006761402","stimulus-presentation","59","143200","0.0-14.0-1.22","SS1604513969042","<img src='images/complex/7.png' width ='500' height = '500' style='border:5px solid black'>","40","mixed_simple_deviant","images/complex/11.png","images/complex/7.png","images/simple/11.png,images/simple/6.png,images/simple/10.png,images/simple/16.png,images/simple/8.png,images/simple/9.png,images/simple/18.png","0","null","","200","376.975000067614","","","","background","",""
"","null","html-keyboard-response","60","144243","0.0-14.0-0.23","SS1604513969042","","null","","","","","","","","","","","","<img src=images/blank.png width =""500"" height = ""500"" style=""border:5px solid black"">","","",""
"","853.9749999763444","stimulus-presentation","61","145315","0.0-14.0-1.23","SS1604513969042","<img src='images/complex/7.png' width ='500' height = '500' style='border:5px solid black'>","40","mixed_simple_deviant","images/complex/11.png","images/complex/7.png","images/simple/11.png,images/simple/6.png,images/simple/10.png,images/simple/16.png,images/simple/8.png,images/simple/9.png,images/simple/18.png","0","null","","200","1053.9749999763444","","","","background","",""
"","null","html-keyboard-response","62","146357","0.0-14.0-0.24","SS1604513969042","","null","","","","","","","","","","","","<img src=images/blank.png width =""500"" height = ""500"" style=""border:5px solid black"">","","",""
"","242.0949999941513","stimulus-presentation","63","146820","0.0-14.0-1.24","SS1604513969042","<img src='images/complex/7.png' width ='500' height = '500' style='border:5px solid black'>","40","mixed_simple_deviant","images/complex/11.png","images/complex/7.png","images/simple/11.png,images/simple/6.png,images/simple/10.png,images/simple/16.png,images/simple/8.png,images/simple/9.png,images/simple/18.png","0","null","","200","442.0949999941513","","","","background","",""
"","null","html-keyboard-response","64","147828","0.0-14.0-0.25","SS1604513969042","","null","","","","","","","","","","","","<img src=images/blank.png width =""500"" height = ""500"" style=""border:5px solid black"">","","",""
"","1053.4500000067055","stimulus-presentation","65","149098","0.0-14.0-1.25","SS1604513969042","<img src='images/complex/11.png' width ='500' height = '500' style='border:5px solid black'>","40","mixed_simple_deviant","images/complex/11.png","images/complex/7.png","images/simple/11.png,images/simple/6.png,images/simple/10.png,images/simple/16.png,images/simple/8.png,images/simple/9.png,images/simple/18.png","0","null","","200","1253.4500000067055","yes","390.1899999473244","","target","",""
"","null","html-keyboard-response","66","150112","0.0-14.0-0.26","SS1604513969042","","null","","","","","","","","","","","","<img src=images/blank.png width =""500"" height = ""500"" style=""border:5px solid black"">","","",""
"","148.0699999956414","stimulus-presentation","67","150475","0.0-14.0-1.26","SS1604513969042","<img src='images/complex/7.png' width ='500' height = '500' style='border:5px solid black'>","40","mixed_simple_deviant","images/complex/11.png","images/complex/7.png","images/simple/11.png,images/simple/6.png,images/simple/10.png,images/simple/16.png,images/simple/8.png,images/simple/9.png,images/simple/18.png","0","null","","200","348.0699999956414","","","","background","",""
"","null","html-keyboard-response","68","151491","0.0-14.0-0.27","SS1604513969042","","null","","","","","","","","","","","","<img src=images/blank.png width =""500"" height = ""500"" style=""border:5px solid black"">","","",""
"","127.62499996460974","stimulus-presentation","69","151837","0.0-14.0-1.27","SS1604513969042","<img src='images/complex/7.png' width ='500' height = '500' style='border:5px solid black'>","40","mixed_simple_deviant","images/complex/11.png","images/complex/7.png","images/simple/11.png,images/simple/6.png,images/simple/10.png,images/simple/16.png,images/simple/8.png,images/simple/9.png,images/simple/18.png","0","null","","200","327.62499996460974","","","","background","",""
"","null","html-keyboard-response","70","152732","0.0-14.0-0.28","SS1604513969042","","null","","","","","","","","","","","","<img src=images/blank.png width =""500"" height = ""500"" style=""border:5px solid black"">","","",""
"","73.51500005461276","stimulus-presentation","71","153018","0.0-14.0-1.28","SS1604513969042","<img src='images/complex/7.png' width ='500' height = '500' style='border:5px solid black'>","40","mixed_simple_deviant","images/complex/11.png","images/complex/7.png","images/simple/11.png,images/simple/6.png,images/simple/10.png,images/simple/16.png,images/simple/8.png,images/simple/9.png,images/simple/18.png","0","null","","200","273.51500005461276","","","","background","",""
"","null","html-keyboard-response","72","153953","0.0-14.0-0.29","SS1604513969042","","null","","","","","","","","","","","","<img src=images/blank.png width =""500"" height = ""500"" style=""border:5px solid black"">","","",""
"","202.8149999678135","stimulus-presentation","73","154371","0.0-14.0-1.29","SS1604513969042","<img src='images/simple/6.png' width ='500' height = '500' style='border:5px solid black'>","40","mixed_simple_deviant","images/complex/11.png","images/complex/7.png","images/simple/11.png,images/simple/6.png,images/simple/10.png,images/simple/16.png,images/simple/8.png,images/simple/9.png,images/simple/18.png","0","null","","200","402.8149999678135","","","","deviant","",""
"","null","html-keyboard-response","74","155350","0.0-14.0-0.30","SS1604513969042","","null","","","","","","","","","","","","<img src=images/blank.png width =""500"" height = ""500"" style=""border:5px solid black"">","","",""
"","125.74000004678965","stimulus-presentation","75","155695","0.0-14.0-1.30","SS1604513969042","<img src='images/complex/7.png' width ='500' height = '500' style='border:5px solid black'>","40","mixed_simple_deviant","images/complex/11.png","images/complex/7.png","images/simple/11.png,images/simple/6.png,images/simple/10.png,images/simple/16.png,images/simple/8.png,images/simple/9.png,images/simple/18.png","0","null","","200","325.74000004678965","","","","background","",""
"","null","html-keyboard-response","76","156790","0.0-14.0-0.31","SS1604513969042","","null","","","","","","","","","","","","<img src=images/blank.png width =""500"" height = ""500"" style=""border:5px solid black"">","","",""
"","112.239999929443","stimulus-presentation","77","157111","0.0-14.0-1.31","SS1604513969042","<img src='images/complex/7.png' width ='500' height = '500' style='border:5px solid black'>","40","mixed_simple_deviant","images/complex/11.png","images/complex/7.png","images/simple/11.png,images/simple/6.png,images/simple/10.png,images/simple/16.png,images/simple/8.png,images/simple/9.png,images/simple/18.png","0","null","","200","312.239999929443","","","","background","",""
"","null","html-keyboard-response","78","158126","0.0-14.0-0.32","SS1604513969042","","null","","","","","","","","","","","","<img src=images/blank.png width =""500"" height = ""500"" style=""border:5px solid black"">","","",""
"","309.3549999175593","stimulus-presentation","79","158649","0.0-14.0-1.32","SS1604513969042","<img src='images/complex/7.png' width ='500' height = '500' style='border:5px solid black'>","40","mixed_simple_deviant","images/complex/11.png","images/complex/7.png","images/simple/11.png,images/simple/6.png,images/simple/10.png,images/simple/16.png,images/simple/8.png,images/simple/9.png,images/simple/18.png","0","null","","200","509.3549999175593","","","","background","",""
"","null","html-keyboard-response","80","159927","0.0-14.0-0.33","SS1604513969042","","null","","","","","","","","","","","","<img src=images/blank.png width =""500"" height = ""500"" style=""border:5px solid black"">","","",""
"","141.58000005409122","stimulus-presentation","81","160286","0.0-14.0-1.33","SS1604513969042","<img src='images/complex/7.png' width ='500' height = '500' style='border:5px solid black'>","40","mixed_simple_deviant","images/complex/11.png","images/complex/7.png","images/simple/11.png,images/simple/6.png,images/simple/10.png,images/simple/16.png,images/simple/8.png,images/simple/9.png,images/simple/18.png","0","null","","200","341.5800000540912","","","","background","",""
"","null","html-keyboard-response","82","161529","0.0-14.0-0.34","SS1604513969042","","null","","","","","","","","","","","","<img src=images/blank.png width =""500"" height = ""500"" style=""border:5px solid black"">","","",""
"","15479.84499996528","stimulus-presentation","83","177225","0.0-14.0-1.34","SS1604513969042","<img src='images/complex/11.png' width ='500' height = '500' style='border:5px solid black'>","40","mixed_simple_deviant","images/complex/11.png","images/complex/7.png","images/simple/11.png,images/simple/6.png,images/simple/10.png,images/simple/16.png,images/simple/8.png,images/simple/9.png,images/simple/18.png","0","null","","200","15679.84499996528","yes","500.69000001531094","","target","",""
"","null","html-keyboard-response","84","178209","0.0-14.0-0.35","SS1604513969042","","null","","","","","","","","","","","","<img src=images/blank.png width =""500"" height = ""500"" style=""border:5px solid black"">","","",""
"","168.85499993804842","stimulus-presentation","85","178604","0.0-14.0-1.35","SS1604513969042","<img src='images/complex/7.png' width ='500' height = '500' style='border:5px solid black'>","40","mixed_simple_deviant","images/complex/11.png","images/complex/7.png","images/simple/11.png,images/simple/6.png,images/simple/10.png,images/simple/16.png,images/simple/8.png,images/simple/9.png,images/simple/18.png","0","null","","200","368.8549999380484","","","","background","",""
"","null","html-keyboard-response","86","179467","0.0-14.0-0.36","SS1604513969042","","null","","","","","","","","","","","","<img src=images/blank.png width =""500"" height = ""500"" style=""border:5px solid black"">","","",""
"","857.880000025034","stimulus-presentation","87","180545","0.0-14.0-1.36","SS1604513969042","<img src='images/complex/11.png' width ='500' height = '500' style='border:5px solid black'>","40","mixed_simple_deviant","images/complex/11.png","images/complex/7.png","images/simple/11.png,images/simple/6.png,images/simple/10.png,images/simple/16.png,images/simple/8.png,images/simple/9.png,images/simple/18.png","0","null","","200","1057.880000025034","yes","283.9300000341609","","target","",""
"","null","html-keyboard-response","88","181602","0.0-14.0-0.37","SS1604513969042","","null","","","","","","","","","","","","<img src=images/blank.png width =""500"" height = ""500"" style=""border:5px solid black"">","","",""
"","168.21999999228865","stimulus-presentation","89","181988","0.0-14.0-1.37","SS1604513969042","<img src='images/simple/8.png' width ='500' height = '500' style='border:5px solid black'>","40","mixed_simple_deviant","images/complex/11.png","images/complex/7.png","images/simple/11.png,images/simple/6.png,images/simple/10.png,images/simple/16.png,images/simple/8.png,images/simple/9.png,images/simple/18.png","0","null","","200","368.21999999228865","","","","deviant","",""
"","null","html-keyboard-response","90","183134","0.0-14.0-0.38","SS1604513969042","","null","","","","","","","","","","","","<img src=images/blank.png width =""500"" height = ""500"" style=""border:5px solid black"">","","",""
"","246.15499994251877","stimulus-presentation","91","183597","0.0-14.0-1.38","SS1604513969042","<img src='images/complex/7.png' width ='500' height = '500' style='border:5px solid black'>","40","mixed_simple_deviant","images/complex/11.png","images/complex/7.png","images/simple/11.png,images/simple/6.png,images/simple/10.png,images/simple/16.png,images/simple/8.png,images/simple/9.png,images/simple/18.png","0","null","","200","446.15499994251877","","","","background","",""
"","null","html-keyboard-response","92","184487","0.0-14.0-0.39","SS1604513969042","","null","","","","","","","","","","","","<img src=images/blank.png width =""500"" height = ""500"" style=""border:5px solid black"">","","",""
"","296.2200000183657","stimulus-presentation","93","185000","0.0-14.0-1.39","SS1604513969042","<img src='images/complex/7.png' width ='500' height = '500' style='border:5px solid black'>","40","mixed_simple_deviant","images/complex/11.png","images/complex/7.png","images/simple/11.png,images/simple/6.png,images/simple/10.png,images/simple/16.png,images/simple/8.png,images/simple/9.png,images/simple/18.png","0","null","","200","496.2200000183657","","","","background","",""
"","null","html-keyboard-response","94","185915","0.0-14.0-0.40","SS1604513969042","","null","","","","","","","","","","","","<img src=images/blank.png width =""500"" height = ""500"" style=""border:5px solid black"">","","",""
"","2595.079999999143","stimulus-presentation","95","188725","0.0-14.0-1.40","SS1604513969042","<img src='images/complex/7.png' width ='500' height = '500' style='border:5px solid black'>","40","mixed_simple_deviant","images/complex/11.png","images/complex/7.png","images/simple/11.png,images/simple/6.png,images/simple/10.png,images/simple/16.png,images/simple/8.png,images/simple/9.png,images/simple/18.png","0","null","","200","2795.079999999143","","","","background","",""
"","null","html-keyboard-response","96","189932","0.0-14.0-0.41","SS1604513969042","","null","","","","","","","","","","","","<img src=images/blank.png width =""500"" height = ""500"" style=""border:5px solid black"">","","",""
"","2736.3749999785796","stimulus-presentation","97","192900","0.0-14.0-1.41","SS1604513969042","<img src='images/complex/11.png' width ='500' height = '500' style='border:5px solid black'>","40","mixed_simple_deviant","images/complex/11.png","images/complex/7.png","images/simple/11.png,images/simple/6.png,images/simple/10.png,images/simple/16.png,images/simple/8.png,images/simple/9.png,images/simple/18.png","0","null","","200","2936.3749999785796","yes","320.97999996040016","","target","",""
"","null","html-keyboard-response","98","194123","0.0-14.0-0.42","SS1604513969042","","null","","","","","","","","","","","","<img src=images/blank.png width =""500"" height = ""500"" style=""border:5px solid black"">","","",""
"","191.28500006627291","stimulus-presentation","99","194533","0.0-14.0-1.42","SS1604513969042","<img src='images/complex/7.png' width ='500' height = '500' style='border:5px solid black'>","40","mixed_simple_deviant","images/complex/11.png","images/complex/7.png","images/simple/11.png,images/simple/6.png,images/simple/10.png,images/simple/16.png,images/simple/8.png,images/simple/9.png,images/simple/18.png","0","null","","200","391.2850000662729","","","","background","",""
"","null","html-keyboard-response","100","195480","0.0-14.0-0.43","SS1604513969042","","null","","","","","","","","","","","","<img src=images/blank.png width =""500"" height = ""500"" style=""border:5px solid black"">","","",""
"","160.18999996595085","stimulus-presentation","101","195859","0.0-14.0-1.43","SS1604513969042","<img src='images/complex/7.png' width ='500' height = '500' style='border:5px solid black'>","40","mixed_simple_deviant","images/complex/11.png","images/complex/7.png","images/simple/11.png,images/simple/6.png,images/simple/10.png,images/simple/16.png,images/simple/8.png,images/simple/9.png,images/simple/18.png","0","null","","200","360.18999996595085","","","","background","",""
"","null","html-keyboard-response","102","197075","0.0-14.0-0.44","SS1604513969042","","null","","","","","","","","","","","","<img src=images/blank.png width =""500"" height = ""500"" style=""border:5px solid black"">","","",""
"","284.17500003706664","stimulus-presentation","103","197576","0.0-14.0-1.44","SS1604513969042","<img src='images/complex/7.png' width ='500' height = '500' style='border:5px solid black'>","40","mixed_simple_deviant","images/complex/11.png","images/complex/7.png","images/simple/11.png,images/simple/6.png,images/simple/10.png,images/simple/16.png,images/simple/8.png,images/simple/9.png,images/simple/18.png","0","null","","200","484.17500003706664","","","","background","",""
"","null","html-keyboard-response","104","198756","0.0-14.0-0.45","SS1604513969042","","null","","","","","","","","","","","","<img src=images/blank.png width =""500"" height = ""500"" style=""border:5px solid black"">","","",""
"","471.02499997708946","stimulus-presentation","105","199447","0.0-14.0-1.45","SS1604513969042","<img src='images/simple/9.png' width ='500' height = '500' style='border:5px solid black'>","40","mixed_simple_deviant","images/complex/11.png","images/complex/7.png","images/simple/11.png,images/simple/6.png,images/simple/10.png,images/simple/16.png,images/simple/8.png,images/simple/9.png,images/simple/18.png","0","null","","200","671.0249999770895","","","","deviant","",""
"","null","html-keyboard-response","106","200308","0.0-14.0-0.46","SS1604513969042","","null","","","","","","","","","","","","<img src=images/blank.png width =""500"" height = ""500"" style=""border:5px solid black"">","","",""
"","980.9349999995902","stimulus-presentation","107","201505","0.0-14.0-1.46","SS1604513969042","<img src='images/complex/7.png' width ='500' height = '500' style='border:5px solid black'>","40","mixed_simple_deviant","images/complex/11.png","images/complex/7.png","images/simple/11.png,images/simple/6.png,images/simple/10.png,images/simple/16.png,images/simple/8.png,images/simple/9.png,images/simple/18.png","0","null","","200","1180.9349999995902","","","","background","",""
"","null","html-keyboard-response","108","202683","0.0-14.0-0.47","SS1604513969042","","null","","","","","","","","","","","","<img src=images/blank.png width =""500"" height = ""500"" style=""border:5px solid black"">","","",""
"","916.6949999053031","stimulus-presentation","109","203812","0.0-14.0-1.47","SS1604513969042","<img src='images/complex/7.png' width ='500' height = '500' style='border:5px solid black'>","40","mixed_simple_deviant","images/complex/11.png","images/complex/7.png","images/simple/11.png,images/simple/6.png,images/simple/10.png,images/simple/16.png,images/simple/8.png,images/simple/9.png,images/simple/18.png","0","null","","200","1116.6949999053031","","","","background","",""
"","null","html-keyboard-response","110","205050","0.0-14.0-0.48","SS1604513969042","","null","","","","","","","","","","","","<img src=images/blank.png width =""500"" height = ""500"" style=""border:5px solid black"">","","",""
"","203.94999999552965","stimulus-presentation","111","205469","0.0-14.0-1.48","SS1604513969042","<img src='images/complex/7.png' width ='500' height = '500' style='border:5px solid black'>","40","mixed_simple_deviant","images/complex/11.png","images/complex/7.png","images/simple/11.png,images/simple/6.png,images/simple/10.png,images/simple/16.png,images/simple/8.png,images/simple/9.png,images/simple/18.png","0","null","","200","403.94999999552965","","","","background","",""
"[{""page_index"":0,""viewing_time"":3380}]","3381","task-instructions","112","208863","0.0-15.0","SS1604513969042","","","","","","","","","","","","","","","","",""
"[{""page_index"":0,""viewing_time"":1750.664999941364},{""page_index"":1,""viewing_time"":2415.305000031367},{""page_index"":2,""viewing_time"":1935.7600000221282}]","6102.405000012368","instructions","113","214977","0.0-16.0","SS1604513969042","","","","","","","","","","","","","","","","",""
"","null","html-keyboard-response","114","215935","0.0-17.0-0.0","SS1604513969042","","null","","","","","","","","","","","","<img src=images/blank.png width =""500"" height = ""500"" style=""border:5px solid black"">","","",""
"","191.42000004649162","stimulus-presentation","115","216344","0.0-17.0-1.0","SS1604513969042","<img src='images/complex/18.png' width ='500' height = '500' style='border:5px solid black'>","40","mixed_complex_deviant","images/simple/3.png","images/simple/13.png","images/complex/1.png,images/complex/15.png,images/complex/18.png,images/complex/14.png,images/complex/8.png,images/complex/2.png,images/complex/16.png","1","null","","200","391.4200000464916","","","","deviant","",""
"","null","html-keyboard-response","116","217448","0.0-17.0-0.1","SS1604513969042","","null","","","","","","","","","","","","<img src=images/blank.png width =""500"" height = ""500"" style=""border:5px solid black"">","","",""
"","152.17500005383044","stimulus-presentation","117","217821","0.0-17.0-1.1","SS1604513969042","<img src='images/simple/13.png' width ='500' height = '500' style='border:5px solid black'>","40","mixed_complex_deviant","images/simple/3.png","images/simple/13.png","images/complex/1.png,images/complex/15.png,images/complex/18.png,images/complex/14.png,images/complex/8.png,images/complex/2.png,images/complex/16.png","1","null","","200","352.17500005383044","","","","background","",""
"","null","html-keyboard-response","118","218752","0.0-17.0-0.2","SS1604513969042","","null","","","","","","","","","","","","<img src=images/blank.png width =""500"" height = ""500"" style=""border:5px solid black"">","","",""
"","1438.6500000255182","stimulus-presentation","119","220418","0.0-17.0-1.2","SS1604513969042","<img src='images/simple/3.png' width ='500' height = '500' style='border:5px solid black'>","40","mixed_complex_deviant","images/simple/3.png","images/simple/13.png","images/complex/1.png,images/complex/15.png,images/complex/18.png,images/complex/14.png,images/complex/8.png,images/complex/2.png,images/complex/16.png","1","null","","200","1638.6500000255182","yes","344.2949999589473","","target","",""
"","null","html-keyboard-response","120","221323","0.0-17.0-0.3","SS1604513969042","","null","","","","","","","","","","","","<img src=images/blank.png width =""500"" height = ""500"" style=""border:5px solid black"">","","",""
"","184.99999993946403","stimulus-presentation","121","221728","0.0-17.0-1.3","SS1604513969042","<img src='images/simple/13.png' width ='500' height = '500' style='border:5px solid black'>","40","mixed_complex_deviant","images/simple/3.png","images/simple/13.png","images/complex/1.png,images/complex/15.png,images/complex/18.png,images/complex/14.png,images/complex/8.png,images/complex/2.png,images/complex/16.png","1","null","","200","384.99999993946403","","","","background","",""
"","null","html-keyboard-response","122","222732","0.0-17.0-0.4","SS1604513969042","","null","","","","","","","","","","","","<img src=images/blank.png width =""500"" height = ""500"" style=""border:5px solid black"">","","",""
"","58.530000038444996","stimulus-presentation","123","223005","0.0-17.0-1.4","SS1604513969042","<img src='images/simple/13.png' width ='500' height = '500' style='border:5px solid black'>","40","mixed_complex_deviant","images/simple/3.png","images/simple/13.png","images/complex/1.png,images/complex/15.png,images/complex/18.png,images/complex/14.png,images/complex/8.png,images/complex/2.png,images/complex/16.png","1","null","","200","258.530000038445","","","","background","",""
"","null","html-keyboard-response","124","224046","0.0-17.0-0.5","SS1604513969042","","null","","","","","","","","","","","","<img src=images/blank.png width =""500"" height = ""500"" style=""border:5px solid black"">","","",""
"","213.92000000923872","stimulus-presentation","125","224487","0.0-17.0-1.5","SS1604513969042","<img src='images/simple/13.png' width ='500' height = '500' style='border:5px solid black'>","40","mixed_complex_deviant","images/simple/3.png","images/simple/13.png","images/complex/1.png,images/complex/15.png,images/complex/18.png,images/complex/14.png,images/complex/8.png,images/complex/2.png,images/complex/16.png","1","null","","200","413.9200000092387","","","","background","",""
"","null","html-keyboard-response","126","225638","0.0-17.0-0.6","SS1604513969042","","null","","","","","","","","","","","","<img src=images/blank.png width =""500"" height = ""500"" style=""border:5px solid black"">","","",""
"","182.46999999973923","stimulus-presentation","127","226033","0.0-17.0-1.6","SS1604513969042","<img src='images/simple/13.png' width ='500' height = '500' style='border:5px solid black'>","40","mixed_complex_deviant","images/simple/3.png","images/simple/13.png","images/complex/1.png,images/complex/15.png,images/complex/18.png,images/complex/14.png,images/complex/8.png,images/complex/2.png,images/complex/16.png","1","null","","200","382.46999999973923","","","","background","",""
"","null","html-keyboard-response","128","227275","0.0-17.0-0.7","SS1604513969042","","null","","","","","","","","","","","","<img src=images/blank.png width =""500"" height = ""500"" style=""border:5px solid black"">","","",""
"","313.3950000628829","stimulus-presentation","129","227803","0.0-17.0-1.7","SS1604513969042","<img src='images/complex/14.png' width ='500' height = '500' style='border:5px solid black'>","40","mixed_complex_deviant","images/simple/3.png","images/simple/13.png","images/complex/1.png,images/complex/15.png,images/complex/18.png,images/complex/14.png,images/complex/8.png,images/complex/2.png,images/complex/16.png","1","null","","200","513.3950000628829","","","","deviant","",""
"","null","html-keyboard-response","130","228643","0.0-17.0-0.8","SS1604513969042","","null","","","","","","","","","","","","<img src=images/blank.png width =""500"" height = ""500"" style=""border:5px solid black"">","","",""
"","293.1150000076741","stimulus-presentation","131","229153","0.0-17.0-1.8","SS1604513969042","<img src='images/simple/13.png' width ='500' height = '500' style='border:5px solid black'>","40","mixed_complex_deviant","images/simple/3.png","images/simple/13.png","images/complex/1.png,images/complex/15.png,images/complex/18.png,images/complex/14.png,images/complex/8.png,images/complex/2.png,images/complex/16.png","1","null","","200","493.1150000076741","","","","background","",""
"","null","html-keyboard-response","132","230461","0.0-17.0-0.9","SS1604513969042","","null","","","","","","","","","","","","<img src=images/blank.png width =""500"" height = ""500"" style=""border:5px solid black"">","","",""
"","183.4299999754876","stimulus-presentation","133","230860","0.0-17.0-1.9","SS1604513969042","<img src='images/simple/13.png' width ='500' height = '500' style='border:5px solid black'>","40","mixed_complex_deviant","images/simple/3.png","images/simple/13.png","images/complex/1.png,images/complex/15.png,images/complex/18.png,images/complex/14.png,images/complex/8.png,images/complex/2.png,images/complex/16.png","1","null","","200","383.4299999754876","","","","background","",""
"","null","html-keyboard-response","134","232110","0.0-17.0-0.10","SS1604513969042","","null","","","","","","","","","","","","<img src=images/blank.png width =""500"" height = ""500"" style=""border:5px solid black"">","","",""
"","123.05000005289912","stimulus-presentation","135","232454","0.0-17.0-1.10","SS1604513969042","<img src='images/simple/13.png' width ='500' height = '500' style='border:5px solid black'>","40","mixed_complex_deviant","images/simple/3.png","images/simple/13.png","images/complex/1.png,images/complex/15.png,images/complex/18.png,images/complex/14.png,images/complex/8.png,images/complex/2.png,images/complex/16.png","1","null","","200","323.0500000528991","","","","background","",""
"","null","html-keyboard-response","136","233700","0.0-17.0-0.11","SS1604513969042","","null","","","","","","","","","","","","<img src=images/blank.png width =""500"" height = ""500"" style=""border:5px solid black"">","","",""
"","180.30500004533678","stimulus-presentation","137","234103","0.0-17.0-1.11","SS1604513969042","<img src='images/complex/8.png' width ='500' height = '500' style='border:5px solid black'>","40","mixed_complex_deviant","images/simple/3.png","images/simple/13.png","images/complex/1.png,images/complex/15.png,images/complex/18.png,images/complex/14.png,images/complex/8.png,images/complex/2.png,images/complex/16.png","1","null","","200","380.3050000453368","","","","deviant","",""
"","null","html-keyboard-response","138","235325","0.0-17.0-0.12","SS1604513969042","","null","","","","","","","","","","","","<img src=images/blank.png width =""500"" height = ""500"" style=""border:5px solid black"">","","",""
"","192.3650000244379","stimulus-presentation","139","235736","0.0-17.0-1.12","SS1604513969042","<img src='images/simple/13.png' width ='500' height = '500' style='border:5px solid black'>","40","mixed_complex_deviant","images/simple/3.png","images/simple/13.png","images/complex/1.png,images/complex/15.png,images/complex/18.png,images/complex/14.png,images/complex/8.png,images/complex/2.png,images/complex/16.png","1","null","","200","392.3650000244379","","","","background","",""
"","null","html-keyboard-response","140","236654","0.0-17.0-0.13","SS1604513969042","","null","","","","","","","","","","","","<img src=images/blank.png width =""500"" height = ""500"" style=""border:5px solid black"">","","",""
"","2268.6899999389425","stimulus-presentation","141","239137","0.0-17.0-1.13","SS1604513969042","<img src='images/simple/3.png' width ='500' height = '500' style='border:5px solid black'>","40","mixed_complex_deviant","images/simple/3.png","images/simple/13.png","images/complex/1.png,images/complex/15.png,images/complex/18.png,images/complex/14.png,images/complex/8.png,images/complex/2.png,images/complex/16.png","1","null","","200","2468.6899999389425","yes","278.1949999043718","","target","",""
"","null","html-keyboard-response","142","240087","0.0-17.0-0.14","SS1604513969042","","null","","","","","","","","","","","","<img src=images/blank.png width =""500"" height = ""500"" style=""border:5px solid black"">","","",""
"","145.3300000866875","stimulus-presentation","143","240456","0.0-17.0-1.14","SS1604513969042","<img src='images/simple/13.png' width ='500' height = '500' style='border:5px solid black'>","40","mixed_complex_deviant","images/simple/3.png","images/simple/13.png","images/complex/1.png,images/complex/15.png,images/complex/18.png,images/complex/14.png,images/complex/8.png,images/complex/2.png,images/complex/16.png","1","null","","200","345.3300000866875","","","","background","",""
"","null","html-keyboard-response","144","241375","0.0-17.0-0.15","SS1604513969042","","null","","","","","","","","","","","","<img src=images/blank.png width =""500"" height = ""500"" style=""border:5px solid black"">","","",""
"","109.29000005126","stimulus-presentation","145","241697","0.0-17.0-1.15","SS1604513969042","<img src='images/simple/13.png' width ='500' height = '500' style='border:5px solid black'>","40","mixed_complex_deviant","images/simple/3.png","images/simple/13.png","images/complex/1.png,images/complex/15.png,images/complex/18.png,images/complex/14.png,images/complex/8.png,images/complex/2.png,images/complex/16.png","1","null","","200","309.29000005126","","","","background","",""
"","null","html-keyboard-response","146","242756","0.0-17.0-0.16","SS1604513969042","","null","","","","","","","","","","","","<img src=images/blank.png width =""500"" height = ""500"" style=""border:5px solid black"">","","",""
"","104.47999997995794","stimulus-presentation","147","243079","0.0-17.0-1.16","SS1604513969042","<img src='images/simple/13.png' width ='500' height = '500' style='border:5px solid black'>","40","mixed_complex_deviant","images/simple/3.png","images/simple/13.png","images/complex/1.png,images/complex/15.png,images/complex/18.png,images/complex/14.png,images/complex/8.png,images/complex/2.png,images/complex/16.png","1","null","","200","304.47999997995794","","","","background","",""
"","null","html-keyboard-response","148","244069","0.0-17.0-0.17","SS1604513969042","","null","","","","","","","","","","","","<img src=images/blank.png width =""500"" height = ""500"" style=""border:5px solid black"">","","",""
"","180.6000000797212","stimulus-presentation","149","244466","0.0-17.0-1.17","SS1604513969042","<img src='images/simple/13.png' width ='500' height = '500' style='border:5px solid black'>","40","mixed_complex_deviant","images/simple/3.png","images/simple/13.png","images/complex/1.png,images/complex/15.png,images/complex/18.png,images/complex/14.png,images/complex/8.png,images/complex/2.png,images/complex/16.png","1","null","","200","380.6000000797212","","","","background","",""
"","null","html-keyboard-response","150","245438","0.0-17.0-0.18","SS1604513969042","","null","","","","","","","","","","","","<img src=images/blank.png width =""500"" height = ""500"" style=""border:5px solid black"">","","",""
"","167.51499997917563","stimulus-presentation","151","245822","0.0-17.0-1.18","SS1604513969042","<img src='images/simple/13.png' width ='500' height = '500' style='border:5px solid black'>","40","mixed_complex_deviant","images/simple/3.png","images/simple/13.png","images/complex/1.png,images/complex/15.png,images/complex/18.png,images/complex/14.png,images/complex/8.png,images/complex/2.png,images/complex/16.png","1","null","","200","367.5149999791756","","","","background","",""
"","null","html-keyboard-response","152","247006","0.0-17.0-0.19","SS1604513969042","","null","","","","","","","","","","","","<img src=images/blank.png width =""500"" height = ""500"" style=""border:5px solid black"">","","",""
"","197.89499999023974","stimulus-presentation","153","247423","0.0-17.0-1.19","SS1604513969042","<img src='images/simple/13.png' width ='500' height = '500' style='border:5px solid black'>","40","mixed_complex_deviant","images/simple/3.png","images/simple/13.png","images/complex/1.png,images/complex/15.png,images/complex/18.png,images/complex/14.png,images/complex/8.png,images/complex/2.png,images/complex/16.png","1","null","","200","397.89499999023974","","","","background","",""
"","null","html-keyboard-response","154","248606","0.0-17.0-0.20","SS1604513969042","","null","","","","","","","","","","","","<img src=images/blank.png width =""500"" height = ""500"" style=""border:5px solid black"">","","",""
"","200.58499998413026","stimulus-presentation","155","249027","0.0-17.0-1.20","SS1604513969042","<img src='images/complex/16.png' width ='500' height = '500' style='border:5px solid black'>","40","mixed_complex_deviant","images/simple/3.png","images/simple/13.png","images/complex/1.png,images/complex/15.png,images/complex/18.png,images/complex/14.png,images/complex/8.png,images/complex/2.png,images/complex/16.png","1","null","","200","400.58499998413026","","","","deviant","",""
"","null","html-keyboard-response","156","250210","0.0-17.0-0.21","SS1604513969042","","null","","","","","","","","","","","","<img src=images/blank.png width =""500"" height = ""500"" style=""border:5px solid black"">","","",""
"","95.22000001743436","stimulus-presentation","157","250529","0.0-17.0-1.21","SS1604513969042","<img src='images/simple/13.png' width ='500' height = '500' style='border:5px solid black'>","40","mixed_complex_deviant","images/simple/3.png","images/simple/13.png","images/complex/1.png,images/complex/15.png,images/complex/18.png,images/complex/14.png,images/complex/8.png,images/complex/2.png,images/complex/16.png","1","null","","200","295.22000001743436","","","","background","",""
"","null","html-keyboard-response","158","251669","0.0-17.0-0.22","SS1604513969042","","null","","","","","","","","","","","","<img src=images/blank.png width =""500"" height = ""500"" style=""border:5px solid black"">","","",""
"","62.05000006593764","stimulus-presentation","159","251956","0.0-17.0-1.22","SS1604513969042","<img src='images/simple/13.png' width ='500' height = '500' style='border:5px solid black'>","40","mixed_complex_deviant","images/simple/3.png","images/simple/13.png","images/complex/1.png,images/complex/15.png,images/complex/18.png,images/complex/14.png,images/complex/8.png,images/complex/2.png,images/complex/16.png","1","null","","200","262.05000006593764","","","","background","",""
"","null","html-keyboard-response","160","252866","0.0-17.0-0.23","SS1604513969042","","null","","","","","","","","","","","","<img src=images/blank.png width =""500"" height = ""500"" style=""border:5px solid black"">","","",""
"","77.64999999199063","stimulus-presentation","161","253163","0.0-17.0-1.23","SS1604513969042","<img src='images/simple/13.png' width ='500' height = '500' style='border:5px solid black'>","40","mixed_complex_deviant","images/simple/3.png","images/simple/13.png","images/complex/1.png,images/complex/15.png,images/complex/18.png,images/complex/14.png,images/complex/8.png,images/complex/2.png,images/complex/16.png","1","null","","200","277.6499999919906","","","","background","",""
"","null","html-keyboard-response","162","254335","0.0-17.0-0.24","SS1604513969042","","null","","","","","","","","","","","","<img src=images/blank.png width =""500"" height = ""500"" style=""border:5px solid black"">","","",""
"","1225.1049999613315","stimulus-presentation","163","255775","0.0-17.0-1.24","SS1604513969042","<img src='images/simple/3.png' width ='500' height = '500' style='border:5px solid black'>","40","mixed_complex_deviant","images/simple/3.png","images/simple/13.png","images/complex/1.png,images/complex/15.png,images/complex/18.png,images/complex/14.png,images/complex/8.png,images/complex/2.png,images/complex/16.png","1","null","","200","1425.1049999613315","yes","186.58499990124255","","target","",""
"","null","html-keyboard-response","164","256796","0.0-17.0-0.25","SS1604513969042","","null","","","","","","","","","","","","<img src=images/blank.png width =""500"" height = ""500"" style=""border:5px solid black"">","","",""
"","71.04999991133809","stimulus-presentation","165","257085","0.0-17.0-1.25","SS1604513969042","<img src='images/simple/13.png' width ='500' height = '500' style='border:5px solid black'>","40","mixed_complex_deviant","images/simple/3.png","images/simple/13.png","images/complex/1.png,images/complex/15.png,images/complex/18.png,images/complex/14.png,images/complex/8.png,images/complex/2.png,images/complex/16.png","1","null","","200","271.0499999113381","","","","background","",""
"","null","html-keyboard-response","166","258218","0.0-17.0-0.26","SS1604513969042","","null","","","","","","","","","","","","<img src=images/blank.png width =""500"" height = ""500"" style=""border:5px solid black"">","","",""
"","228.02999999839813","stimulus-presentation","167","258668","0.0-17.0-1.26","SS1604513969042","<img src='images/simple/13.png' width ='500' height = '500' style='border:5px solid black'>","40","mixed_complex_deviant","images/simple/3.png","images/simple/13.png","images/complex/1.png,images/complex/15.png,images/complex/18.png,images/complex/14.png,images/complex/8.png,images/complex/2.png,images/complex/16.png","1","null","","200","428.0299999983981","","","","background","",""
"","null","html-keyboard-response","168","259922","0.0-17.0-0.27","SS1604513969042","","null","","","","","","","","","","","","<img src=images/blank.png width =""500"" height = ""500"" style=""border:5px solid black"">","","",""
"","63.87499999254942","stimulus-presentation","169","260211","0.0-17.0-1.27","SS1604513969042","<img src='images/simple/13.png' width ='500' height = '500' style='border:5px solid black'>","40","mixed_complex_deviant","images/simple/3.png","images/simple/13.png","images/complex/1.png,images/complex/15.png,images/complex/18.png,images/complex/14.png,images/complex/8.png,images/complex/2.png,images/complex/16.png","1","null","","200","263.8749999925494","","","","background","",""
"","null","html-keyboard-response","170","261456","0.0-17.0-0.28","SS1604513969042","","null","","","","","","","","","","","","<img src=images/blank.png width =""500"" height = ""500"" style=""border:5px solid black"">","","",""
"","119.21999999321997","stimulus-presentation","171","261797","0.0-17.0-1.28","SS1604513969042","<img src='images/simple/13.png' width ='500' height = '500' style='border:5px solid black'>","40","mixed_complex_deviant","images/simple/3.png","images/simple/13.png","images/complex/1.png,images/complex/15.png,images/complex/18.png,images/complex/14.png,images/complex/8.png,images/complex/2.png,images/complex/16.png","1","null","","200","319.21999999322","","","","background","",""
"","null","html-keyboard-response","172","262969","0.0-17.0-0.29","SS1604513969042","","null","","","","","","","","","","","","<img src=images/blank.png width =""500"" height = ""500"" style=""border:5px solid black"">","","",""
"","93.61999994143844","stimulus-presentation","173","263281","0.0-17.0-1.29","SS1604513969042","<img src='images/simple/3.png' width ='500' height = '500' style='border:5px solid black'>","40","mixed_complex_deviant","images/simple/3.png","images/simple/13.png","images/complex/1.png,images/complex/15.png,images/complex/18.png,images/complex/14.png,images/complex/8.png,images/complex/2.png,images/complex/16.png","1","null","","200","293.61999994143844","","","","target","",""
"","null","html-keyboard-response","174","264356","0.0-17.0-0.30","SS1604513969042","","null","","","","","","","","","","","","<img src=images/blank.png width =""500"" height = ""500"" style=""border:5px solid black"">","","",""
"","143.12499994412065","stimulus-presentation","175","264720","0.0-17.0-1.30","SS1604513969042","<img src='images/simple/13.png' width ='500' height = '500' style='border:5px solid black'>","40","mixed_complex_deviant","images/simple/3.png","images/simple/13.png","images/complex/1.png,images/complex/15.png,images/complex/18.png,images/complex/14.png,images/complex/8.png,images/complex/2.png,images/complex/16.png","1","null","","200","343.12499994412065","","","","background","",""
"","null","html-keyboard-response","176","265894","0.0-17.0-0.31","SS1604513969042","","null","","","","","","","","","","","","<img src=images/blank.png width =""500"" height = ""500"" style=""border:5px solid black"">","","",""
"","83.75500002875924","stimulus-presentation","177","266201","0.0-17.0-1.31","SS1604513969042","<img src='images/simple/13.png' width ='500' height = '500' style='border:5px solid black'>","40","mixed_complex_deviant","images/simple/3.png","images/simple/13.png","images/complex/1.png,images/complex/15.png,images/complex/18.png,images/complex/14.png,images/complex/8.png,images/complex/2.png,images/complex/16.png","1","null","","200","283.75500002875924","","","","background","",""
"","null","html-keyboard-response","178","267120","0.0-17.0-0.32","SS1604513969042","","null","","","","","","","","","","","","<img src=images/blank.png width =""500"" height = ""500"" style=""border:5px solid black"">","","",""
"","175.41000002529472","stimulus-presentation","179","267518","0.0-17.0-1.32","SS1604513969042","<img src='images/simple/13.png' width ='500' height = '500' style='border:5px solid black'>","40","mixed_complex_deviant","images/simple/3.png","images/simple/13.png","images/complex/1.png,images/complex/15.png,images/complex/18.png,images/complex/14.png,images/complex/8.png,images/complex/2.png,images/complex/16.png","1","null","","200","375.4100000252947","","","","background","",""
"","null","html-keyboard-response","180","268471","0.0-17.0-0.33","SS1604513969042","","null","","","","","","","","","","","","<img src=images/blank.png width =""500"" height = ""500"" style=""border:5px solid black"">","","",""
"","171.04000004474074","stimulus-presentation","181","268864","0.0-17.0-1.33","SS1604513969042","<img src='images/simple/13.png' width ='500' height = '500' style='border:5px solid black'>","40","mixed_complex_deviant","images/simple/3.png","images/simple/13.png","images/complex/1.png,images/complex/15.png,images/complex/18.png,images/complex/14.png,images/complex/8.png,images/complex/2.png,images/complex/16.png","1","null","","200","371.04000004474074","","","","background","",""
"","null","html-keyboard-response","182","269770","0.0-17.0-0.34","SS1604513969042","","null","","","","","","","","","","","","<img src=images/blank.png width =""500"" height = ""500"" style=""border:5px solid black"">","","",""
"","850.5900000454858","stimulus-presentation","183","270846","0.0-17.0-1.34","SS1604513969042","<img src='images/simple/3.png' width ='500' height = '500' style='border:5px solid black'>","40","mixed_complex_deviant","images/simple/3.png","images/simple/13.png","images/complex/1.png,images/complex/15.png,images/complex/18.png,images/complex/14.png,images/complex/8.png,images/complex/2.png,images/complex/16.png","1","null","","200","1050.5900000454858","yes","189.43500006571412","","target","",""
"","null","html-keyboard-response","184","271693","0.0-17.0-0.35","SS1604513969042","","null","","","","","","","","","","","","<img src=images/blank.png width =""500"" height = ""500"" style=""border:5px solid black"">","","",""
"","258.15999996848404","stimulus-presentation","185","272176","0.0-17.0-1.35","SS1604513969042","<img src='images/simple/13.png' width ='500' height = '500' style='border:5px solid black'>","40","mixed_complex_deviant","images/simple/3.png","images/simple/13.png","images/complex/1.png,images/complex/15.png,images/complex/18.png,images/complex/14.png,images/complex/8.png,images/complex/2.png,images/complex/16.png","1","null","","200","458.15999996848404","","","","background","",""
"","null","html-keyboard-response","186","273453","0.0-17.0-0.36","SS1604513969042","","null","","","","","","","","","","","","<img src=images/blank.png width =""500"" height = ""500"" style=""border:5px solid black"">","","",""
"","106.01500002667308","stimulus-presentation","187","273784","0.0-17.0-1.36","SS1604513969042","<img src='images/simple/13.png' width ='500' height = '500' style='border:5px solid black'>","40","mixed_complex_deviant","images/simple/3.png","images/simple/13.png","images/complex/1.png,images/complex/15.png,images/complex/18.png,images/complex/14.png,images/complex/8.png,images/complex/2.png,images/complex/16.png","1","null","","200","306.0150000266731","","","","background","",""
"","null","html-keyboard-response","188","274881","0.0-17.0-0.37","SS1604513969042","","null","","","","","","","","","","","","<img src=images/blank.png width =""500"" height = ""500"" style=""border:5px solid black"">","","",""
"","221.88499988988042","stimulus-presentation","189","275326","0.0-17.0-1.37","SS1604513969042","<img src='images/complex/15.png' width ='500' height = '500' style='border:5px solid black'>","40","mixed_complex_deviant","images/simple/3.png","images/simple/13.png","images/complex/1.png,images/complex/15.png,images/complex/18.png,images/complex/14.png,images/complex/8.png,images/complex/2.png,images/complex/16.png","1","null","","200","421.8849998898804","","","","deviant","",""
"","null","html-keyboard-response","190","276504","0.0-17.0-0.38","SS1604513969042","","null","","","","","","","","","","","","<img src=images/blank.png width =""500"" height = ""500"" style=""border:5px solid black"">","","",""
"","122.97999998554587","stimulus-presentation","191","276855","0.0-17.0-1.38","SS1604513969042","<img src='images/simple/13.png' width ='500' height = '500' style='border:5px solid black'>","40","mixed_complex_deviant","images/simple/3.png","images/simple/13.png","images/complex/1.png,images/complex/15.png,images/complex/18.png,images/complex/14.png,images/complex/8.png,images/complex/2.png,images/complex/16.png","1","null","","200","322.9799999855459","","","","background","",""
"","null","html-keyboard-response","192","278039","0.0-17.0-0.39","SS1604513969042","","null","","","","","","","","","","","","<img src=images/blank.png width =""500"" height = ""500"" style=""border:5px solid black"">","","",""
"","186.19999999646097","stimulus-presentation","193","278449","0.0-17.0-1.39","SS1604513969042","<img src='images/simple/13.png' width ='500' height = '500' style='border:5px solid black'>","40","mixed_complex_deviant","images/simple/3.png","images/simple/13.png","images/complex/1.png,images/complex/15.png,images/complex/18.png,images/complex/14.png,images/complex/8.png,images/complex/2.png,images/complex/16.png","1","null","","200","386.199999996461","","","","background","",""
"","null","html-keyboard-response","194","279513","0.0-17.0-0.40","SS1604513969042","","null","","","","","","","","","","","","<img src=images/blank.png width =""500"" height = ""500"" style=""border:5px solid black"">","","",""
"","81.925000064075","stimulus-presentation","195","279816","0.0-17.0-1.40","SS1604513969042","<img src='images/simple/13.png' width ='500' height = '500' style='border:5px solid black'>","40","mixed_complex_deviant","images/simple/3.png","images/simple/13.png","images/complex/1.png,images/complex/15.png,images/complex/18.png,images/complex/14.png,images/complex/8.png,images/complex/2.png,images/complex/16.png","1","null","","200","281.925000064075","","","","background","",""
"","null","html-keyboard-response","196","280814","0.0-17.0-0.41","SS1604513969042","","null","","","","","","","","","","","","<img src=images/blank.png width =""500"" height = ""500"" style=""border:5px solid black"">","","",""
"","47.12500004097819","stimulus-presentation","197","281085","0.0-17.0-1.41","SS1604513969042","<img src='images/simple/13.png' width ='500' height = '500' style='border:5px solid black'>","40","mixed_complex_deviant","images/simple/3.png","images/simple/13.png","images/complex/1.png,images/complex/15.png,images/complex/18.png,images/complex/14.png,images/complex/8.png,images/complex/2.png,images/complex/16.png","1","null","","200","247.1250000409782","","","","background","",""
"","null","html-keyboard-response","198","282185","0.0-17.0-0.42","SS1604513969042","","null","","","","","","","","","","","","<img src=images/blank.png width =""500"" height = ""500"" style=""border:5px solid black"">","","",""
"","401.2249999213964","stimulus-presentation","199","282808","0.0-17.0-1.42","SS1604513969042","<img src='images/complex/2.png' width ='500' height = '500' style='border:5px solid black'>","40","mixed_complex_deviant","images/simple/3.png","images/simple/13.png","images/complex/1.png,images/complex/15.png,images/complex/18.png,images/complex/14.png,images/complex/8.png,images/complex/2.png,images/complex/16.png","1","null","","200","601.2249999213964","","","","deviant","",""
"","null","html-keyboard-response","200","283895","0.0-17.0-0.43","SS1604513969042","","null","","","","","","","","","","","","<img src=images/blank.png width =""500"" height = ""500"" style=""border:5px solid black"">","","",""
"","209.3399999430403","stimulus-presentation","201","284330","0.0-17.0-1.43","SS1604513969042","<img src='images/simple/13.png' width ='500' height = '500' style='border:5px solid black'>","40","mixed_complex_deviant","images/simple/3.png","images/simple/13.png","images/complex/1.png,images/complex/15.png,images/complex/18.png,images/complex/14.png,images/complex/8.png,images/complex/2.png,images/complex/16.png","1","null","","200","409.3399999430403","","","","background","",""
"","null","html-keyboard-response","202","285464","0.0-17.0-0.44","SS1604513969042","","null","","","","","","","","","","","","<img src=images/blank.png width =""500"" height = ""500"" style=""border:5px solid black"">","","",""
"","125.6699999794364","stimulus-presentation","203","285809","0.0-17.0-1.44","SS1604513969042","<img src='images/simple/13.png' width ='500' height = '500' style='border:5px solid black'>","40","mixed_complex_deviant","images/simple/3.png","images/simple/13.png","images/complex/1.png,images/complex/15.png,images/complex/18.png,images/complex/14.png,images/complex/8.png,images/complex/2.png,images/complex/16.png","1","null","","200","325.6699999794364","","","","background","",""
"","null","html-keyboard-response","204","286868","0.0-17.0-0.45","SS1604513969042","","null","","","","","","","","","","","","<img src=images/blank.png width =""500"" height = ""500"" style=""border:5px solid black"">","","",""
"","433.60000010579824","stimulus-presentation","205","287529","0.0-17.0-1.45","SS1604513969042","<img src='images/complex/1.png' width ='500' height = '500' style='border:5px solid black'>","40","mixed_complex_deviant","images/simple/3.png","images/simple/13.png","images/complex/1.png,images/complex/15.png,images/complex/18.png,images/complex/14.png,images/complex/8.png,images/complex/2.png,images/complex/16.png","1","null","","200","633.6000001057982","","","","deviant","",""
"","null","html-keyboard-response","206","288611","0.0-17.0-0.46","SS1604513969042","","null","","","","","","","","","","","","<img src=images/blank.png width =""500"" height = ""500"" style=""border:5px solid black"">","","",""
"","1423.9550000056624","stimulus-presentation","207","290256","0.0-17.0-1.46","SS1604513969042","<img src='images/simple/3.png' width ='500' height = '500' style='border:5px solid black'>","40","mixed_complex_deviant","images/simple/3.png","images/simple/13.png","images/complex/1.png,images/complex/15.png,images/complex/18.png,images/complex/14.png,images/complex/8.png,images/complex/2.png,images/complex/16.png","1","null","","200","1623.9550000056624","yes","318.6299999943003","","target","",""
"","null","html-keyboard-response","208","291186","0.0-17.0-0.47","SS1604513969042","","null","","","","","","","","","","","","<img src=images/blank.png width =""500"" height = ""500"" style=""border:5px solid black"">","","",""
"","94.94999994058162","stimulus-presentation","209","291503","0.0-17.0-1.47","SS1604513969042","<img src='images/simple/3.png' width ='500' height = '500' style='border:5px solid black'>","40","mixed_complex_deviant","images/simple/3.png","images/simple/13.png","images/complex/1.png,images/complex/15.png,images/complex/18.png,images/complex/14.png,images/complex/8.png,images/complex/2.png,images/complex/16.png","1","null","","200","294.9499999405816","","","","target","",""
"","null","html-keyboard-response","210","292607","0.0-17.0-0.48","SS1604513969042","","null","","","","","","","","","","","","<img src=images/blank.png width =""500"" height = ""500"" style=""border:5px solid black"">","","",""
"","169.1199999768287","stimulus-presentation","211","292991","0.0-17.0-1.48","SS1604513969042","<img src='images/simple/13.png' width ='500' height = '500' style='border:5px solid black'>","40","mixed_complex_deviant","images/simple/3.png","images/simple/13.png","images/complex/1.png,images/complex/15.png,images/complex/18.png,images/complex/14.png,images/complex/8.png,images/complex/2.png,images/complex/16.png","1","null","","200","369.1199999768287","","","","background","",""
"[{""page_index"":0,""viewing_time"":13391}]","13391","task-instructions","212","306398","0.0-18.0","SS1604513969042","","","","","","","","","","","","","","","","",""
"[{""page_index"":0,""viewing_time"":1151.8550000619143},{""page_index"":1,""viewing_time"":2379.3199999490753},{""page_index"":2,""viewing_time"":1474.7300000162795}]","5006.825000047684","instructions","213","311418","0.0-19.0","SS1604513969042","","","","","","","","","","","","","","","","",""
"","null","html-keyboard-response","214","312335","0.0-20.0-0.0","SS1604513969042","","null","","","","","","","","","","","","<img src=images/blank.png width =""500"" height = ""500"" style=""border:5px solid black"">","","",""
"","244.74500003270805","stimulus-presentation","215","312800","0.0-20.0-1.0","SS1604513969042","<img src='images/simple/17.png' width ='500' height = '500' style='border:5px solid black'>","40","all_simple","images/simple/5.png","images/simple/2.png","images/simple/17.png,images/simple/7.png,images/simple/12.png,images/simple/4.png,images/simple/1.png,images/simple/14.png,images/simple/15.png","2","null","","200","444.74500003270805","","","","deviant","",""
"","null","html-keyboard-response","216","313771","0.0-20.0-0.1","SS1604513969042","","null","","","","","","","","","","","","<img src=images/blank.png width =""500"" height = ""500"" style=""border:5px solid black"">","","",""
"","255.11000002734363","stimulus-presentation","217","314253","0.0-20.0-1.1","SS1604513969042","<img src='images/simple/2.png' width ='500' height = '500' style='border:5px solid black'>","40","all_simple","images/simple/5.png","images/simple/2.png","images/simple/17.png,images/simple/7.png,images/simple/12.png,images/simple/4.png,images/simple/1.png,images/simple/14.png,images/simple/15.png","2","null","","200","455.11000002734363","","","","background","",""
"","null","html-keyboard-response","218","315358","0.0-20.0-0.2","SS1604513969042","","null","","","","","","","","","","","","<img src=images/blank.png width =""500"" height = ""500"" style=""border:5px solid black"">","","",""
"","123.84999997448176","stimulus-presentation","219","315701","0.0-20.0-1.2","SS1604513969042","<img src='images/simple/2.png' width ='500' height = '500' style='border:5px solid black'>","40","all_simple","images/simple/5.png","images/simple/2.png","images/simple/17.png,images/simple/7.png,images/simple/12.png,images/simple/4.png,images/simple/1.png,images/simple/14.png,images/simple/15.png","2","null","","200","323.84999997448176","","","","background","",""
"","null","html-keyboard-response","220","316573","0.0-20.0-0.3","SS1604513969042","","null","","","","","","","","","","","","<img src=images/blank.png width =""500"" height = ""500"" style=""border:5px solid black"">","","",""
"","1061.725000035949","stimulus-presentation","221","317855","0.0-20.0-1.3","SS1604513969042","<img src='images/simple/5.png' width ='500' height = '500' style='border:5px solid black'>","40","all_simple","images/simple/5.png","images/simple/2.png","images/simple/17.png,images/simple/7.png,images/simple/12.png,images/simple/4.png,images/simple/1.png,images/simple/14.png,images/simple/15.png","2","null","","200","1261.725000035949","yes","301.12499999813735","","target","",""
"","null","html-keyboard-response","222","319121","0.0-20.0-0.4","SS1604513969042","","null","","","","","","","","","","","","<img src=images/blank.png width =""500"" height = ""500"" style=""border:5px solid black"">","","",""
"","127.25500005763024","stimulus-presentation","223","319472","0.0-20.0-1.4","SS1604513969042","<img src='images/simple/2.png' width ='500' height = '500' style='border:5px solid black'>","40","all_simple","images/simple/5.png","images/simple/2.png","images/simple/17.png,images/simple/7.png,images/simple/12.png,images/simple/4.png,images/simple/1.png,images/simple/14.png,images/simple/15.png","2","null","","200","327.25500005763024","","","","background","",""
"","null","html-keyboard-response","224","320352","0.0-20.0-0.5","SS1604513969042","","null","","","","","","","","","","","","<img src=images/blank.png width =""500"" height = ""500"" style=""border:5px solid black"">","","",""
"","242.11500003002584","stimulus-presentation","225","320823","0.0-20.0-1.5","SS1604513969042","<img src='images/simple/14.png' width ='500' height = '500' style='border:5px solid black'>","40","all_simple","images/simple/5.png","images/simple/2.png","images/simple/17.png,images/simple/7.png,images/simple/12.png,images/simple/4.png,images/simple/1.png,images/simple/14.png,images/simple/15.png","2","null","","200","442.11500003002584","","","","deviant","",""
"","null","html-keyboard-response","226","321717","0.0-20.0-0.6","SS1604513969042","","null","","","","","","","","","","","","<img src=images/blank.png width =""500"" height = ""500"" style=""border:5px solid black"">","","",""
"","161.1650000559166","stimulus-presentation","227","322101","0.0-20.0-1.6","SS1604513969042","<img src='images/simple/2.png' width ='500' height = '500' style='border:5px solid black'>","40","all_simple","images/simple/5.png","images/simple/2.png","images/simple/17.png,images/simple/7.png,images/simple/12.png,images/simple/4.png,images/simple/1.png,images/simple/14.png,images/simple/15.png","2","null","","200","361.1650000559166","","","","background","",""
"","null","html-keyboard-response","228","323117","0.0-20.0-0.7","SS1604513969042","","null","","","","","","","","","","","","<img src=images/blank.png width =""500"" height = ""500"" style=""border:5px solid black"">","","",""
"","330.15499997418374","stimulus-presentation","229","323670","0.0-20.0-1.7","SS1604513969042","<img src='images/simple/2.png' width ='500' height = '500' style='border:5px solid black'>","40","all_simple","images/simple/5.png","images/simple/2.png","images/simple/17.png,images/simple/7.png,images/simple/12.png,images/simple/4.png,images/simple/1.png,images/simple/14.png,images/simple/15.png","2","null","","200","530.1549999741837","","","","background","",""
"","null","html-keyboard-response","230","324945","0.0-20.0-0.8","SS1604513969042","","null","","","","","","","","","","","","<img src=images/blank.png width =""500"" height = ""500"" style=""border:5px solid black"">","","",""
"","142.57000002544373","stimulus-presentation","231","325311","0.0-20.0-1.8","SS1604513969042","<img src='images/simple/2.png' width ='500' height = '500' style='border:5px solid black'>","40","all_simple","images/simple/5.png","images/simple/2.png","images/simple/17.png,images/simple/7.png,images/simple/12.png,images/simple/4.png,images/simple/1.png,images/simple/14.png,images/simple/15.png","2","null","","200","342.57000002544373","","","","background","",""
"","null","html-keyboard-response","232","326173","0.0-20.0-0.9","SS1604513969042","","null","","","","","","","","","","","","<img src=images/blank.png width =""500"" height = ""500"" style=""border:5px solid black"">","","",""
"","461.8400000035763","stimulus-presentation","233","326858","0.0-20.0-1.9","SS1604513969042","<img src='images/simple/7.png' width ='500' height = '500' style='border:5px solid black'>","40","all_simple","images/simple/5.png","images/simple/2.png","images/simple/17.png,images/simple/7.png,images/simple/12.png,images/simple/4.png,images/simple/1.png,images/simple/14.png,images/simple/15.png","2","null","","200","661.8400000035763","","","","deviant","",""
"","null","html-keyboard-response","234","327722","0.0-20.0-0.10","SS1604513969042","","null","","","","","","","","","","","","<img src=images/blank.png width =""500"" height = ""500"" style=""border:5px solid black"">","","",""
"","192.12000002153218","stimulus-presentation","235","328131","0.0-20.0-1.10","SS1604513969042","<img src='images/simple/2.png' width ='500' height = '500' style='border:5px solid black'>","40","all_simple","images/simple/5.png","images/simple/2.png","images/simple/17.png,images/simple/7.png,images/simple/12.png,images/simple/4.png,images/simple/1.png,images/simple/14.png,images/simple/15.png","2","null","","200","392.1200000215322","","","","background","",""
"","null","html-keyboard-response","236","329231","0.0-20.0-0.11","SS1604513969042","","null","","","","","","","","","","","","<img src=images/blank.png width =""500"" height = ""500"" style=""border:5px solid black"">","","",""
"","91.27999993506819","stimulus-presentation","237","329549","0.0-20.0-1.11","SS1604513969042","<img src='images/simple/2.png' width ='500' height = '500' style='border:5px solid black'>","40","all_simple","images/simple/5.png","images/simple/2.png","images/simple/17.png,images/simple/7.png,images/simple/12.png,images/simple/4.png,images/simple/1.png,images/simple/14.png,images/simple/15.png","2","null","","200","291.2799999350682","","","","background","",""
"","null","html-keyboard-response","238","330557","0.0-20.0-0.12","SS1604513969042","","null","","","","","","","","","","","","<img src=images/blank.png width =""500"" height = ""500"" style=""border:5px solid black"">","","",""
"","1103.804999962449","stimulus-presentation","239","331882","0.0-20.0-1.12","SS1604513969042","<img src='images/simple/5.png' width ='500' height = '500' style='border:5px solid black'>","40","all_simple","images/simple/5.png","images/simple/2.png","images/simple/17.png,images/simple/7.png,images/simple/12.png,images/simple/4.png,images/simple/1.png,images/simple/14.png,images/simple/15.png","2","null","","200","1303.804999962449","yes","191.01499998942018","","target","",""
"","null","html-keyboard-response","240","333163","0.0-20.0-0.13","SS1604513969042","","null","","","","","","","","","","","","<img src=images/blank.png width =""500"" height = ""500"" style=""border:5px solid black"">","","",""
"","109.83000008855015","stimulus-presentation","241","333499","0.0-20.0-1.13","SS1604513969042","<img src='images/simple/2.png' width ='500' height = '500' style='border:5px solid black'>","40","all_simple","images/simple/5.png","images/simple/2.png","images/simple/17.png,images/simple/7.png,images/simple/12.png,images/simple/4.png,images/simple/1.png,images/simple/14.png,images/simple/15.png","2","null","","200","309.83000008855015","","","","background","",""
"","null","html-keyboard-response","242","334640","0.0-20.0-0.14","SS1604513969042","","null","","","","","","","","","","","","<img src=images/blank.png width =""500"" height = ""500"" style=""border:5px solid black"">","","",""
"","53.21499996352941","stimulus-presentation","243","334920","0.0-20.0-1.14","SS1604513969042","<img src='images/simple/2.png' width ='500' height = '500' style='border:5px solid black'>","40","all_simple","images/simple/5.png","images/simple/2.png","images/simple/17.png,images/simple/7.png,images/simple/12.png,images/simple/4.png,images/simple/1.png,images/simple/14.png,images/simple/15.png","2","null","","200","253.2149999635294","","","","background","",""
"","null","html-keyboard-response","244","336171","0.0-20.0-0.15","SS1604513969042","","null","","","","","","","","","","","","<img src=images/blank.png width =""500"" height = ""500"" style=""border:5px solid black"">","","",""
"","99.55000004265457","stimulus-presentation","245","336491","0.0-20.0-1.15","SS1604513969042","<img src='images/simple/2.png' width ='500' height = '500' style='border:5px solid black'>","40","all_simple","images/simple/5.png","images/simple/2.png","images/simple/17.png,images/simple/7.png,images/simple/12.png,images/simple/4.png,images/simple/1.png,images/simple/14.png,images/simple/15.png","2","null","","200","299.5500000426546","","","","background","",""
"","null","html-keyboard-response","246","337750","0.0-20.0-0.16","SS1604513969042","","null","","","","","","","","","","","","<img src=images/blank.png width =""500"" height = ""500"" style=""border:5px solid black"">","","",""
"","249.6050000190735","stimulus-presentation","247","338222","0.0-20.0-1.16","SS1604513969042","<img src='images/simple/12.png' width ='500' height = '500' style='border:5px solid black'>","40","all_simple","images/simple/5.png","images/simple/2.png","images/simple/17.png,images/simple/7.png,images/simple/12.png,images/simple/4.png,images/simple/1.png,images/simple/14.png,images/simple/15.png","2","null","","200","449.6050000190735","","","","deviant","",""
"","null","html-keyboard-response","248","339395","0.0-20.0-0.17","SS1604513969042","","null","","","","","","","","","","","","<img src=images/blank.png width =""500"" height = ""500"" style=""border:5px solid black"">","","",""
"","171.38499999418855","stimulus-presentation","249","339790","0.0-20.0-1.17","SS1604513969042","<img src='images/simple/2.png' width ='500' height = '500' style='border:5px solid black'>","40","all_simple","images/simple/5.png","images/simple/2.png","images/simple/17.png,images/simple/7.png,images/simple/12.png,images/simple/4.png,images/simple/1.png,images/simple/14.png,images/simple/15.png","2","null","","200","371.38499999418855","","","","background","",""
"","null","html-keyboard-response","250","340630","0.0-20.0-0.18","SS1604513969042","","null","","","","","","","","","","","","<img src=images/blank.png width =""500"" height = ""500"" style=""border:5px solid black"">","","",""
"","87.085000006482","stimulus-presentation","251","340938","0.0-20.0-1.18","SS1604513969042","<img src='images/simple/2.png' width ='500' height = '500' style='border:5px solid black'>","40","all_simple","images/simple/5.png","images/simple/2.png","images/simple/17.png,images/simple/7.png,images/simple/12.png,images/simple/4.png,images/simple/1.png,images/simple/14.png,images/simple/15.png","2","null","","200","287.085000006482","","","","background","",""
"","null","html-keyboard-response","252","342223","0.0-20.0-0.19","SS1604513969042","","null","","","","","","","","","","","","<img src=images/blank.png width =""500"" height = ""500"" style=""border:5px solid black"">","","",""
"","94.38999998383224","stimulus-presentation","253","342557","0.0-20.0-1.19","SS1604513969042","<img src='images/simple/2.png' width ='500' height = '500' style='border:5px solid black'>","40","all_simple","images/simple/5.png","images/simple/2.png","images/simple/17.png,images/simple/7.png,images/simple/12.png,images/simple/4.png,images/simple/1.png,images/simple/14.png,images/simple/15.png","2","null","","200","294.38999998383224","","","","background","",""
"","null","html-keyboard-response","254","343560","0.0-20.0-0.20","SS1604513969042","","null","","","","","","","","","","","","<img src=images/blank.png width =""500"" height = ""500"" style=""border:5px solid black"">","","",""
"","1211.3550000358373","stimulus-presentation","255","344994","0.0-20.0-1.20","SS1604513969042","<img src='images/simple/5.png' width ='500' height = '500' style='border:5px solid black'>","40","all_simple","images/simple/5.png","images/simple/2.png","images/simple/17.png,images/simple/7.png,images/simple/12.png,images/simple/4.png,images/simple/1.png,images/simple/14.png,images/simple/15.png","2","null","","200","1411.3550000358373","yes","248.4000000404194","","target","",""
"","null","html-keyboard-response","256","346268","0.0-20.0-0.21","SS1604513969042","","null","","","","","","","","","","","","<img src=images/blank.png width =""500"" height = ""500"" style=""border:5px solid black"">","","",""
"","189.37000003643334","stimulus-presentation","257","346675","0.0-20.0-1.21","SS1604513969042","<img src='images/simple/2.png' width ='500' height = '500' style='border:5px solid black'>","40","all_simple","images/simple/5.png","images/simple/2.png","images/simple/17.png,images/simple/7.png,images/simple/12.png,images/simple/4.png,images/simple/1.png,images/simple/14.png,images/simple/15.png","2","null","","200","389.37000003643334","","","","background","",""
"","null","html-keyboard-response","258","347744","0.0-20.0-0.22","SS1604513969042","","null","","","","","","","","","","","","<img src=images/blank.png width =""500"" height = ""500"" style=""border:5px solid black"">","","",""
"","73.04499996826053","stimulus-presentation","259","348040","0.0-20.0-1.22","SS1604513969042","<img src='images/simple/2.png' width ='500' height = '500' style='border:5px solid black'>","40","all_simple","images/simple/5.png","images/simple/2.png","images/simple/17.png,images/simple/7.png,images/simple/12.png,images/simple/4.png,images/simple/1.png,images/simple/14.png,images/simple/15.png","2","null","","200","273.0449999682605","","","","background","",""
"","null","html-keyboard-response","260","348958","0.0-20.0-0.23","SS1604513969042","","null","","","","","","","","","","","","<img src=images/blank.png width =""500"" height = ""500"" style=""border:5px solid black"">","","",""
"","88.41500000562519","stimulus-presentation","261","349268","0.0-20.0-1.23","SS1604513969042","<img src='images/simple/2.png' width ='500' height = '500' style='border:5px solid black'>","40","all_simple","images/simple/5.png","images/simple/2.png","images/simple/17.png,images/simple/7.png,images/simple/12.png,images/simple/4.png,images/simple/1.png,images/simple/14.png,images/simple/15.png","2","null","","200","288.4150000056252","","","","background","",""
"","null","html-keyboard-response","262","350188","0.0-20.0-0.24","SS1604513969042","","null","","","","","","","","","","","","<img src=images/blank.png width =""500"" height = ""500"" style=""border:5px solid black"">","","",""
"","36.100000026635826","stimulus-presentation","263","350447","0.0-20.0-1.24","SS1604513969042","<img src='images/simple/2.png' width ='500' height = '500' style='border:5px solid black'>","40","all_simple","images/simple/5.png","images/simple/2.png","images/simple/17.png,images/simple/7.png,images/simple/12.png,images/simple/4.png,images/simple/1.png,images/simple/14.png,images/simple/15.png","2","null","","200","236.10000002663583","","","","background","",""
"","null","html-keyboard-response","264","351470","0.0-20.0-0.25","SS1604513969042","","null","","","","","","","","","","","","<img src=images/blank.png width =""500"" height = ""500"" style=""border:5px solid black"">","","",""
"","83.25500006321818","stimulus-presentation","265","351777","0.0-20.0-1.25","SS1604513969042","<img src='images/simple/2.png' width ='500' height = '500' style='border:5px solid black'>","40","all_simple","images/simple/5.png","images/simple/2.png","images/simple/17.png,images/simple/7.png,images/simple/12.png,images/simple/4.png,images/simple/1.png,images/simple/14.png,images/simple/15.png","2","null","","200","283.2550000632182","","","","background","",""
"","null","html-keyboard-response","266","352825","0.0-20.0-0.26","SS1604513969042","","null","","","","","","","","","","","","<img src=images/blank.png width =""500"" height = ""500"" style=""border:5px solid black"">","","",""
"","71.94999989587814","stimulus-presentation","267","353119","0.0-20.0-1.26","SS1604513969042","<img src='images/simple/2.png' width ='500' height = '500' style='border:5px solid black'>","40","all_simple","images/simple/5.png","images/simple/2.png","images/simple/17.png,images/simple/7.png,images/simple/12.png,images/simple/4.png,images/simple/1.png,images/simple/14.png,images/simple/15.png","2","null","","200","271.94999989587814","","","","background","",""
"","null","html-keyboard-response","268","354433","0.0-20.0-0.27","SS1604513969042","","null","","","","","","","","","","","","<img src=images/blank.png width =""500"" height = ""500"" style=""border:5px solid black"">","","",""
"","463.1799999624491","stimulus-presentation","269","355117","0.0-20.0-1.27","SS1604513969042","<img src='images/simple/1.png' width ='500' height = '500' style='border:5px solid black'>","40","all_simple","images/simple/5.png","images/simple/2.png","images/simple/17.png,images/simple/7.png,images/simple/12.png,images/simple/4.png,images/simple/1.png,images/simple/14.png,images/simple/15.png","2","null","","200","663.1799999624491","","","","deviant","",""
"","null","html-keyboard-response","270","356434","0.0-20.0-0.28","SS1604513969042","","null","","","","","","","","","","","","<img src=images/blank.png width =""500"" height = ""500"" style=""border:5px solid black"">","","",""
"","112.68499994184822","stimulus-presentation","271","356776","0.0-20.0-1.28","SS1604513969042","<img src='images/simple/2.png' width ='500' height = '500' style='border:5px solid black'>","40","all_simple","images/simple/5.png","images/simple/2.png","images/simple/17.png,images/simple/7.png,images/simple/12.png,images/simple/4.png,images/simple/1.png,images/simple/14.png,images/simple/15.png","2","null","","200","312.6849999418482","","","","background","",""
"","null","html-keyboard-response","272","357998","0.0-20.0-0.29","SS1604513969042","","null","","","","","","","","","","","","<img src=images/blank.png width =""500"" height = ""500"" style=""border:5px solid black"">","","",""
"","111.66499997489154","stimulus-presentation","273","358334","0.0-20.0-1.29","SS1604513969042","<img src='images/simple/2.png' width ='500' height = '500' style='border:5px solid black'>","40","all_simple","images/simple/5.png","images/simple/2.png","images/simple/17.png,images/simple/7.png,images/simple/12.png,images/simple/4.png,images/simple/1.png,images/simple/14.png,images/simple/15.png","2","null","","200","311.66499997489154","","","","background","",""
"","null","html-keyboard-response","274","359175","0.0-20.0-0.30","SS1604513969042","","null","","","","","","","","","","","","<img src=images/blank.png width =""500"" height = ""500"" style=""border:5px solid black"">","","",""
"","278.98499998264015","stimulus-presentation","275","359675","0.0-20.0-1.30","SS1604513969042","<img src='images/simple/4.png' width ='500' height = '500' style='border:5px solid black'>","40","all_simple","images/simple/5.png","images/simple/2.png","images/simple/17.png,images/simple/7.png,images/simple/12.png,images/simple/4.png,images/simple/1.png,images/simple/14.png,images/simple/15.png","2","null","","200","478.98499998264015","","","","deviant","",""
"","null","html-keyboard-response","276","360787","0.0-20.0-0.31","SS1604513969042","","null","","","","","","","","","","","","<img src=images/blank.png width =""500"" height = ""500"" style=""border:5px solid black"">","","",""
"","143.87000002898276","stimulus-presentation","277","361156","0.0-20.0-1.31","SS1604513969042","<img src='images/simple/2.png' width ='500' height = '500' style='border:5px solid black'>","40","all_simple","images/simple/5.png","images/simple/2.png","images/simple/17.png,images/simple/7.png,images/simple/12.png,images/simple/4.png,images/simple/1.png,images/simple/14.png,images/simple/15.png","2","null","","200","343.87000002898276","","","","background","",""
"","null","html-keyboard-response","278","362440","0.0-20.0-0.32","SS1604513969042","","null","","","","","","","","","","","","<img src=images/blank.png width =""500"" height = ""500"" style=""border:5px solid black"">","","",""
"","1074.5500000193715","stimulus-presentation","279","363736","0.0-20.0-1.32","SS1604513969042","<img src='images/simple/5.png' width ='500' height = '500' style='border:5px solid black'>","40","all_simple","images/simple/5.png","images/simple/2.png","images/simple/17.png,images/simple/7.png,images/simple/12.png,images/simple/4.png,images/simple/1.png,images/simple/14.png,images/simple/15.png","2","null","","200","1274.5500000193715","yes","239.81000005733222","","target","",""
"","null","html-keyboard-response","280","364775","0.0-20.0-0.33","SS1604513969042","","null","","","","","","","","","","","","<img src=images/blank.png width =""500"" height = ""500"" style=""border:5px solid black"">","","",""
"","240.19500007852912","stimulus-presentation","281","365244","0.0-20.0-1.33","SS1604513969042","<img src='images/simple/2.png' width ='500' height = '500' style='border:5px solid black'>","40","all_simple","images/simple/5.png","images/simple/2.png","images/simple/17.png,images/simple/7.png,images/simple/12.png,images/simple/4.png,images/simple/1.png,images/simple/14.png,images/simple/15.png","2","null","","200","440.1950000785291","","","","background","",""
"","null","html-keyboard-response","282","366107","0.0-20.0-0.34","SS1604513969042","","null","","","","","","","","","","","","<img src=images/blank.png width =""500"" height = ""500"" style=""border:5px solid black"">","","",""
"","214.00499995797873","stimulus-presentation","283","366542","0.0-20.0-1.34","SS1604513969042","<img src='images/simple/2.png' width ='500' height = '500' style='border:5px solid black'>","40","all_simple","images/simple/5.png","images/simple/2.png","images/simple/17.png,images/simple/7.png,images/simple/12.png,images/simple/4.png,images/simple/1.png,images/simple/14.png,images/simple/15.png","2","null","","200","414.0049999579787","","","","background","",""
