"view_history","rt","trial_type","trial_index","time_elapsed","internal_node_id","subject","trial_stimulus","key_press","task_type","task_target_stimulus","task_background_stimulus","task_deviant_stimuli","task_order_number","block_order_number","trial_order_number","minimum_viewing_duration","trial_looking_time","trial_pressed_space_bar","trial_space_bar_rt","stimulus","trial_stimulus_type","responses","question_order"
"[{""page_index"":0,""viewing_time"":4204.094999993686},{""page_index"":1,""viewing_time"":1566.625000035856},{""page_index"":2,""viewing_time"":1176.3049999717623},{""page_index"":3,""viewing_time"":936.2250000122003},{""page_index"":4,""viewing_time"":775.9499999810942},{""page_index"":5,""viewing_time"":607.8850000048988},{""page_index"":6,""viewing_time"":1863.6800000094809},{""page_index"":7,""viewing_time"":536.3999999826774}]","11669.074999983422","instructions","0","11671","0.0-0.0","SS1602796859502","","","","","","","","","","","","","","","","",""
"[{""page_index"":0,""viewing_time"":986.1550000496209},{""page_index"":1,""viewing_time"":2079.9600000027567},{""page_index"":2,""viewing_time"":1312.0349999517202}]","4378.599999996368","instructions","1","16054","0.0-1.0","SS1602796859502","","","","","","","","","","","","","","","","",""
"","2120.4199999920093","practice-block","2","18381","0.0-2.0","SS1602796859502","<img src='images/practice/practice_background.jpeg' width ='500' height = '500' style='border:5px solid black'>","40","null","images/practice/practice_target.jpg","null","null","null","null","","200","2320.4199999920093","","","","","",""
"","null","html-keyboard-response","3","19193","0.0-3.0","SS1602796859502","","null","","","","","","","","","","","","<img src=images/blank.png width =""500"" height = ""500"" style=""border:5px solid black"">","","",""
"","383.92500003101304","practice-block","4","19783","0.0-4.0","SS1602796859502","<img src='images/practice/practice_background.jpeg' width ='500' height = '500' style='border:5px solid black'>","40","null","images/practice/practice_target.jpg","null","null","null","null","","200","583.925000031013","","","","","",""
"","null","html-keyboard-response","5","20644","0.0-5.0","SS1602796859502","","null","","","","","","","","","","","","<img src=images/blank.png width =""500"" height = ""500"" style=""border:5px solid black"">","","",""
"","487.0050000026822","practice-block","6","21338","0.0-6.0","SS1602796859502","<img src='images/practice/practice_deviant.jpeg' width ='500' height = '500' style='border:5px solid black'>","40","null","images/practice/practice_target.jpg","null","null","null","null","","200","687.0050000026822","","","","","",""
"","null","html-keyboard-response","7","22459","0.0-7.0","SS1602796859502","","null","","","","","","","","","","","","<img src=images/blank.png width =""500"" height = ""500"" style=""border:5px solid black"">","","",""
"","3632.084999990184","practice-block","8","26298","0.0-8.0-0.0","SS1602796859502","<img src='images/practice/practice_target.jpg' width ='500' height = '500' style='border:5px solid black'>","40","null","images/practice/practice_target.jpg","null","null","null","null","","200","3832.084999990184","yes","365.1850000023842","","","",""
"","null","html-keyboard-response","9","27164","0.0-9.0","SS1602796859502","","null","","","","","","","","","","","","<img src=images/blank.png width =""500"" height = ""500"" style=""border:5px solid black"">","","",""
"","551.7799999797717","practice-block","10","27921","0.0-10.0","SS1602796859502","<img src='images/practice/practice_background.jpeg' width ='500' height = '500' style='border:5px solid black'>","40","null","images/practice/practice_target.jpg","null","null","null","null","","200","751.7799999797717","","","","","",""
"[{""page_index"":0,""viewing_time"":6923}]","6923","task-instructions","11","34847","0.0-11.0","SS1602796859502","","","","","","","","","","","","","","","","",""
"[{""page_index"":0,""viewing_time"":2970.6199999782257},{""page_index"":1,""viewing_time"":3728.14500000095},{""page_index"":2,""viewing_time"":1079.8850000137463}]","7779.0099999983795","instructions","12","42630","0.0-12.0","SS1602796859502","","","","","","","","","","","","","","","","",""
"","null","html-keyboard-response","13","43443","0.0-13.0-0.0","SS1602796859502","","null","","","","","","","","","","","","<img src=images/blank.png width =""500"" height = ""500"" style=""border:5px solid black"">","","",""
"","1325.5199999548495","stimulus-presentation","14","44977","0.0-13.0-1.0","SS1602796859502","<img src='images/simple/13.png' width ='500' height = '500' style='border:5px solid black'>","40","mixed_complex_deviant","images/simple/10.png","images/simple/13.png","images/complex/4.png,images/complex/8.png,images/complex/14.png,images/complex/17.png,images/complex/7.png,images/complex/12.png,images/complex/2.png","0","null","","200","1525.5199999548495","","","","background","",""
"","null","html-keyboard-response","15","45851","0.0-13.0-0.1","SS1602796859502","","null","","","","","","","","","","","","<img src=images/blank.png width =""500"" height = ""500"" style=""border:5px solid black"">","","",""
"","574.010000040289","stimulus-presentation","16","46634","0.0-13.0-1.1","SS1602796859502","<img src='images/complex/8.png' width ='500' height = '500' style='border:5px solid black'>","40","mixed_complex_deviant","images/simple/10.png","images/simple/13.png","images/complex/4.png,images/complex/8.png,images/complex/14.png,images/complex/17.png,images/complex/7.png,images/complex/12.png,images/complex/2.png","0","null","","200","774.010000040289","","","","deviant","",""
"","null","html-keyboard-response","17","47867","0.0-13.0-0.2","SS1602796859502","","null","","","","","","","","","","","","<img src=images/blank.png width =""500"" height = ""500"" style=""border:5px solid black"">","","",""
"","438.7900000438094","stimulus-presentation","18","48515","0.0-13.0-1.2","SS1602796859502","<img src='images/simple/13.png' width ='500' height = '500' style='border:5px solid black'>","40","mixed_complex_deviant","images/simple/10.png","images/simple/13.png","images/complex/4.png,images/complex/8.png,images/complex/14.png,images/complex/17.png,images/complex/7.png,images/complex/12.png,images/complex/2.png","0","null","","200","638.7900000438094","","","","background","",""
"","null","html-keyboard-response","19","49600","0.0-13.0-0.3","SS1602796859502","","null","","","","","","","","","","","","<img src=images/blank.png width =""500"" height = ""500"" style=""border:5px solid black"">","","",""
"","243.2849999750033","stimulus-presentation","20","50052","0.0-13.0-1.3","SS1602796859502","<img src='images/simple/13.png' width ='500' height = '500' style='border:5px solid black'>","40","mixed_complex_deviant","images/simple/10.png","images/simple/13.png","images/complex/4.png,images/complex/8.png,images/complex/14.png,images/complex/17.png,images/complex/7.png,images/complex/12.png,images/complex/2.png","0","null","","200","443.2849999750033","","","","background","",""
"","null","html-keyboard-response","21","51155","0.0-13.0-0.4","SS1602796859502","","null","","","","","","","","","","","","<img src=images/blank.png width =""500"" height = ""500"" style=""border:5px solid black"">","","",""
"","355.0850000465289","stimulus-presentation","22","51722","0.0-13.0-1.4","SS1602796859502","<img src='images/simple/13.png' width ='500' height = '500' style='border:5px solid black'>","40","mixed_complex_deviant","images/simple/10.png","images/simple/13.png","images/complex/4.png,images/complex/8.png,images/complex/14.png,images/complex/17.png,images/complex/7.png,images/complex/12.png,images/complex/2.png","0","null","","200","555.0850000465289","","","","background","",""
"","null","html-keyboard-response","23","52638","0.0-13.0-0.5","SS1602796859502","","null","","","","","","","","","","","","<img src=images/blank.png width =""500"" height = ""500"" style=""border:5px solid black"">","","",""
"","1775.0850000302307","stimulus-presentation","24","54618","0.0-13.0-1.5","SS1602796859502","<img src='images/complex/7.png' width ='500' height = '500' style='border:5px solid black'>","40","mixed_complex_deviant","images/simple/10.png","images/simple/13.png","images/complex/4.png,images/complex/8.png,images/complex/14.png,images/complex/17.png,images/complex/7.png,images/complex/12.png,images/complex/2.png","0","null","","200","1975.0850000302307","","","","deviant","",""
"","null","html-keyboard-response","25","55458","0.0-13.0-0.6","SS1602796859502","","null","","","","","","","","","","","","<img src=images/blank.png width =""500"" height = ""500"" style=""border:5px solid black"">","","",""
"","7041.335000016261","stimulus-presentation","26","62706","0.0-13.0-1.6","SS1602796859502","<img src='images/simple/10.png' width ='500' height = '500' style='border:5px solid black'>","40","mixed_complex_deviant","images/simple/10.png","images/simple/13.png","images/complex/4.png,images/complex/8.png,images/complex/14.png,images/complex/17.png,images/complex/7.png,images/complex/12.png,images/complex/2.png","0","null","","200","7241.335000016261","yes","3168.26000000583","","target","",""
"","null","html-keyboard-response","27","63953","0.0-13.0-0.7","SS1602796859502","","null","","","","","","","","","","","","<img src=images/blank.png width =""500"" height = ""500"" style=""border:5px solid black"">","","",""
"","1384.8349999752827","stimulus-presentation","28","65548","0.0-13.0-1.7","SS1602796859502","<img src='images/simple/13.png' width ='500' height = '500' style='border:5px solid black'>","40","mixed_complex_deviant","images/simple/10.png","images/simple/13.png","images/complex/4.png,images/complex/8.png,images/complex/14.png,images/complex/17.png,images/complex/7.png,images/complex/12.png,images/complex/2.png","0","null","","200","1584.8349999752827","","","","background","",""
"","null","html-keyboard-response","29","66540","0.0-13.0-0.8","SS1602796859502","","null","","","","","","","","","","","","<img src=images/blank.png width =""500"" height = ""500"" style=""border:5px solid black"">","","",""
"","494.8300000396557","stimulus-presentation","30","67243","0.0-13.0-1.8","SS1602796859502","<img src='images/simple/13.png' width ='500' height = '500' style='border:5px solid black'>","40","mixed_complex_deviant","images/simple/10.png","images/simple/13.png","images/complex/4.png,images/complex/8.png,images/complex/14.png,images/complex/17.png,images/complex/7.png,images/complex/12.png,images/complex/2.png","0","null","","200","694.8300000396557","","","","background","",""
"","null","html-keyboard-response","31","68521","0.0-13.0-0.9","SS1602796859502","","null","","","","","","","","","","","","<img src=images/blank.png width =""500"" height = ""500"" style=""border:5px solid black"">","","",""
"","471.6799999587238","stimulus-presentation","32","69198","0.0-13.0-1.9","SS1602796859502","<img src='images/simple/13.png' width ='500' height = '500' style='border:5px solid black'>","40","mixed_complex_deviant","images/simple/10.png","images/simple/13.png","images/complex/4.png,images/complex/8.png,images/complex/14.png,images/complex/17.png,images/complex/7.png,images/complex/12.png,images/complex/2.png","0","null","","200","671.6799999587238","","","","background","",""
"","null","html-keyboard-response","33","70024","0.0-13.0-0.10","SS1602796859502","","null","","","","","","","","","","","","<img src=images/blank.png width =""500"" height = ""500"" style=""border:5px solid black"">","","",""
"","671.6799999703653","stimulus-presentation","34","70900","0.0-13.0-1.10","SS1602796859502","<img src='images/simple/13.png' width ='500' height = '500' style='border:5px solid black'>","40","mixed_complex_deviant","images/simple/10.png","images/simple/13.png","images/complex/4.png,images/complex/8.png,images/complex/14.png,images/complex/17.png,images/complex/7.png,images/complex/12.png,images/complex/2.png","0","null","","200","871.6799999703653","","","","background","",""
"","null","html-keyboard-response","35","71757","0.0-13.0-0.11","SS1602796859502","","null","","","","","","","","","","","","<img src=images/blank.png width =""500"" height = ""500"" style=""border:5px solid black"">","","",""
"","1846.19000001112","stimulus-presentation","36","73811","0.0-13.0-1.11","SS1602796859502","<img src='images/simple/10.png' width ='500' height = '500' style='border:5px solid black'>","40","mixed_complex_deviant","images/simple/10.png","images/simple/13.png","images/complex/4.png,images/complex/8.png,images/complex/14.png,images/complex/17.png,images/complex/7.png,images/complex/12.png,images/complex/2.png","0","null","","200","2046.19000001112","yes","901.9599999883212","","target","",""
"","null","html-keyboard-response","37","74972","0.0-13.0-0.12","SS1602796859502","","null","","","","","","","","","","","","<img src=images/blank.png width =""500"" height = ""500"" style=""border:5px solid black"">","","",""
"","522.3400000249967","stimulus-presentation","38","75699","0.0-13.0-1.12","SS1602796859502","<img src='images/simple/13.png' width ='500' height = '500' style='border:5px solid black'>","40","mixed_complex_deviant","images/simple/10.png","images/simple/13.png","images/complex/4.png,images/complex/8.png,images/complex/14.png,images/complex/17.png,images/complex/7.png,images/complex/12.png,images/complex/2.png","0","null","","200","722.3400000249967","","","","background","",""
"","null","html-keyboard-response","39","76709","0.0-13.0-0.13","SS1602796859502","","null","","","","","","","","","","","","<img src=images/blank.png width =""500"" height = ""500"" style=""border:5px solid black"">","","",""
"","376.33500003721565","stimulus-presentation","40","77291","0.0-13.0-1.13","SS1602796859502","<img src='images/simple/13.png' width ='500' height = '500' style='border:5px solid black'>","40","mixed_complex_deviant","images/simple/10.png","images/simple/13.png","images/complex/4.png,images/complex/8.png,images/complex/14.png,images/complex/17.png,images/complex/7.png,images/complex/12.png,images/complex/2.png","0","null","","200","576.3350000372157","","","","background","",""
"","null","html-keyboard-response","41","78385","0.0-13.0-0.14","SS1602796859502","","null","","","","","","","","","","","","<img src=images/blank.png width =""500"" height = ""500"" style=""border:5px solid black"">","","",""
"","528.2699999515899","stimulus-presentation","42","79123","0.0-13.0-1.14","SS1602796859502","<img src='images/complex/17.png' width ='500' height = '500' style='border:5px solid black'>","40","mixed_complex_deviant","images/simple/10.png","images/simple/13.png","images/complex/4.png,images/complex/8.png,images/complex/14.png,images/complex/17.png,images/complex/7.png,images/complex/12.png,images/complex/2.png","0","null","","200","728.2699999515899","","","","deviant","",""
"","null","html-keyboard-response","43","80094","0.0-13.0-0.15","SS1602796859502","","null","","","","","","","","","","","","<img src=images/blank.png width =""500"" height = ""500"" style=""border:5px solid black"">","","",""
"","495.7100000465289","stimulus-presentation","44","80797","0.0-13.0-1.15","SS1602796859502","<img src='images/simple/13.png' width ='500' height = '500' style='border:5px solid black'>","40","mixed_complex_deviant","images/simple/10.png","images/simple/13.png","images/complex/4.png,images/complex/8.png,images/complex/14.png,images/complex/17.png,images/complex/7.png,images/complex/12.png,images/complex/2.png","0","null","","200","695.7100000465289","","","","background","",""
"","null","html-keyboard-response","45","82070","0.0-13.0-0.16","SS1602796859502","","null","","","","","","","","","","","","<img src=images/blank.png width =""500"" height = ""500"" style=""border:5px solid black"">","","",""
"","604.894999996759","stimulus-presentation","46","82884","0.0-13.0-1.16","SS1602796859502","<img src='images/simple/13.png' width ='500' height = '500' style='border:5px solid black'>","40","mixed_complex_deviant","images/simple/10.png","images/simple/13.png","images/complex/4.png,images/complex/8.png,images/complex/14.png,images/complex/17.png,images/complex/7.png,images/complex/12.png,images/complex/2.png","0","null","","200","804.894999996759","","","","background","",""
"","null","html-keyboard-response","47","84001","0.0-13.0-0.17","SS1602796859502","","null","","","","","","","","","","","","<img src=images/blank.png width =""500"" height = ""500"" style=""border:5px solid black"">","","",""
"","423.87500003678724","stimulus-presentation","48","84634","0.0-13.0-1.17","SS1602796859502","<img src='images/simple/13.png' width ='500' height = '500' style='border:5px solid black'>","40","mixed_complex_deviant","images/simple/10.png","images/simple/13.png","images/complex/4.png,images/complex/8.png,images/complex/14.png,images/complex/17.png,images/complex/7.png,images/complex/12.png,images/complex/2.png","0","null","","200","623.8750000367872","","","","background","",""
"","null","html-keyboard-response","49","85575","0.0-13.0-0.18","SS1602796859502","","null","","","","","","","","","","","","<img src=images/blank.png width =""500"" height = ""500"" style=""border:5px solid black"">","","",""
"","461.1000000149943","stimulus-presentation","50","86243","0.0-13.0-1.18","SS1602796859502","<img src='images/simple/13.png' width ='500' height = '500' style='border:5px solid black'>","40","mixed_complex_deviant","images/simple/10.png","images/simple/13.png","images/complex/4.png,images/complex/8.png,images/complex/14.png,images/complex/17.png,images/complex/7.png,images/complex/12.png,images/complex/2.png","0","null","","200","661.1000000149943","","","","background","",""
"","null","html-keyboard-response","51","87356","0.0-13.0-0.19","SS1602796859502","","null","","","","","","","","","","","","<img src=images/blank.png width =""500"" height = ""500"" style=""border:5px solid black"">","","",""
"","397.2150000045076","stimulus-presentation","52","87962","0.0-13.0-1.19","SS1602796859502","<img src='images/simple/13.png' width ='500' height = '500' style='border:5px solid black'>","40","mixed_complex_deviant","images/simple/10.png","images/simple/13.png","images/complex/4.png,images/complex/8.png,images/complex/14.png,images/complex/17.png,images/complex/7.png,images/complex/12.png,images/complex/2.png","0","null","","200","597.2150000045076","","","","background","",""
"","null","html-keyboard-response","53","88774","0.0-13.0-0.20","SS1602796859502","","null","","","","","","","","","","","","<img src=images/blank.png width =""500"" height = ""500"" style=""border:5px solid black"">","","",""
"","746.3050000369549","stimulus-presentation","54","89731","0.0-13.0-1.20","SS1602796859502","<img src='images/simple/10.png' width ='500' height = '500' style='border:5px solid black'>","40","mixed_complex_deviant","images/simple/10.png","images/simple/13.png","images/complex/4.png,images/complex/8.png,images/complex/14.png,images/complex/17.png,images/complex/7.png,images/complex/12.png,images/complex/2.png","0","null","","200","946.3050000369549","","","","target","",""
"","null","html-keyboard-response","55","90644","0.0-13.0-0.21","SS1602796859502","","null","","","","","","","","","","","","<img src=images/blank.png width =""500"" height = ""500"" style=""border:5px solid black"">","","",""
"","402.0100000197999","stimulus-presentation","56","91253","0.0-13.0-1.21","SS1602796859502","<img src='images/simple/13.png' width ='500' height = '500' style='border:5px solid black'>","40","mixed_complex_deviant","images/simple/10.png","images/simple/13.png","images/complex/4.png,images/complex/8.png,images/complex/14.png,images/complex/17.png,images/complex/7.png,images/complex/12.png,images/complex/2.png","0","null","","200","602.0100000197999","","","","background","",""
"","null","html-keyboard-response","57","92091","0.0-13.0-0.22","SS1602796859502","","null","","","","","","","","","","","","<img src=images/blank.png width =""500"" height = ""500"" style=""border:5px solid black"">","","",""
"","435.3700000210665","stimulus-presentation","58","92737","0.0-13.0-1.22","SS1602796859502","<img src='images/complex/4.png' width ='500' height = '500' style='border:5px solid black'>","40","mixed_complex_deviant","images/simple/10.png","images/simple/13.png","images/complex/4.png,images/complex/8.png,images/complex/14.png,images/complex/17.png,images/complex/7.png,images/complex/12.png,images/complex/2.png","0","null","","200","635.3700000210665","","","","deviant","",""
"","null","html-keyboard-response","59","93901","0.0-13.0-0.23","SS1602796859502","","null","","","","","","","","","","","","<img src=images/blank.png width =""500"" height = ""500"" style=""border:5px solid black"">","","",""
"","246.93500000284985","stimulus-presentation","60","94356","0.0-13.0-1.23","SS1602796859502","<img src='images/simple/13.png' width ='500' height = '500' style='border:5px solid black'>","40","mixed_complex_deviant","images/simple/10.png","images/simple/13.png","images/complex/4.png,images/complex/8.png,images/complex/14.png,images/complex/17.png,images/complex/7.png,images/complex/12.png,images/complex/2.png","0","null","","200","446.93500000284985","","","","background","",""
"","null","html-keyboard-response","61","95175","0.0-13.0-0.24","SS1602796859502","","null","","","","","","","","","","","","<img src=images/blank.png width =""500"" height = ""500"" style=""border:5px solid black"">","","",""
"","322.0699999947101","stimulus-presentation","62","95706","0.0-13.0-1.24","SS1602796859502","<img src='images/simple/13.png' width ='500' height = '500' style='border:5px solid black'>","40","mixed_complex_deviant","images/simple/10.png","images/simple/13.png","images/complex/4.png,images/complex/8.png,images/complex/14.png,images/complex/17.png,images/complex/7.png,images/complex/12.png,images/complex/2.png","0","null","","200","522.0699999947101","","","","background","",""
"","null","html-keyboard-response","63","96551","0.0-13.0-0.25","SS1602796859502","","null","","","","","","","","","","","","<img src=images/blank.png width =""500"" height = ""500"" style=""border:5px solid black"">","","",""
"","1331.0200000414625","stimulus-presentation","64","98089","0.0-13.0-1.25","SS1602796859502","<img src='images/simple/10.png' width ='500' height = '500' style='border:5px solid black'>","40","mixed_complex_deviant","images/simple/10.png","images/simple/13.png","images/complex/4.png,images/complex/8.png,images/complex/14.png,images/complex/17.png,images/complex/7.png,images/complex/12.png,images/complex/2.png","0","null","","200","1531.0200000414625","yes","549.0700000082143","","target","",""
"","null","html-keyboard-response","65","99353","0.0-13.0-0.26","SS1602796859502","","null","","","","","","","","","","","","<img src=images/blank.png width =""500"" height = ""500"" style=""border:5px solid black"">","","",""
"","463.1950000184588","stimulus-presentation","66","100027","0.0-13.0-1.26","SS1602796859502","<img src='images/simple/13.png' width ='500' height = '500' style='border:5px solid black'>","40","mixed_complex_deviant","images/simple/10.png","images/simple/13.png","images/complex/4.png,images/complex/8.png,images/complex/14.png,images/complex/17.png,images/complex/7.png,images/complex/12.png,images/complex/2.png","0","null","","200","663.1950000184588","","","","background","",""
"","null","html-keyboard-response","67","100935","0.0-13.0-0.27","SS1602796859502","","null","","","","","","","","","","","","<img src=images/blank.png width =""500"" height = ""500"" style=""border:5px solid black"">","","",""
"","323.9649999886751","stimulus-presentation","68","101469","0.0-13.0-1.27","SS1602796859502","<img src='images/simple/13.png' width ='500' height = '500' style='border:5px solid black'>","40","mixed_complex_deviant","images/simple/10.png","images/simple/13.png","images/complex/4.png,images/complex/8.png,images/complex/14.png,images/complex/17.png,images/complex/7.png,images/complex/12.png,images/complex/2.png","0","null","","200","523.9649999886751","","","","background","",""
"","null","html-keyboard-response","69","102439","0.0-13.0-0.28","SS1602796859502","","null","","","","","","","","","","","","<img src=images/blank.png width =""500"" height = ""500"" style=""border:5px solid black"">","","",""
"","474.4150000042282","stimulus-presentation","70","103120","0.0-13.0-1.28","SS1602796859502","<img src='images/simple/13.png' width ='500' height = '500' style='border:5px solid black'>","40","mixed_complex_deviant","images/simple/10.png","images/simple/13.png","images/complex/4.png,images/complex/8.png,images/complex/14.png,images/complex/17.png,images/complex/7.png,images/complex/12.png,images/complex/2.png","0","null","","200","674.4150000042282","","","","background","",""
"","null","html-keyboard-response","71","104117","0.0-13.0-0.29","SS1602796859502","","null","","","","","","","","","","","","<img src=images/blank.png width =""500"" height = ""500"" style=""border:5px solid black"">","","",""
"","476.4450000366196","stimulus-presentation","72","104803","0.0-13.0-1.29","SS1602796859502","<img src='images/simple/13.png' width ='500' height = '500' style='border:5px solid black'>","40","mixed_complex_deviant","images/simple/10.png","images/simple/13.png","images/complex/4.png,images/complex/8.png,images/complex/14.png,images/complex/17.png,images/complex/7.png,images/complex/12.png,images/complex/2.png","0","null","","200","676.4450000366196","","","","background","",""
"","null","html-keyboard-response","73","106051","0.0-13.0-0.30","SS1602796859502","","null","","","","","","","","","","","","<img src=images/blank.png width =""500"" height = ""500"" style=""border:5px solid black"">","","",""
"","418.2349999900907","stimulus-presentation","74","106676","0.0-13.0-1.30","SS1602796859502","<img src='images/simple/13.png' width ='500' height = '500' style='border:5px solid black'>","40","mixed_complex_deviant","images/simple/10.png","images/simple/13.png","images/complex/4.png,images/complex/8.png,images/complex/14.png,images/complex/17.png,images/complex/7.png,images/complex/12.png,images/complex/2.png","0","null","","200","618.2349999900907","","","","background","",""
"","null","html-keyboard-response","75","107602","0.0-13.0-0.31","SS1602796859502","","null","","","","","","","","","","","","<img src=images/blank.png width =""500"" height = ""500"" style=""border:5px solid black"">","","",""
"","293.23999996995553","stimulus-presentation","76","108107","0.0-13.0-1.31","SS1602796859502","<img src='images/simple/13.png' width ='500' height = '500' style='border:5px solid black'>","40","mixed_complex_deviant","images/simple/10.png","images/simple/13.png","images/complex/4.png,images/complex/8.png,images/complex/14.png,images/complex/17.png,images/complex/7.png,images/complex/12.png,images/complex/2.png","0","null","","200","493.23999996995553","","","","background","",""
"","null","html-keyboard-response","77","109138","0.0-13.0-0.32","SS1602796859502","","null","","","","","","","","","","","","<img src=images/blank.png width =""500"" height = ""500"" style=""border:5px solid black"">","","",""
"","470.450000022538","stimulus-presentation","78","109819","0.0-13.0-1.32","SS1602796859502","<img src='images/complex/14.png' width ='500' height = '500' style='border:5px solid black'>","40","mixed_complex_deviant","images/simple/10.png","images/simple/13.png","images/complex/4.png,images/complex/8.png,images/complex/14.png,images/complex/17.png,images/complex/7.png,images/complex/12.png,images/complex/2.png","0","null","","200","670.450000022538","","","","deviant","",""
"","null","html-keyboard-response","79","110824","0.0-13.0-0.33","SS1602796859502","","null","","","","","","","","","","","","<img src=images/blank.png width =""500"" height = ""500"" style=""border:5px solid black"">","","",""
"","417.69500001100823","stimulus-presentation","80","111451","0.0-13.0-1.33","SS1602796859502","<img src='images/simple/13.png' width ='500' height = '500' style='border:5px solid black'>","40","mixed_complex_deviant","images/simple/10.png","images/simple/13.png","images/complex/4.png,images/complex/8.png,images/complex/14.png,images/complex/17.png,images/complex/7.png,images/complex/12.png,images/complex/2.png","0","null","","200","617.6950000110082","","","","background","",""
"","null","html-keyboard-response","81","112473","0.0-13.0-0.34","SS1602796859502","","null","","","","","","","","","","","","<img src=images/blank.png width =""500"" height = ""500"" style=""border:5px solid black"">","","",""
"","426.44000001018867","stimulus-presentation","82","113107","0.0-13.0-1.34","SS1602796859502","<img src='images/simple/13.png' width ='500' height = '500' style='border:5px solid black'>","40","mixed_complex_deviant","images/simple/10.png","images/simple/13.png","images/complex/4.png,images/complex/8.png,images/complex/14.png,images/complex/17.png,images/complex/7.png,images/complex/12.png,images/complex/2.png","0","null","","200","626.4400000101887","","","","background","",""
"","null","html-keyboard-response","83","114002","0.0-13.0-0.35","SS1602796859502","","null","","","","","","","","","","","","<img src=images/blank.png width =""500"" height = ""500"" style=""border:5px solid black"">","","",""
"","1950.7650000159629","stimulus-presentation","84","116163","0.0-13.0-1.35","SS1602796859502","<img src='images/simple/10.png' width ='500' height = '500' style='border:5px solid black'>","40","mixed_complex_deviant","images/simple/10.png","images/simple/13.png","images/complex/4.png,images/complex/8.png,images/complex/14.png,images/complex/17.png,images/complex/7.png,images/complex/12.png,images/complex/2.png","0","null","","200","2150.765000015963","yes","1087.104999984149","","target","",""
"","null","html-keyboard-response","85","117010","0.0-13.0-0.36","SS1602796859502","","null","","","","","","","","","","","","<img src=images/blank.png width =""500"" height = ""500"" style=""border:5px solid black"">","","",""
"","428.5449999733828","stimulus-presentation","86","117646","0.0-13.0-1.36","SS1602796859502","<img src='images/complex/12.png' width ='500' height = '500' style='border:5px solid black'>","40","mixed_complex_deviant","images/simple/10.png","images/simple/13.png","images/complex/4.png,images/complex/8.png,images/complex/14.png,images/complex/17.png,images/complex/7.png,images/complex/12.png,images/complex/2.png","0","null","","200","628.5449999733828","","","","deviant","",""
"","null","html-keyboard-response","87","118535","0.0-13.0-0.37","SS1602796859502","","null","","","","","","","","","","","","<img src=images/blank.png width =""500"" height = ""500"" style=""border:5px solid black"">","","",""
"","419.8399999877438","stimulus-presentation","88","119163","0.0-13.0-1.37","SS1602796859502","<img src='images/simple/13.png' width ='500' height = '500' style='border:5px solid black'>","40","mixed_complex_deviant","images/simple/10.png","images/simple/13.png","images/complex/4.png,images/complex/8.png,images/complex/14.png,images/complex/17.png,images/complex/7.png,images/complex/12.png,images/complex/2.png","0","null","","200","619.8399999877438","","","","background","",""
"","null","html-keyboard-response","89","120342","0.0-13.0-0.38","SS1602796859502","","null","","","","","","","","","","","","<img src=images/blank.png width =""500"" height = ""500"" style=""border:5px solid black"">","","",""
"","187.42499995278195","stimulus-presentation","90","120740","0.0-13.0-1.38","SS1602796859502","<img src='images/simple/13.png' width ='500' height = '500' style='border:5px solid black'>","40","mixed_complex_deviant","images/simple/10.png","images/simple/13.png","images/complex/4.png,images/complex/8.png,images/complex/14.png,images/complex/17.png,images/complex/7.png,images/complex/12.png,images/complex/2.png","0","null","","200","387.42499995278195","","","","background","",""
"","null","html-keyboard-response","91","121938","0.0-13.0-0.39","SS1602796859502","","null","","","","","","","","","","","","<img src=images/blank.png width =""500"" height = ""500"" style=""border:5px solid black"">","","",""
"","369.185000017751","stimulus-presentation","92","122516","0.0-13.0-1.39","SS1602796859502","<img src='images/simple/13.png' width ='500' height = '500' style='border:5px solid black'>","40","mixed_complex_deviant","images/simple/10.png","images/simple/13.png","images/complex/4.png,images/complex/8.png,images/complex/14.png,images/complex/17.png,images/complex/7.png,images/complex/12.png,images/complex/2.png","0","null","","200","569.185000017751","","","","background","",""
"","null","html-keyboard-response","93","123654","0.0-13.0-0.40","SS1602796859502","","null","","","","","","","","","","","","<img src=images/blank.png width =""500"" height = ""500"" style=""border:5px solid black"">","","",""
"","1755.1300000050105","stimulus-presentation","94","125619","0.0-13.0-1.40","SS1602796859502","<img src='images/simple/10.png' width ='500' height = '500' style='border:5px solid black'>","40","mixed_complex_deviant","images/simple/10.png","images/simple/13.png","images/complex/4.png,images/complex/8.png,images/complex/14.png,images/complex/17.png,images/complex/7.png,images/complex/12.png,images/complex/2.png","0","null","","200","1955.1300000050105","yes","1069.2300000227988","","target","",""
"","null","html-keyboard-response","95","126513","0.0-13.0-0.41","SS1602796859502","","null","","","","","","","","","","","","<img src=images/blank.png width =""500"" height = ""500"" style=""border:5px solid black"">","","",""
"","370.82499999087304","stimulus-presentation","96","127095","0.0-13.0-1.41","SS1602796859502","<img src='images/simple/13.png' width ='500' height = '500' style='border:5px solid black'>","40","mixed_complex_deviant","images/simple/10.png","images/simple/13.png","images/complex/4.png,images/complex/8.png,images/complex/14.png,images/complex/17.png,images/complex/7.png,images/complex/12.png,images/complex/2.png","0","null","","200","570.824999990873","","","","background","",""
"","null","html-keyboard-response","97","128376","0.0-13.0-0.42","SS1602796859502","","null","","","","","","","","","","","","<img src=images/blank.png width =""500"" height = ""500"" style=""border:5px solid black"">","","",""
"","345.450000022538","stimulus-presentation","98","128931","0.0-13.0-1.42","SS1602796859502","<img src='images/simple/13.png' width ='500' height = '500' style='border:5px solid black'>","40","mixed_complex_deviant","images/simple/10.png","images/simple/13.png","images/complex/4.png,images/complex/8.png,images/complex/14.png,images/complex/17.png,images/complex/7.png,images/complex/12.png,images/complex/2.png","0","null","","200","545.450000022538","","","","background","",""
"","null","html-keyboard-response","99","130194","0.0-13.0-0.43","SS1602796859502","","null","","","","","","","","","","","","<img src=images/blank.png width =""500"" height = ""500"" style=""border:5px solid black"">","","",""
"","1297.2050000098534","stimulus-presentation","100","131699","0.0-13.0-1.43","SS1602796859502","<img src='images/simple/10.png' width ='500' height = '500' style='border:5px solid black'>","40","mixed_complex_deviant","images/simple/10.png","images/simple/13.png","images/complex/4.png,images/complex/8.png,images/complex/14.png,images/complex/17.png,images/complex/7.png,images/complex/12.png,images/complex/2.png","0","null","","200","1497.2050000098534","yes","546.0200000088662","","target","",""
"","null","html-keyboard-response","101","132887","0.0-13.0-0.44","SS1602796859502","","null","","","","","","","","","","","","<img src=images/blank.png width =""500"" height = ""500"" style=""border:5px solid black"">","","",""
"","433.59499995131046","stimulus-presentation","102","133533","0.0-13.0-1.44","SS1602796859502","<img src='images/complex/2.png' width ='500' height = '500' style='border:5px solid black'>","40","mixed_complex_deviant","images/simple/10.png","images/simple/13.png","images/complex/4.png,images/complex/8.png,images/complex/14.png,images/complex/17.png,images/complex/7.png,images/complex/12.png,images/complex/2.png","0","null","","200","633.5949999513105","","","","deviant","",""
"","null","html-keyboard-response","103","134401","0.0-13.0-0.45","SS1602796859502","","null","","","","","","","","","","","","<img src=images/blank.png width =""500"" height = ""500"" style=""border:5px solid black"">","","",""
"","410.6949999695644","stimulus-presentation","104","135022","0.0-13.0-1.45","SS1602796859502","<img src='images/simple/13.png' width ='500' height = '500' style='border:5px solid black'>","40","mixed_complex_deviant","images/simple/10.png","images/simple/13.png","images/complex/4.png,images/complex/8.png,images/complex/14.png,images/complex/17.png,images/complex/7.png,images/complex/12.png,images/complex/2.png","0","null","","200","610.6949999695644","","","","background","",""
"","null","html-keyboard-response","105","135853","0.0-13.0-0.46","SS1602796859502","","null","","","","","","","","","","","","<img src=images/blank.png width =""500"" height = ""500"" style=""border:5px solid black"">","","",""
"","210.65500000258908","stimulus-presentation","106","136273","0.0-13.0-1.46","SS1602796859502","<img src='images/simple/13.png' width ='500' height = '500' style='border:5px solid black'>","40","mixed_complex_deviant","images/simple/10.png","images/simple/13.png","images/complex/4.png,images/complex/8.png,images/complex/14.png,images/complex/17.png,images/complex/7.png,images/complex/12.png,images/complex/2.png","0","null","","200","410.6550000025891","","","","background","",""
"","null","html-keyboard-response","107","137438","0.0-13.0-0.47","SS1602796859502","","null","","","","","","","","","","","","<img src=images/blank.png width =""500"" height = ""500"" style=""border:5px solid black"">","","",""
"","238.4149999707006","stimulus-presentation","108","137884","0.0-13.0-1.47","SS1602796859502","<img src='images/simple/13.png' width ='500' height = '500' style='border:5px solid black'>","40","mixed_complex_deviant","images/simple/10.png","images/simple/13.png","images/complex/4.png,images/complex/8.png,images/complex/14.png,images/complex/17.png,images/complex/7.png,images/complex/12.png,images/complex/2.png","0","null","","200","438.4149999707006","","","","background","",""
"","null","html-keyboard-response","109","138936","0.0-13.0-0.48","SS1602796859502","","null","","","","","","","","","","","","<img src=images/blank.png width =""500"" height = ""500"" style=""border:5px solid black"">","","",""
"","202.76999997440726","stimulus-presentation","110","139348","0.0-13.0-1.48","SS1602796859502","<img src='images/simple/13.png' width ='500' height = '500' style='border:5px solid black'>","40","mixed_complex_deviant","images/simple/10.png","images/simple/13.png","images/complex/4.png,images/complex/8.png,images/complex/14.png,images/complex/17.png,images/complex/7.png,images/complex/12.png,images/complex/2.png","0","null","","200","402.76999997440726","","","","background","",""
"[{""page_index"":0,""viewing_time"":4288}]","4288","task-instructions","111","143639","0.0-14.0","SS1602796859502","","","","","","","","","","","","","","","","",""
"[{""page_index"":0,""viewing_time"":2778.610000037588},{""page_index"":1,""viewing_time"":5656.674999976531},{""page_index"":2,""viewing_time"":966.2300000200048}]","9401.94499999052","instructions","112","153046","0.0-15.0","SS1602796859502","","","","","","","","","","","","","","","","",""
"","null","html-keyboard-response","113","153890","0.0-16.0-0.0","SS1602796859502","","null","","","","","","","","","","","","<img src=images/blank.png width =""500"" height = ""500"" style=""border:5px solid black"">","","",""
"","880.2399999694899","stimulus-presentation","114","154980","0.0-16.0-1.0","SS1602796859502","<img src='images/simple/12.png' width ='500' height = '500' style='border:5px solid black'>","40","all_simple","images/simple/8.png","images/simple/12.png","images/simple/11.png,images/simple/5.png,images/simple/16.png,images/simple/4.png,images/simple/6.png,images/simple/9.png,images/simple/15.png","1","null","","200","1080.2399999694899","","","","background","",""
"","null","html-keyboard-response","115","156276","0.0-16.0-0.1","SS1602796859502","","null","","","","","","","","","","","","<img src=images/blank.png width =""500"" height = ""500"" style=""border:5px solid black"">","","",""
"","428.6149999825284","stimulus-presentation","116","156916","0.0-16.0-1.1","SS1602796859502","<img src='images/simple/12.png' width ='500' height = '500' style='border:5px solid black'>","40","all_simple","images/simple/8.png","images/simple/12.png","images/simple/11.png,images/simple/5.png,images/simple/16.png,images/simple/4.png,images/simple/6.png,images/simple/9.png,images/simple/15.png","1","null","","200","628.6149999825284","","","","background","",""
"","null","html-keyboard-response","117","158126","0.0-16.0-0.2","SS1602796859502","","null","","","","","","","","","","","","<img src=images/blank.png width =""500"" height = ""500"" style=""border:5px solid black"">","","",""
"","308.2550000399351","stimulus-presentation","118","158643","0.0-16.0-1.2","SS1602796859502","<img src='images/simple/12.png' width ='500' height = '500' style='border:5px solid black'>","40","all_simple","images/simple/8.png","images/simple/12.png","images/simple/11.png,images/simple/5.png,images/simple/16.png,images/simple/4.png,images/simple/6.png,images/simple/9.png,images/simple/15.png","1","null","","200","508.2550000399351","","","","background","",""
"","null","html-keyboard-response","119","159806","0.0-16.0-0.3","SS1602796859502","","null","","","","","","","","","","","","<img src=images/blank.png width =""500"" height = ""500"" style=""border:5px solid black"">","","",""
"","286.1900000134483","stimulus-presentation","120","160300","0.0-16.0-1.3","SS1602796859502","<img src='images/simple/11.png' width ='500' height = '500' style='border:5px solid black'>","40","all_simple","images/simple/8.png","images/simple/12.png","images/simple/11.png,images/simple/5.png,images/simple/16.png,images/simple/4.png,images/simple/6.png,images/simple/9.png,images/simple/15.png","1","null","","200","486.1900000134483","","","","deviant","",""
"","null","html-keyboard-response","121","161125","0.0-16.0-0.4","SS1602796859502","","null","","","","","","","","","","","","<img src=images/blank.png width =""500"" height = ""500"" style=""border:5px solid black"">","","",""
"","325.45499998377636","stimulus-presentation","122","161658","0.0-16.0-1.4","SS1602796859502","<img src='images/simple/12.png' width ='500' height = '500' style='border:5px solid black'>","40","all_simple","images/simple/8.png","images/simple/12.png","images/simple/11.png,images/simple/5.png,images/simple/16.png,images/simple/4.png,images/simple/6.png,images/simple/9.png,images/simple/15.png","1","null","","200","525.4549999837764","","","","background","",""
"","null","html-keyboard-response","123","162953","0.0-16.0-0.5","SS1602796859502","","null","","","","","","","","","","","","<img src=images/blank.png width =""500"" height = ""500"" style=""border:5px solid black"">","","",""
"","248.98999999277294","stimulus-presentation","124","163410","0.0-16.0-1.5","SS1602796859502","<img src='images/simple/12.png' width ='500' height = '500' style='border:5px solid black'>","40","all_simple","images/simple/8.png","images/simple/12.png","images/simple/11.png,images/simple/5.png,images/simple/16.png,images/simple/4.png,images/simple/6.png,images/simple/9.png,images/simple/15.png","1","null","","200","448.98999999277294","","","","background","",""
"","null","html-keyboard-response","125","164255","0.0-16.0-0.6","SS1602796859502","","null","","","","","","","","","","","","<img src=images/blank.png width =""500"" height = ""500"" style=""border:5px solid black"">","","",""
"","177.83499998040497","stimulus-presentation","126","164641","0.0-16.0-1.6","SS1602796859502","<img src='images/simple/12.png' width ='500' height = '500' style='border:5px solid black'>","40","all_simple","images/simple/8.png","images/simple/12.png","images/simple/11.png,images/simple/5.png,images/simple/16.png,images/simple/4.png,images/simple/6.png,images/simple/9.png,images/simple/15.png","1","null","","200","377.834999980405","","","","background","",""
"","null","html-keyboard-response","127","165639","0.0-16.0-0.7","SS1602796859502","","null","","","","","","","","","","","","<img src=images/blank.png width =""500"" height = ""500"" style=""border:5px solid black"">","","",""
"","358.41000004438683","stimulus-presentation","128","166210","0.0-16.0-1.7","SS1602796859502","<img src='images/simple/12.png' width ='500' height = '500' style='border:5px solid black'>","40","all_simple","images/simple/8.png","images/simple/12.png","images/simple/11.png,images/simple/5.png,images/simple/16.png,images/simple/4.png,images/simple/6.png,images/simple/9.png,images/simple/15.png","1","null","","200","558.4100000443868","","","","background","",""
"","null","html-keyboard-response","129","167426","0.0-16.0-0.8","SS1602796859502","","null","","","","","","","","","","","","<img src=images/blank.png width =""500"" height = ""500"" style=""border:5px solid black"">","","",""
"","345.6000000005588","stimulus-presentation","130","167982","0.0-16.0-1.8","SS1602796859502","<img src='images/simple/9.png' width ='500' height = '500' style='border:5px solid black'>","40","all_simple","images/simple/8.png","images/simple/12.png","images/simple/11.png,images/simple/5.png,images/simple/16.png,images/simple/4.png,images/simple/6.png,images/simple/9.png,images/simple/15.png","1","null","","200","545.6000000005588","","","","deviant","",""
"","null","html-keyboard-response","131","168916","0.0-16.0-0.9","SS1602796859502","","null","","","","","","","","","","","","<img src=images/blank.png width =""500"" height = ""500"" style=""border:5px solid black"">","","",""
"","386.24500000150874","stimulus-presentation","132","169513","0.0-16.0-1.9","SS1602796859502","<img src='images/simple/12.png' width ='500' height = '500' style='border:5px solid black'>","40","all_simple","images/simple/8.png","images/simple/12.png","images/simple/11.png,images/simple/5.png,images/simple/16.png,images/simple/4.png,images/simple/6.png,images/simple/9.png,images/simple/15.png","1","null","","200","586.2450000015087","","","","background","",""
"","null","html-keyboard-response","133","170563","0.0-16.0-0.10","SS1602796859502","","null","","","","","","","","","","","","<img src=images/blank.png width =""500"" height = ""500"" style=""border:5px solid black"">","","",""
"","247.73000000277534","stimulus-presentation","134","171021","0.0-16.0-1.10","SS1602796859502","<img src='images/simple/12.png' width ='500' height = '500' style='border:5px solid black'>","40","all_simple","images/simple/8.png","images/simple/12.png","images/simple/11.png,images/simple/5.png,images/simple/16.png,images/simple/4.png,images/simple/6.png,images/simple/9.png,images/simple/15.png","1","null","","200","447.73000000277534","","","","background","",""
"","null","html-keyboard-response","135","171851","0.0-16.0-0.11","SS1602796859502","","null","","","","","","","","","","","","<img src=images/blank.png width =""500"" height = ""500"" style=""border:5px solid black"">","","",""
"","226.42000002088025","stimulus-presentation","136","172283","0.0-16.0-1.11","SS1602796859502","<img src='images/simple/12.png' width ='500' height = '500' style='border:5px solid black'>","40","all_simple","images/simple/8.png","images/simple/12.png","images/simple/11.png,images/simple/5.png,images/simple/16.png,images/simple/4.png,images/simple/6.png,images/simple/9.png,images/simple/15.png","1","null","","200","426.42000002088025","","","","background","",""
"","null","html-keyboard-response","137","173408","0.0-16.0-0.12","SS1602796859502","","null","","","","","","","","","","","","<img src=images/blank.png width =""500"" height = ""500"" style=""border:5px solid black"">","","",""
"","298.8449999829754","stimulus-presentation","138","173915","0.0-16.0-1.12","SS1602796859502","<img src='images/simple/12.png' width ='500' height = '500' style='border:5px solid black'>","40","all_simple","images/simple/8.png","images/simple/12.png","images/simple/11.png,images/simple/5.png,images/simple/16.png,images/simple/4.png,images/simple/6.png,images/simple/9.png,images/simple/15.png","1","null","","200","498.8449999829754","","","","background","",""
"","null","html-keyboard-response","139","174943","0.0-16.0-0.13","SS1602796859502","","null","","","","","","","","","","","","<img src=images/blank.png width =""500"" height = ""500"" style=""border:5px solid black"">","","",""
"","1187.7150000073016","stimulus-presentation","140","176341","0.0-16.0-1.13","SS1602796859502","<img src='images/simple/8.png' width ='500' height = '500' style='border:5px solid black'>","40","all_simple","images/simple/8.png","images/simple/12.png","images/simple/11.png,images/simple/5.png,images/simple/16.png,images/simple/4.png,images/simple/6.png,images/simple/9.png,images/simple/15.png","1","null","","200","1387.7150000073016","yes","355.66499998094514","","target","",""
"","null","html-keyboard-response","141","177613","0.0-16.0-0.14","SS1602796859502","","null","","","","","","","","","","","","<img src=images/blank.png width =""500"" height = ""500"" style=""border:5px solid black"">","","",""
"","299.99000002862886","stimulus-presentation","142","178125","0.0-16.0-1.14","SS1602796859502","<img src='images/simple/12.png' width ='500' height = '500' style='border:5px solid black'>","40","all_simple","images/simple/8.png","images/simple/12.png","images/simple/11.png,images/simple/5.png,images/simple/16.png,images/simple/4.png,images/simple/6.png,images/simple/9.png,images/simple/15.png","1","null","","200","499.99000002862886","","","","background","",""
"","null","html-keyboard-response","143","179082","0.0-16.0-0.15","SS1602796859502","","null","","","","","","","","","","","","<img src=images/blank.png width =""500"" height = ""500"" style=""border:5px solid black"">","","",""
"","303.55000001145527","stimulus-presentation","144","179596","0.0-16.0-1.15","SS1602796859502","<img src='images/simple/15.png' width ='500' height = '500' style='border:5px solid black'>","40","all_simple","images/simple/8.png","images/simple/12.png","images/simple/11.png,images/simple/5.png,images/simple/16.png,images/simple/4.png,images/simple/6.png,images/simple/9.png,images/simple/15.png","1","null","","200","503.55000001145527","","","","deviant","",""
"","null","html-keyboard-response","145","180489","0.0-16.0-0.16","SS1602796859502","","null","","","","","","","","","","","","<img src=images/blank.png width =""500"" height = ""500"" style=""border:5px solid black"">","","",""
"","388.30499997129664","stimulus-presentation","146","181086","0.0-16.0-1.16","SS1602796859502","<img src='images/simple/12.png' width ='500' height = '500' style='border:5px solid black'>","40","all_simple","images/simple/8.png","images/simple/12.png","images/simple/11.png,images/simple/5.png,images/simple/16.png,images/simple/4.png,images/simple/6.png,images/simple/9.png,images/simple/15.png","1","null","","200","588.3049999712966","","","","background","",""
"","null","html-keyboard-response","147","182271","0.0-16.0-0.17","SS1602796859502","","null","","","","","","","","","","","","<img src=images/blank.png width =""500"" height = ""500"" style=""border:5px solid black"">","","",""
"","336.86499996110797","stimulus-presentation","148","182820","0.0-16.0-1.17","SS1602796859502","<img src='images/simple/12.png' width ='500' height = '500' style='border:5px solid black'>","40","all_simple","images/simple/8.png","images/simple/12.png","images/simple/11.png,images/simple/5.png,images/simple/16.png,images/simple/4.png,images/simple/6.png,images/simple/9.png,images/simple/15.png","1","null","","200","536.864999961108","","","","background","",""
"","null","html-keyboard-response","149","183934","0.0-16.0-0.18","SS1602796859502","","null","","","","","","","","","","","","<img src=images/blank.png width =""500"" height = ""500"" style=""border:5px solid black"">","","",""
"","235.3450000518933","stimulus-presentation","150","184381","0.0-16.0-1.18","SS1602796859502","<img src='images/simple/12.png' width ='500' height = '500' style='border:5px solid black'>","40","all_simple","images/simple/8.png","images/simple/12.png","images/simple/11.png,images/simple/5.png,images/simple/16.png,images/simple/4.png,images/simple/6.png,images/simple/9.png,images/simple/15.png","1","null","","200","435.3450000518933","","","","background","",""
"","null","html-keyboard-response","151","185354","0.0-16.0-0.19","SS1602796859502","","null","","","","","","","","","","","","<img src=images/blank.png width =""500"" height = ""500"" style=""border:5px solid black"">","","",""
"","151.27500001108274","stimulus-presentation","152","185716","0.0-16.0-1.19","SS1602796859502","<img src='images/simple/12.png' width ='500' height = '500' style='border:5px solid black'>","40","all_simple","images/simple/8.png","images/simple/12.png","images/simple/11.png,images/simple/5.png,images/simple/16.png,images/simple/4.png,images/simple/6.png,images/simple/9.png,images/simple/15.png","1","null","","200","351.27500001108274","","","","background","",""
"","null","html-keyboard-response","153","186997","0.0-16.0-0.20","SS1602796859502","","null","","","","","","","","","","","","<img src=images/blank.png width =""500"" height = ""500"" style=""border:5px solid black"">","","",""
"","364.5299999625422","stimulus-presentation","154","187573","0.0-16.0-1.20","SS1602796859502","<img src='images/simple/6.png' width ='500' height = '500' style='border:5px solid black'>","40","all_simple","images/simple/8.png","images/simple/12.png","images/simple/11.png,images/simple/5.png,images/simple/16.png,images/simple/4.png,images/simple/6.png,images/simple/9.png,images/simple/15.png","1","null","","200","564.5299999625422","","","","deviant","",""
"","null","html-keyboard-response","155","188439","0.0-16.0-0.21","SS1602796859502","","null","","","","","","","","","","","","<img src=images/blank.png width =""500"" height = ""500"" style=""border:5px solid black"">","","",""
"","213.15500000491738","stimulus-presentation","156","188861","0.0-16.0-1.21","SS1602796859502","<img src='images/simple/12.png' width ='500' height = '500' style='border:5px solid black'>","40","all_simple","images/simple/8.png","images/simple/12.png","images/simple/11.png,images/simple/5.png,images/simple/16.png,images/simple/4.png,images/simple/6.png,images/simple/9.png,images/simple/15.png","1","null","","200","413.1550000049174","","","","background","",""
"","null","html-keyboard-response","157","189862","0.0-16.0-0.22","SS1602796859502","","null","","","","","","","","","","","","<img src=images/blank.png width =""500"" height = ""500"" style=""border:5px solid black"">","","",""
"","221.895000024233","stimulus-presentation","158","190291","0.0-16.0-1.22","SS1602796859502","<img src='images/simple/12.png' width ='500' height = '500' style='border:5px solid black'>","40","all_simple","images/simple/8.png","images/simple/12.png","images/simple/11.png,images/simple/5.png,images/simple/16.png,images/simple/4.png,images/simple/6.png,images/simple/9.png,images/simple/15.png","1","null","","200","421.895000024233","","","","background","",""
"","null","html-keyboard-response","159","191319","0.0-16.0-0.23","SS1602796859502","","null","","","","","","","","","","","","<img src=images/blank.png width =""500"" height = ""500"" style=""border:5px solid black"">","","",""
"","188.2750000222586","stimulus-presentation","160","191716","0.0-16.0-1.23","SS1602796859502","<img src='images/simple/12.png' width ='500' height = '500' style='border:5px solid black'>","40","all_simple","images/simple/8.png","images/simple/12.png","images/simple/11.png,images/simple/5.png,images/simple/16.png,images/simple/4.png,images/simple/6.png,images/simple/9.png,images/simple/15.png","1","null","","200","388.2750000222586","","","","background","",""
"","null","html-keyboard-response","161","192643","0.0-16.0-0.24","SS1602796859502","","null","","","","","","","","","","","","<img src=images/blank.png width =""500"" height = ""500"" style=""border:5px solid black"">","","",""
"","1093.4000000124797","stimulus-presentation","162","193947","0.0-16.0-1.24","SS1602796859502","<img src='images/simple/8.png' width ='500' height = '500' style='border:5px solid black'>","40","all_simple","images/simple/8.png","images/simple/12.png","images/simple/11.png,images/simple/5.png,images/simple/16.png,images/simple/4.png,images/simple/6.png,images/simple/9.png,images/simple/15.png","1","null","","200","1293.4000000124797","yes","382.5349999824539","","target","",""
"","null","html-keyboard-response","163","194858","0.0-16.0-0.25","SS1602796859502","","null","","","","","","","","","","","","<img src=images/blank.png width =""500"" height = ""500"" style=""border:5px solid black"">","","",""
"","1152.4199999985285","stimulus-presentation","164","196220","0.0-16.0-1.25","SS1602796859502","<img src='images/simple/8.png' width ='500' height = '500' style='border:5px solid black'>","40","all_simple","images/simple/8.png","images/simple/12.png","images/simple/11.png,images/simple/5.png,images/simple/16.png,images/simple/4.png,images/simple/6.png,images/simple/9.png,images/simple/15.png","1","null","","200","1352.4199999985285","yes","432.6700000092387","","target","",""
"","null","html-keyboard-response","165","197442","0.0-16.0-0.26","SS1602796859502","","null","","","","","","","","","","","","<img src=images/blank.png width =""500"" height = ""500"" style=""border:5px solid black"">","","",""
"","1054.5450000208803","stimulus-presentation","166","198708","0.0-16.0-1.26","SS1602796859502","<img src='images/simple/8.png' width ='500' height = '500' style='border:5px solid black'>","40","all_simple","images/simple/8.png","images/simple/12.png","images/simple/11.png,images/simple/5.png,images/simple/16.png,images/simple/4.png,images/simple/6.png,images/simple/9.png,images/simple/15.png","1","null","","200","1254.5450000208803","yes","399.02499999152496","","target","",""
"","null","html-keyboard-response","167","199829","0.0-16.0-0.27","SS1602796859502","","null","","","","","","","","","","","","<img src=images/blank.png width =""500"" height = ""500"" style=""border:5px solid black"">","","",""
"","273.3449999941513","stimulus-presentation","168","200310","0.0-16.0-1.27","SS1602796859502","<img src='images/simple/12.png' width ='500' height = '500' style='border:5px solid black'>","40","all_simple","images/simple/8.png","images/simple/12.png","images/simple/11.png,images/simple/5.png,images/simple/16.png,images/simple/4.png,images/simple/6.png,images/simple/9.png,images/simple/15.png","1","null","","200","473.3449999941513","","","","background","",""
"","null","html-keyboard-response","169","201451","0.0-16.0-0.28","SS1602796859502","","null","","","","","","","","","","","","<img src=images/blank.png width =""500"" height = ""500"" style=""border:5px solid black"">","","",""
"","148.9949999959208","stimulus-presentation","170","201812","0.0-16.0-1.28","SS1602796859502","<img src='images/simple/8.png' width ='500' height = '500' style='border:5px solid black'>","40","all_simple","images/simple/8.png","images/simple/12.png","images/simple/11.png,images/simple/5.png,images/simple/16.png,images/simple/4.png,images/simple/6.png,images/simple/9.png,images/simple/15.png","1","null","","200","348.9949999959208","","","","target","",""
"","null","html-keyboard-response","171","202623","0.0-16.0-0.29","SS1602796859502","","null","","","","","","","","","","","","<img src=images/blank.png width =""500"" height = ""500"" style=""border:5px solid black"">","","",""
"","238.71499998494983","stimulus-presentation","172","203074","0.0-16.0-1.29","SS1602796859502","<img src='images/simple/12.png' width ='500' height = '500' style='border:5px solid black'>","40","all_simple","images/simple/8.png","images/simple/12.png","images/simple/11.png,images/simple/5.png,images/simple/16.png,images/simple/4.png,images/simple/6.png,images/simple/9.png,images/simple/15.png","1","null","","200","438.7149999849498","","","","background","",""
"","null","html-keyboard-response","173","203962","0.0-16.0-0.30","SS1602796859502","","null","","","","","","","","","","","","<img src=images/blank.png width =""500"" height = ""500"" style=""border:5px solid black"">","","",""
"","223.6850000335835","stimulus-presentation","174","204397","0.0-16.0-1.30","SS1602796859502","<img src='images/simple/12.png' width ='500' height = '500' style='border:5px solid black'>","40","all_simple","images/simple/8.png","images/simple/12.png","images/simple/11.png,images/simple/5.png,images/simple/16.png,images/simple/4.png,images/simple/6.png,images/simple/9.png,images/simple/15.png","1","null","","200","423.6850000335835","","","","background","",""
"","null","html-keyboard-response","175","205418","0.0-16.0-0.31","SS1602796859502","","null","","","","","","","","","","","","<img src=images/blank.png width =""500"" height = ""500"" style=""border:5px solid black"">","","",""
"","148.20999995572492","stimulus-presentation","176","205775","0.0-16.0-1.31","SS1602796859502","<img src='images/simple/12.png' width ='500' height = '500' style='border:5px solid black'>","40","all_simple","images/simple/8.png","images/simple/12.png","images/simple/11.png,images/simple/5.png,images/simple/16.png,images/simple/4.png,images/simple/6.png,images/simple/9.png,images/simple/15.png","1","null","","200","348.2099999557249","","","","background","",""
"","null","html-keyboard-response","177","206965","0.0-16.0-0.32","SS1602796859502","","null","","","","","","","","","","","","<img src=images/blank.png width =""500"" height = ""500"" style=""border:5px solid black"">","","",""
"","298.75000001629815","stimulus-presentation","178","207476","0.0-16.0-1.32","SS1602796859502","<img src='images/simple/5.png' width ='500' height = '500' style='border:5px solid black'>","40","all_simple","images/simple/8.png","images/simple/12.png","images/simple/11.png,images/simple/5.png,images/simple/16.png,images/simple/4.png,images/simple/6.png,images/simple/9.png,images/simple/15.png","1","null","","200","498.75000001629815","","","","deviant","",""
"","null","html-keyboard-response","179","208628","0.0-16.0-0.33","SS1602796859502","","null","","","","","","","","","","","","<img src=images/blank.png width =""500"" height = ""500"" style=""border:5px solid black"">","","",""
"","425.67999998573214","stimulus-presentation","180","209259","0.0-16.0-1.33","SS1602796859502","<img src='images/simple/12.png' width ='500' height = '500' style='border:5px solid black'>","40","all_simple","images/simple/8.png","images/simple/12.png","images/simple/11.png,images/simple/5.png,images/simple/16.png,images/simple/4.png,images/simple/6.png,images/simple/9.png,images/simple/15.png","1","null","","200","625.6799999857321","","","","background","",""
"","null","html-keyboard-response","181","210372","0.0-16.0-0.34","SS1602796859502","","null","","","","","","","","","","","","<img src=images/blank.png width =""500"" height = ""500"" style=""border:5px solid black"">","","",""
"","249.49999997625127","stimulus-presentation","182","210832","0.0-16.0-1.34","SS1602796859502","<img src='images/simple/12.png' width ='500' height = '500' style='border:5px solid black'>","40","all_simple","images/simple/8.png","images/simple/12.png","images/simple/11.png,images/simple/5.png,images/simple/16.png,images/simple/4.png,images/simple/6.png,images/simple/9.png,images/simple/15.png","1","null","","200","449.4999999762513","","","","background","",""
"","null","html-keyboard-response","183","211731","0.0-16.0-0.35","SS1602796859502","","null","","","","","","","","","","","","<img src=images/blank.png width =""500"" height = ""500"" style=""border:5px solid black"">","","",""
"","423.80500002764165","stimulus-presentation","184","212363","0.0-16.0-1.35","SS1602796859502","<img src='images/simple/12.png' width ='500' height = '500' style='border:5px solid black'>","40","all_simple","images/simple/8.png","images/simple/12.png","images/simple/11.png,images/simple/5.png,images/simple/16.png,images/simple/4.png,images/simple/6.png,images/simple/9.png,images/simple/15.png","1","null","","200","623.8050000276417","","","","background","",""
"","null","html-keyboard-response","185","213582","0.0-16.0-0.36","SS1602796859502","","null","","","","","","","","","","","","<img src=images/blank.png width =""500"" height = ""500"" style=""border:5px solid black"">","","",""
"","349.8999999719672","stimulus-presentation","186","214141","0.0-16.0-1.36","SS1602796859502","<img src='images/simple/12.png' width ='500' height = '500' style='border:5px solid black'>","40","all_simple","images/simple/8.png","images/simple/12.png","images/simple/11.png,images/simple/5.png,images/simple/16.png,images/simple/4.png,images/simple/6.png,images/simple/9.png,images/simple/15.png","1","null","","200","549.8999999719672","","","","background","",""
"","null","html-keyboard-response","187","215314","0.0-16.0-0.37","SS1602796859502","","null","","","","","","","","","","","","<img src=images/blank.png width =""500"" height = ""500"" style=""border:5px solid black"">","","",""
"","1526.0049999924377","stimulus-presentation","188","217053","0.0-16.0-1.37","SS1602796859502","<img src='images/simple/8.png' width ='500' height = '500' style='border:5px solid black'>","40","all_simple","images/simple/8.png","images/simple/12.png","images/simple/11.png,images/simple/5.png,images/simple/16.png,images/simple/4.png,images/simple/6.png,images/simple/9.png,images/simple/15.png","1","null","","200","1726.0049999924377","yes","612.2549999854527","","target","",""
"","null","html-keyboard-response","189","218108","0.0-16.0-0.38","SS1602796859502","","null","","","","","","","","","","","","<img src=images/blank.png width =""500"" height = ""500"" style=""border:5px solid black"">","","",""
"","2667.365000001155","stimulus-presentation","190","220989","0.0-16.0-1.38","SS1602796859502","<img src='images/simple/12.png' width ='500' height = '500' style='border:5px solid black'>","40","all_simple","images/simple/8.png","images/simple/12.png","images/simple/11.png,images/simple/5.png,images/simple/16.png,images/simple/4.png,images/simple/6.png,images/simple/9.png,images/simple/15.png","1","null","","200","2867.365000001155","","","","background","",""
"","null","html-keyboard-response","191","222104","0.0-16.0-0.39","SS1602796859502","","null","","","","","","","","","","","","<img src=images/blank.png width =""500"" height = ""500"" style=""border:5px solid black"">","","",""
"","275.42499999981374","stimulus-presentation","192","222589","0.0-16.0-1.39","SS1602796859502","<img src='images/simple/12.png' width ='500' height = '500' style='border:5px solid black'>","40","all_simple","images/simple/8.png","images/simple/12.png","images/simple/11.png,images/simple/5.png,images/simple/16.png,images/simple/4.png,images/simple/6.png,images/simple/9.png,images/simple/15.png","1","null","","200","475.42499999981374","","","","background","",""
"","null","html-keyboard-response","193","223452","0.0-16.0-0.40","SS1602796859502","","null","","","","","","","","","","","","<img src=images/blank.png width =""500"" height = ""500"" style=""border:5px solid black"">","","",""
"","210.61499998904765","stimulus-presentation","194","223875","0.0-16.0-1.40","SS1602796859502","<img src='images/simple/12.png' width ='500' height = '500' style='border:5px solid black'>","40","all_simple","images/simple/8.png","images/simple/12.png","images/simple/11.png,images/simple/5.png,images/simple/16.png,images/simple/4.png,images/simple/6.png,images/simple/9.png,images/simple/15.png","1","null","","200","410.61499998904765","","","","background","",""
"","null","html-keyboard-response","195","224989","0.0-16.0-0.41","SS1602796859502","","null","","","","","","","","","","","","<img src=images/blank.png width =""500"" height = ""500"" style=""border:5px solid black"">","","",""
"","426.58999998820946","stimulus-presentation","196","225628","0.0-16.0-1.41","SS1602796859502","<img src='images/simple/16.png' width ='500' height = '500' style='border:5px solid black'>","40","all_simple","images/simple/8.png","images/simple/12.png","images/simple/11.png,images/simple/5.png,images/simple/16.png,images/simple/4.png,images/simple/6.png,images/simple/9.png,images/simple/15.png","1","null","","200","626.5899999882095","","","","deviant","",""
"","null","html-keyboard-response","197","226812","0.0-16.0-0.42","SS1602796859502","","null","","","","","","","","","","","","<img src=images/blank.png width =""500"" height = ""500"" style=""border:5px solid black"">","","",""
"","713.8450000202283","stimulus-presentation","198","227735","0.0-16.0-1.42","SS1602796859502","<img src='images/simple/8.png' width ='500' height = '500' style='border:5px solid black'>","40","all_simple","images/simple/8.png","images/simple/12.png","images/simple/11.png,images/simple/5.png,images/simple/16.png,images/simple/4.png,images/simple/6.png,images/simple/9.png,images/simple/15.png","1","null","","200","913.8450000202283","","","","target","",""
"","null","html-keyboard-response","199","228607","0.0-16.0-0.43","SS1602796859502","","null","","","","","","","","","","","","<img src=images/blank.png width =""500"" height = ""500"" style=""border:5px solid black"">","","",""
"","287.72000002209097","stimulus-presentation","200","229108","0.0-16.0-1.43","SS1602796859502","<img src='images/simple/12.png' width ='500' height = '500' style='border:5px solid black'>","40","all_simple","images/simple/8.png","images/simple/12.png","images/simple/11.png,images/simple/5.png,images/simple/16.png,images/simple/4.png,images/simple/6.png,images/simple/9.png,images/simple/15.png","1","null","","200","487.72000002209097","","","","background","",""
"","null","html-keyboard-response","201","230050","0.0-16.0-0.44","SS1602796859502","","null","","","","","","","","","","","","<img src=images/blank.png width =""500"" height = ""500"" style=""border:5px solid black"">","","",""
"","348.485000024084","stimulus-presentation","202","230611","0.0-16.0-1.44","SS1602796859502","<img src='images/simple/4.png' width ='500' height = '500' style='border:5px solid black'>","40","all_simple","images/simple/8.png","images/simple/12.png","images/simple/11.png,images/simple/5.png,images/simple/16.png,images/simple/4.png,images/simple/6.png,images/simple/9.png,images/simple/15.png","1","null","","200","548.485000024084","","","","deviant","",""
"","null","html-keyboard-response","203","231691","0.0-16.0-0.45","SS1602796859502","","null","","","","","","","","","","","","<img src=images/blank.png width =""500"" height = ""500"" style=""border:5px solid black"">","","",""
"","428.90499997884035","stimulus-presentation","204","232334","0.0-16.0-1.45","SS1602796859502","<img src='images/simple/12.png' width ='500' height = '500' style='border:5px solid black'>","40","all_simple","images/simple/8.png","images/simple/12.png","images/simple/11.png,images/simple/5.png,images/simple/16.png,images/simple/4.png,images/simple/6.png,images/simple/9.png,images/simple/15.png","1","null","","200","628.9049999788404","","","","background","",""
"","null","html-keyboard-response","205","233424","0.0-16.0-0.46","SS1602796859502","","null","","","","","","","","","","","","<img src=images/blank.png width =""500"" height = ""500"" style=""border:5px solid black"">","","",""
"","235.8349999994971","stimulus-presentation","206","233869","0.0-16.0-1.46","SS1602796859502","<img src='images/simple/12.png' width ='500' height = '500' style='border:5px solid black'>","40","all_simple","images/simple/8.png","images/simple/12.png","images/simple/11.png,images/simple/5.png,images/simple/16.png,images/simple/4.png,images/simple/6.png,images/simple/9.png,images/simple/15.png","1","null","","200","435.8349999994971","","","","background","",""
"","null","html-keyboard-response","207","235121","0.0-16.0-0.47","SS1602796859502","","null","","","","","","","","","","","","<img src=images/blank.png width =""500"" height = ""500"" style=""border:5px solid black"">","","",""
"","163.47999998833984","stimulus-presentation","208","235493","0.0-16.0-1.47","SS1602796859502","<img src='images/simple/12.png' width ='500' height = '500' style='border:5px solid black'>","40","all_simple","images/simple/8.png","images/simple/12.png","images/simple/11.png,images/simple/5.png,images/simple/16.png,images/simple/4.png,images/simple/6.png,images/simple/9.png,images/simple/15.png","1","null","","200","363.47999998833984","","","","background","",""
"","null","html-keyboard-response","209","236395","0.0-16.0-0.48","SS1602796859502","","null","","","","","","","","","","","","<img src=images/blank.png width =""500"" height = ""500"" style=""border:5px solid black"">","","",""
"","181.26500002108514","stimulus-presentation","210","236790","0.0-16.0-1.48","SS1602796859502","<img src='images/simple/12.png' width ='500' height = '500' style='border:5px solid black'>","40","all_simple","images/simple/8.png","images/simple/12.png","images/simple/11.png,images/simple/5.png,images/simple/16.png,images/simple/4.png,images/simple/6.png,images/simple/9.png,images/simple/15.png","1","null","","200","381.26500002108514","","","","background","",""
"[{""page_index"":0,""viewing_time"":1989}]","1990","task-instructions","211","238785","0.0-17.0","SS1602796859502","","","","","","","","","","","","","","","","",""
"[{""page_index"":0,""viewing_time"":824.6200000285171},{""page_index"":1,""viewing_time"":1423.7749999738298},{""page_index"":2,""viewing_time"":752.1450000349432}]","3001.025000005029","instructions","212","241793","0.0-18.0","SS1602796859502","","","","","","","","","","","","","","","","",""
"","null","html-keyboard-response","213","242831","0.0-19.0-0.0","SS1602796859502","","null","","","","","","","","","","","","<img src=images/blank.png width =""500"" height = ""500"" style=""border:5px solid black"">","","",""
"","510.04999998258427","stimulus-presentation","214","243552","0.0-19.0-1.0","SS1602796859502","<img src='images/complex/11.png' width ='500' height = '500' style='border:5px solid black'>","40","mixed_simple_deviant","images/complex/9.png","images/complex/11.png","images/simple/14.png,images/simple/3.png,images/simple/17.png,images/simple/2.png,images/simple/1.png,images/simple/7.png,images/simple/18.png","2","null","","200","710.0499999825843","","","","background","",""
"","null","html-keyboard-response","215","244634","0.0-19.0-0.1","SS1602796859502","","null","","","","","","","","","","","","<img src=images/blank.png width =""500"" height = ""500"" style=""border:5px solid black"">","","",""
"","289.9149999720976","stimulus-presentation","216","245134","0.0-19.0-1.1","SS1602796859502","<img src='images/complex/11.png' width ='500' height = '500' style='border:5px solid black'>","40","mixed_simple_deviant","images/complex/9.png","images/complex/11.png","images/simple/14.png,images/simple/3.png,images/simple/17.png,images/simple/2.png,images/simple/1.png,images/simple/7.png,images/simple/18.png","2","null","","200","489.9149999720976","","","","background","",""
"","null","html-keyboard-response","217","246284","0.0-19.0-0.2","SS1602796859502","","null","","","","","","","","","","","","<img src=images/blank.png width =""500"" height = ""500"" style=""border:5px solid black"">","","",""
"","323.3250000048429","stimulus-presentation","218","246821","0.0-19.0-1.2","SS1602796859502","<img src='images/simple/2.png' width ='500' height = '500' style='border:5px solid black'>","40","mixed_simple_deviant","images/complex/9.png","images/complex/11.png","images/simple/14.png,images/simple/3.png,images/simple/17.png,images/simple/2.png,images/simple/1.png,images/simple/7.png,images/simple/18.png","2","null","","200","523.3250000048429","","","","deviant","",""
"","null","html-keyboard-response","219","248098","0.0-19.0-0.3","SS1602796859502","","null","","","","","","","","","","","","<img src=images/blank.png width =""500"" height = ""500"" style=""border:5px solid black"">","","",""
"","1228.7550000473857","stimulus-presentation","220","249540","0.0-19.0-1.3","SS1602796859502","<img src='images/complex/9.png' width ='500' height = '500' style='border:5px solid black'>","40","mixed_simple_deviant","images/complex/9.png","images/complex/11.png","images/simple/14.png,images/simple/3.png,images/simple/17.png,images/simple/2.png,images/simple/1.png,images/simple/7.png,images/simple/18.png","2","null","","200","1428.7550000473857","yes","549.8850000440143","","target","",""
"","null","html-keyboard-response","221","250732","0.0-19.0-0.4","SS1602796859502","","null","","","","","","","","","","","","<img src=images/blank.png width =""500"" height = ""500"" style=""border:5px solid black"">","","",""
"","131.47000002209097","stimulus-presentation","222","251077","0.0-19.0-1.4","SS1602796859502","<img src='images/complex/9.png' width ='500' height = '500' style='border:5px solid black'>","40","mixed_simple_deviant","images/complex/9.png","images/complex/11.png","images/simple/14.png,images/simple/3.png,images/simple/17.png,images/simple/2.png,images/simple/1.png,images/simple/7.png,images/simple/18.png","2","null","","200","331.47000002209097","","","","target","",""
"","null","html-keyboard-response","223","252093","0.0-19.0-0.5","SS1602796859502","","null","","","","","","","","","","","","<img src=images/blank.png width =""500"" height = ""500"" style=""border:5px solid black"">","","",""
"","269.3149999831803","stimulus-presentation","224","252573","0.0-19.0-1.5","SS1602796859502","<img src='images/complex/11.png' width ='500' height = '500' style='border:5px solid black'>","40","mixed_simple_deviant","images/complex/9.png","images/complex/11.png","images/simple/14.png,images/simple/3.png,images/simple/17.png,images/simple/2.png,images/simple/1.png,images/simple/7.png,images/simple/18.png","2","null","","200","469.3149999831803","","","","background","",""
"","null","html-keyboard-response","225","253476","0.0-19.0-0.6","SS1602796859502","","null","","","","","","","","","","","","<img src=images/blank.png width =""500"" height = ""500"" style=""border:5px solid black"">","","",""
"","1315.920000022743","stimulus-presentation","226","255005","0.0-19.0-1.6","SS1602796859502","<img src='images/complex/9.png' width ='500' height = '500' style='border:5px solid black'>","40","mixed_simple_deviant","images/complex/9.png","images/complex/11.png","images/simple/14.png,images/simple/3.png,images/simple/17.png,images/simple/2.png,images/simple/1.png,images/simple/7.png,images/simple/18.png","2","null","","200","1515.920000022743","yes","605.3250000113621","","target","",""
"","null","html-keyboard-response","227","256172","0.0-19.0-0.7","SS1602796859502","","null","","","","","","","","","","","","<img src=images/blank.png width =""500"" height = ""500"" style=""border:5px solid black"">","","",""
"","306.03499995777383","stimulus-presentation","228","256692","0.0-19.0-1.7","SS1602796859502","<img src='images/complex/11.png' width ='500' height = '500' style='border:5px solid black'>","40","mixed_simple_deviant","images/complex/9.png","images/complex/11.png","images/simple/14.png,images/simple/3.png,images/simple/17.png,images/simple/2.png,images/simple/1.png,images/simple/7.png,images/simple/18.png","2","null","","200","506.03499995777383","","","","background","",""
"","null","html-keyboard-response","229","257536","0.0-19.0-0.8","SS1602796859502","","null","","","","","","","","","","","","<img src=images/blank.png width =""500"" height = ""500"" style=""border:5px solid black"">","","",""
"","149.89000000059605","stimulus-presentation","230","257900","0.0-19.0-1.8","SS1602796859502","<img src='images/complex/11.png' width ='500' height = '500' style='border:5px solid black'>","40","mixed_simple_deviant","images/complex/9.png","images/complex/11.png","images/simple/14.png,images/simple/3.png,images/simple/17.png,images/simple/2.png,images/simple/1.png,images/simple/7.png,images/simple/18.png","2","null","","200","349.89000000059605","","","","background","",""
"","null","html-keyboard-response","231","259157","0.0-19.0-0.9","SS1602796859502","","null","","","","","","","","","","","","<img src=images/blank.png width =""500"" height = ""500"" style=""border:5px solid black"">","","",""
"","157.6999999815598","stimulus-presentation","232","259523","0.0-19.0-1.9","SS1602796859502","<img src='images/complex/11.png' width ='500' height = '500' style='border:5px solid black'>","40","mixed_simple_deviant","images/complex/9.png","images/complex/11.png","images/simple/14.png,images/simple/3.png,images/simple/17.png,images/simple/2.png,images/simple/1.png,images/simple/7.png,images/simple/18.png","2","null","","200","357.6999999815598","","","","background","",""
"","null","html-keyboard-response","233","260674","0.0-19.0-0.10","SS1602796859502","","null","","","","","","","","","","","","<img src=images/blank.png width =""500"" height = ""500"" style=""border:5px solid black"">","","",""
"","98.18000002996996","stimulus-presentation","234","260982","0.0-19.0-1.10","SS1602796859502","<img src='images/complex/11.png' width ='500' height = '500' style='border:5px solid black'>","40","mixed_simple_deviant","images/complex/9.png","images/complex/11.png","images/simple/14.png,images/simple/3.png,images/simple/17.png,images/simple/2.png,images/simple/1.png,images/simple/7.png,images/simple/18.png","2","null","","200","298.18000002996996","","","","background","",""
"","null","html-keyboard-response","235","262238","0.0-19.0-0.11","SS1602796859502","","null","","","","","","","","","","","","<img src=images/blank.png width =""500"" height = ""500"" style=""border:5px solid black"">","","",""
"","202.43499998468906","stimulus-presentation","236","262655","0.0-19.0-1.11","SS1602796859502","<img src='images/complex/11.png' width ='500' height = '500' style='border:5px solid black'>","40","mixed_simple_deviant","images/complex/9.png","images/complex/11.png","images/simple/14.png,images/simple/3.png,images/simple/17.png,images/simple/2.png,images/simple/1.png,images/simple/7.png,images/simple/18.png","2","null","","200","402.43499998468906","","","","background","",""
"","null","html-keyboard-response","237","263837","0.0-19.0-0.12","SS1602796859502","","null","","","","","","","","","","","","<img src=images/blank.png width =""500"" height = ""500"" style=""border:5px solid black"">","","",""
"","364.7150000324473","stimulus-presentation","238","264415","0.0-19.0-1.12","SS1602796859502","<img src='images/simple/1.png' width ='500' height = '500' style='border:5px solid black'>","40","mixed_simple_deviant","images/complex/9.png","images/complex/11.png","images/simple/14.png,images/simple/3.png,images/simple/17.png,images/simple/2.png,images/simple/1.png,images/simple/7.png,images/simple/18.png","2","null","","200","564.7150000324473","","","","deviant","",""
"","null","html-keyboard-response","239","265728","0.0-19.0-0.13","SS1602796859502","","null","","","","","","","","","","","","<img src=images/blank.png width =""500"" height = ""500"" style=""border:5px solid black"">","","",""
"","1017.5499999895692","stimulus-presentation","240","266957","0.0-19.0-1.13","SS1602796859502","<img src='images/complex/9.png' width ='500' height = '500' style='border:5px solid black'>","40","mixed_simple_deviant","images/complex/9.png","images/complex/11.png","images/simple/14.png,images/simple/3.png,images/simple/17.png,images/simple/2.png,images/simple/1.png,images/simple/7.png,images/simple/18.png","2","null","","200","1217.5499999895692","yes","338.24499999172986","","target","",""
"","null","html-keyboard-response","241","267814","0.0-19.0-0.14","SS1602796859502","","null","","","","","","","","","","","","<img src=images/blank.png width =""500"" height = ""500"" style=""border:5px solid black"">","","",""
"","415.355000004638","stimulus-presentation","242","268439","0.0-19.0-1.14","SS1602796859502","<img src='images/complex/11.png' width ='500' height = '500' style='border:5px solid black'>","40","mixed_simple_deviant","images/complex/9.png","images/complex/11.png","images/simple/14.png,images/simple/3.png,images/simple/17.png,images/simple/2.png,images/simple/1.png,images/simple/7.png,images/simple/18.png","2","null","","200","615.355000004638","","","","background","",""
"","null","html-keyboard-response","243","269265","0.0-19.0-0.15","SS1602796859502","","null","","","","","","","","","","","","<img src=images/blank.png width =""500"" height = ""500"" style=""border:5px solid black"">","","",""
"","333.57000001706183","stimulus-presentation","244","269812","0.0-19.0-1.15","SS1602796859502","<img src='images/complex/11.png' width ='500' height = '500' style='border:5px solid black'>","40","mixed_simple_deviant","images/complex/9.png","images/complex/11.png","images/simple/14.png,images/simple/3.png,images/simple/17.png,images/simple/2.png,images/simple/1.png,images/simple/7.png,images/simple/18.png","2","null","","200","533.5700000170618","","","","background","",""
"","null","html-keyboard-response","245","270910","0.0-19.0-0.16","SS1602796859502","","null","","","","","","","","","","","","<img src=images/blank.png width =""500"" height = ""500"" style=""border:5px solid black"">","","",""
"","162.4599999631755","stimulus-presentation","246","271286","0.0-19.0-1.16","SS1602796859502","<img src='images/complex/11.png' width ='500' height = '500' style='border:5px solid black'>","40","mixed_simple_deviant","images/complex/9.png","images/complex/11.png","images/simple/14.png,images/simple/3.png,images/simple/17.png,images/simple/2.png,images/simple/1.png,images/simple/7.png,images/simple/18.png","2","null","","200","362.4599999631755","","","","background","",""
"","null","html-keyboard-response","247","272185","0.0-19.0-0.17","SS1602796859502","","null","","","","","","","","","","","","<img src=images/blank.png width =""500"" height = ""500"" style=""border:5px solid black"">","","",""
"","238.40500001097098","stimulus-presentation","248","272638","0.0-19.0-1.17","SS1602796859502","<img src='images/complex/11.png' width ='500' height = '500' style='border:5px solid black'>","40","mixed_simple_deviant","images/complex/9.png","images/complex/11.png","images/simple/14.png,images/simple/3.png,images/simple/17.png,images/simple/2.png,images/simple/1.png,images/simple/7.png,images/simple/18.png","2","null","","200","438.405000010971","","","","background","",""
"","null","html-keyboard-response","249","273833","0.0-19.0-0.18","SS1602796859502","","null","","","","","","","","","","","","<img src=images/blank.png width =""500"" height = ""500"" style=""border:5px solid black"">","","",""
"","1096.4999999850988","stimulus-presentation","250","275143","0.0-19.0-1.18","SS1602796859502","<img src='images/complex/9.png' width ='500' height = '500' style='border:5px solid black'>","40","mixed_simple_deviant","images/complex/9.png","images/complex/11.png","images/simple/14.png,images/simple/3.png,images/simple/17.png,images/simple/2.png,images/simple/1.png,images/simple/7.png,images/simple/18.png","2","null","","200","1296.4999999850988","yes","359.21500000404194","","target","",""
"","null","html-keyboard-response","251","276057","0.0-19.0-0.19","SS1602796859502","","null","","","","","","","","","","","","<img src=images/blank.png width =""500"" height = ""500"" style=""border:5px solid black"">","","",""
"","206.17000001948327","stimulus-presentation","252","276475","0.0-19.0-1.19","SS1602796859502","<img src='images/complex/11.png' width ='500' height = '500' style='border:5px solid black'>","40","mixed_simple_deviant","images/complex/9.png","images/complex/11.png","images/simple/14.png,images/simple/3.png,images/simple/17.png,images/simple/2.png,images/simple/1.png,images/simple/7.png,images/simple/18.png","2","null","","200","406.17000001948327","","","","background","",""
"","null","html-keyboard-response","253","277335","0.0-19.0-0.20","SS1602796859502","","null","","","","","","","","","","","","<img src=images/blank.png width =""500"" height = ""500"" style=""border:5px solid black"">","","",""
"","311.86499999603257","stimulus-presentation","254","277861","0.0-19.0-1.20","SS1602796859502","<img src='images/simple/7.png' width ='500' height = '500' style='border:5px solid black'>","40","mixed_simple_deviant","images/complex/9.png","images/complex/11.png","images/simple/14.png,images/simple/3.png,images/simple/17.png,images/simple/2.png,images/simple/1.png,images/simple/7.png,images/simple/18.png","2","null","","200","511.86499999603257","","","","deviant","",""
"","null","html-keyboard-response","255","278818","0.0-19.0-0.21","SS1602796859502","","null","","","","","","","","","","","","<img src=images/blank.png width =""500"" height = ""500"" style=""border:5px solid black"">","","",""
"","123.40499996207654","stimulus-presentation","256","279152","0.0-19.0-1.21","SS1602796859502","<img src='images/complex/9.png' width ='500' height = '500' style='border:5px solid black'>","40","mixed_simple_deviant","images/complex/9.png","images/complex/11.png","images/simple/14.png,images/simple/3.png,images/simple/17.png,images/simple/2.png,images/simple/1.png,images/simple/7.png,images/simple/18.png","2","null","","200","323.40499996207654","","","","target","",""
"","null","html-keyboard-response","257","280246","0.0-19.0-0.22","SS1602796859502","","null","","","","","","","","","","","","<img src=images/blank.png width =""500"" height = ""500"" style=""border:5px solid black"">","","",""
"","129.36500000068918","stimulus-presentation","258","280590","0.0-19.0-1.22","SS1602796859502","<img src='images/complex/11.png' width ='500' height = '500' style='border:5px solid black'>","40","mixed_simple_deviant","images/complex/9.png","images/complex/11.png","images/simple/14.png,images/simple/3.png,images/simple/17.png,images/simple/2.png,images/simple/1.png,images/simple/7.png,images/simple/18.png","2","null","","200","329.3650000006892","","","","background","",""
"","null","html-keyboard-response","259","281660","0.0-19.0-0.23","SS1602796859502","","null","","","","","","","","","","","","<img src=images/blank.png width =""500"" height = ""500"" style=""border:5px solid black"">","","",""
"","208.05499999551103","stimulus-presentation","260","282078","0.0-19.0-1.23","SS1602796859502","<img src='images/complex/11.png' width ='500' height = '500' style='border:5px solid black'>","40","mixed_simple_deviant","images/complex/9.png","images/complex/11.png","images/simple/14.png,images/simple/3.png,images/simple/17.png,images/simple/2.png,images/simple/1.png,images/simple/7.png,images/simple/18.png","2","null","","200","408.054999995511","","","","background","",""
"","null","html-keyboard-response","261","283165","0.0-19.0-0.24","SS1602796859502","","null","","","","","","","","","","","","<img src=images/blank.png width =""500"" height = ""500"" style=""border:5px solid black"">","","",""
"","1418.9899999764748","stimulus-presentation","262","284798","0.0-19.0-1.24","SS1602796859502","<img src='images/complex/9.png' width ='500' height = '500' style='border:5px solid black'>","40","mixed_simple_deviant","images/complex/9.png","images/complex/11.png","images/simple/14.png,images/simple/3.png,images/simple/17.png,images/simple/2.png,images/simple/1.png,images/simple/7.png,images/simple/18.png","2","null","","200","1618.9899999764748","yes","601.2450000271201","","target","",""
"","null","html-keyboard-response","263","285773","0.0-19.0-0.25","SS1602796859502","","null","","","","","","","","","","","","<img src=images/blank.png width =""500"" height = ""500"" style=""border:5px solid black"">","","",""
"","441.0599999828264","stimulus-presentation","264","286424","0.0-19.0-1.25","SS1602796859502","<img src='images/complex/11.png' width ='500' height = '500' style='border:5px solid black'>","40","mixed_simple_deviant","images/complex/9.png","images/complex/11.png","images/simple/14.png,images/simple/3.png,images/simple/17.png,images/simple/2.png,images/simple/1.png,images/simple/7.png,images/simple/18.png","2","null","","200","641.0599999828264","","","","background","",""
"","null","html-keyboard-response","265","287388","0.0-19.0-0.26","SS1602796859502","","null","","","","","","","","","","","","<img src=images/blank.png width =""500"" height = ""500"" style=""border:5px solid black"">","","",""
"","496.54000002192333","stimulus-presentation","266","288094","0.0-19.0-1.26","SS1602796859502","<img src='images/simple/14.png' width ='500' height = '500' style='border:5px solid black'>","40","mixed_simple_deviant","images/complex/9.png","images/complex/11.png","images/simple/14.png,images/simple/3.png,images/simple/17.png,images/simple/2.png,images/simple/1.png,images/simple/7.png,images/simple/18.png","2","null","","200","696.5400000219233","","","","deviant","",""
"","null","html-keyboard-response","267","289167","0.0-19.0-0.27","SS1602796859502","","null","","","","","","","","","","","","<img src=images/blank.png width =""500"" height = ""500"" style=""border:5px solid black"">","","",""
"","238.42500004684553","stimulus-presentation","268","289617","0.0-19.0-1.27","SS1602796859502","<img src='images/complex/11.png' width ='500' height = '500' style='border:5px solid black'>","40","mixed_simple_deviant","images/complex/9.png","images/complex/11.png","images/simple/14.png,images/simple/3.png,images/simple/17.png,images/simple/2.png,images/simple/1.png,images/simple/7.png,images/simple/18.png","2","null","","200","438.4250000468455","","","","background","",""
"","null","html-keyboard-response","269","290572","0.0-19.0-0.28","SS1602796859502","","null","","","","","","","","","","","","<img src=images/blank.png width =""500"" height = ""500"" style=""border:5px solid black"">","","",""
"","259.3300000298768","stimulus-presentation","270","291046","0.0-19.0-1.28","SS1602796859502","<img src='images/complex/11.png' width ='500' height = '500' style='border:5px solid black'>","40","mixed_simple_deviant","images/complex/9.png","images/complex/11.png","images/simple/14.png,images/simple/3.png,images/simple/17.png,images/simple/2.png,images/simple/1.png,images/simple/7.png,images/simple/18.png","2","null","","200","459.3300000298768","","","","background","",""
"","null","html-keyboard-response","271","292077","0.0-19.0-0.29","SS1602796859502","","null","","","","","","","","","","","","<img src=images/blank.png width =""500"" height = ""500"" style=""border:5px solid black"">","","",""
"","424.7849999810569","stimulus-presentation","272","292717","0.0-19.0-1.29","SS1602796859502","<img src='images/simple/3.png' width ='500' height = '500' style='border:5px solid black'>","40","mixed_simple_deviant","images/complex/9.png","images/complex/11.png","images/simple/14.png,images/simple/3.png,images/simple/17.png,images/simple/2.png,images/simple/1.png,images/simple/7.png,images/simple/18.png","2","null","","200","624.7849999810569","","","","deviant","",""
"","null","html-keyboard-response","273","293692","0.0-19.0-0.30","SS1602796859502","","null","","","","","","","","","","","","<img src=images/blank.png width =""500"" height = ""500"" style=""border:5px solid black"">","","",""
"","165.50999996252358","stimulus-presentation","274","294070","0.0-19.0-1.30","SS1602796859502","<img src='images/complex/11.png' width ='500' height = '500' style='border:5px solid black'>","40","mixed_simple_deviant","images/complex/9.png","images/complex/11.png","images/simple/14.png,images/simple/3.png,images/simple/17.png,images/simple/2.png,images/simple/1.png,images/simple/7.png,images/simple/18.png","2","null","","200","365.5099999625236","","","","background","",""
"","null","html-keyboard-response","275","294953","0.0-19.0-0.31","SS1602796859502","","null","","","","","","","","","","","","<img src=images/blank.png width =""500"" height = ""500"" style=""border:5px solid black"">","","",""
"","142.48999999836087","stimulus-presentation","276","295308","0.0-19.0-1.31","SS1602796859502","<img src='images/complex/11.png' width ='500' height = '500' style='border:5px solid black'>","40","mixed_simple_deviant","images/complex/9.png","images/complex/11.png","images/simple/14.png,images/simple/3.png,images/simple/17.png,images/simple/2.png,images/simple/1.png,images/simple/7.png,images/simple/18.png","2","null","","200","342.4899999983609","","","","background","",""
"","null","html-keyboard-response","277","296547","0.0-19.0-0.32","SS1602796859502","","null","","","","","","","","","","","","<img src=images/blank.png width =""500"" height = ""500"" style=""border:5px solid black"">","","",""
"","125.5900000105612","stimulus-presentation","278","296880","0.0-19.0-1.32","SS1602796859502","<img src='images/complex/11.png' width ='500' height = '500' style='border:5px solid black'>","40","mixed_simple_deviant","images/complex/9.png","images/complex/11.png","images/simple/14.png,images/simple/3.png,images/simple/17.png,images/simple/2.png,images/simple/1.png,images/simple/7.png,images/simple/18.png","2","null","","200","325.5900000105612","","","","background","",""
"","null","html-keyboard-response","279","297814","0.0-19.0-0.33","SS1602796859502","","null","","","","","","","","","","","","<img src=images/blank.png width =""500"" height = ""500"" style=""border:5px solid black"">","","",""
"","123.7649999675341","stimulus-presentation","280","298152","0.0-19.0-1.33","SS1602796859502","<img src='images/complex/11.png' width ='500' height = '500' style='border:5px solid black'>","40","mixed_simple_deviant","images/complex/9.png","images/complex/11.png","images/simple/14.png,images/simple/3.png,images/simple/17.png,images/simple/2.png,images/simple/1.png,images/simple/7.png,images/simple/18.png","2","null","","200","323.7649999675341","","","","background","",""
"","null","html-keyboard-response","281","299373","0.0-19.0-0.34","SS1602796859502","","null","","","","","","","","","","","","<img src=images/blank.png width =""500"" height = ""500"" style=""border:5px solid black"">","","",""
"","114.0599999926053","stimulus-presentation","282","299700","0.0-19.0-1.34","SS1602796859502","<img src='images/complex/11.png' width ='500' height = '500' style='border:5px solid black'>","40","mixed_simple_deviant","images/complex/9.png","images/complex/11.png","images/simple/14.png,images/simple/3.png,images/simple/17.png,images/simple/2.png,images/simple/1.png,images/simple/7.png,images/simple/18.png","2","null","","200","314.0599999926053","","","","background","",""
"","null","html-keyboard-response","283","300525","0.0-19.0-0.35","SS1602796859502","","null","","","","","","","","","","","","<img src=images/blank.png width =""500"" height = ""500"" style=""border:5px solid black"">","","",""
