"view_history","rt","trial_type","trial_index","time_elapsed","internal_node_id","subject","trial_stimulus","key_press","task_type","task_target_stimulus","task_background_stimulus","task_deviant_stimuli","task_order_number","block_order_number","trial_order_number","minimum_viewing_duration","trial_looking_time","trial_pressed_space_bar","trial_space_bar_rt","stimulus","trial_stimulus_type","responses","question_order"
"[{""page_index"":0,""viewing_time"":37130.18999999622},{""page_index"":1,""viewing_time"":991.965000052005},{""page_index"":2,""viewing_time"":479.55499996896833},{""page_index"":3,""viewing_time"":1040.8550000283867},{""page_index"":4,""viewing_time"":431.8349999957718},{""page_index"":5,""viewing_time"":2616.3999999989755},{""page_index"":6,""viewing_time"":407.9749999800697},{""page_index"":7,""viewing_time"":311.6649999865331}]","43411.584999994375","instructions","0","43414","0.0-0.0","SS1602730104581","","","","","","","","","","","","","","","","",""
"[{""page_index"":0,""viewing_time"":907.4900000123307},{""page_index"":1,""viewing_time"":968.1700000073761},{""page_index"":2,""viewing_time"":959.7349999821745}]","2835.865000030026","instructions","1","46253","0.0-1.0","SS1602730104581","","","","","","","","","","","","","","","","",""
"","1885.2000000188127","practice-block","2","48743","0.0-2.0","SS1602730104581","<img src='images/practice/practice_background.jpeg' width ='500' height = '500' style='border:5px solid black'>","40","null","images/practice/practice_target.jpg","null","null","null","null","","600","2485.2000000188127","","","","","",""
"","null","html-keyboard-response","3","49662","0.0-3.0","SS1602730104581","","null","","","","","","","","","","","","<img src=images/blank.png width =""500"" height = ""500"" style=""border:5px solid black"">","","",""
"","179.2049999930896","practice-block","4","50449","0.0-4.0","SS1602730104581","<img src='images/practice/practice_background.jpeg' width ='500' height = '500' style='border:5px solid black'>","40","null","images/practice/practice_target.jpg","null","null","null","null","","600","779.2049999930896","","","","","",""
"","null","html-keyboard-response","5","51720","0.0-5.0","SS1602730104581","","null","","","","","","","","","","","","<img src=images/blank.png width =""500"" height = ""500"" style=""border:5px solid black"">","","",""
"","120.82000001100823","practice-block","6","52449","0.0-6.0","SS1602730104581","<img src='images/practice/practice_deviant.jpeg' width ='500' height = '500' style='border:5px solid black'>","40","null","images/practice/practice_target.jpg","null","null","null","null","","600","720.8200000110082","","","","","",""
"","null","html-keyboard-response","7","53489","0.0-7.0","SS1602730104581","","null","","","","","","","","","","","","<img src=images/blank.png width =""500"" height = ""500"" style=""border:5px solid black"">","","",""
"","226.5750000369735","practice-block","8","56439","0.0-8.0-0.0","SS1602730104581","<img src='images/practice/practice_target.jpg' width ='500' height = '500' style='border:5px solid black'>","40","null","images/practice/practice_target.jpg","null","null","null","null","","600","826.5750000369735","","","","","",""
"","3169.2199999815784","practice-block","9","60214","0.0-8.1-0.1","SS1602730104581","<img src='images/practice/practice_target.jpg' width ='500' height = '500' style='border:5px solid black'>","40","null","images/practice/practice_target.jpg","null","null","null","null","","600","3769.2199999815784","yes","160.7349999831058","","","",""
"","null","html-keyboard-response","10","61321","0.0-9.0","SS1602730104581","","null","","","","","","","","","","","","<img src=images/blank.png width =""500"" height = ""500"" style=""border:5px solid black"">","","",""
"","807.4449999839999","practice-block","11","62736","0.0-10.0","SS1602730104581","<img src='images/practice/practice_background.jpeg' width ='500' height = '500' style='border:5px solid black'>","40","null","images/practice/practice_target.jpg","null","null","null","null","","600","1407.4449999839999","","","","","",""
"[{""page_index"":0,""viewing_time"":1874}]","1875","task-instructions","12","64614","0.0-11.0","SS1602730104581","","","","","","","","","","","","","","","","",""
"[{""page_index"":0,""viewing_time"":2931.825000036042},{""page_index"":1,""viewing_time"":1560.1000000024214},{""page_index"":2,""viewing_time"":864.000000001397}]","5356.414999987464","instructions","13","69974","0.0-12.0","SS1602730104581","","","","","","","","","","","","","","","","",""
"","null","html-keyboard-response","14","71209","0.0-13.0-0.0","SS1602730104581","","null","","","","","","","","","","","","<img src=images/blank.png width =""500"" height = ""500"" style=""border:5px solid black"">","","",""
"","168.729999975767","stimulus-presentation","15","71988","0.0-13.0-1.0","SS1602730104581","<img src='images/complex/111.png' width ='500' height = '500' style='border:5px solid black'>","40","all_complex","images/complex/13.png","images/complex/111.png","images/complex/62.png,images/complex/30.png,images/complex/5.png,images/complex/68.png,images/complex/99.png,images/complex/98.png,images/complex/53.png,images/complex/9.png,images/complex/27.png","0","null","","600","768.729999975767","","","","background","",""
"","null","html-keyboard-response","16","72990","0.0-13.0-0.1","SS1602730104581","","null","","","","","","","","","","","","<img src=images/blank.png width =""500"" height = ""500"" style=""border:5px solid black"">","","",""
"","289.44000002229586","stimulus-presentation","17","73887","0.0-13.0-1.1","SS1602730104581","<img src='images/complex/27.png' width ='500' height = '500' style='border:5px solid black'>","40","all_complex","images/complex/13.png","images/complex/111.png","images/complex/62.png,images/complex/30.png,images/complex/5.png,images/complex/68.png,images/complex/99.png,images/complex/98.png,images/complex/53.png,images/complex/9.png,images/complex/27.png","0","null","","600","889.4400000222959","","","","deviant","",""
"","null","html-keyboard-response","18","75096","0.0-13.0-0.2","SS1602730104581","","null","","","","","","","","","","","","<img src=images/blank.png width =""500"" height = ""500"" style=""border:5px solid black"">","","",""
"","3369.200000015553","stimulus-presentation","19","79073","0.0-13.0-1.2","SS1602730104581","<img src='images/complex/111.png' width ='500' height = '500' style='border:5px solid black'>","40","all_complex","images/complex/13.png","images/complex/111.png","images/complex/62.png,images/complex/30.png,images/complex/5.png,images/complex/68.png,images/complex/99.png,images/complex/98.png,images/complex/53.png,images/complex/9.png,images/complex/27.png","0","null","","600","3969.200000015553","yes","785.730000003241","","background","",""
"","null","html-keyboard-response","20","79952","0.0-13.0-0.3","SS1602730104581","","null","","","","","","","","","","","","<img src=images/blank.png width =""500"" height = ""500"" style=""border:5px solid black"">","","",""
"","307.7000000048429","stimulus-presentation","21","80869","0.0-13.0-1.3","SS1602730104581","<img src='images/complex/111.png' width ='500' height = '500' style='border:5px solid black'>","40","all_complex","images/complex/13.png","images/complex/111.png","images/complex/62.png,images/complex/30.png,images/complex/5.png,images/complex/68.png,images/complex/99.png,images/complex/98.png,images/complex/53.png,images/complex/9.png,images/complex/27.png","0","null","","600","907.7000000048429","","","","background","",""
"","null","html-keyboard-response","22","82004","0.0-13.0-0.4","SS1602730104581","","null","","","","","","","","","","","","<img src=images/blank.png width =""500"" height = ""500"" style=""border:5px solid black"">","","",""
"","252.68500001402572","stimulus-presentation","23","82865","0.0-13.0-1.4","SS1602730104581","<img src='images/complex/5.png' width ='500' height = '500' style='border:5px solid black'>","40","all_complex","images/complex/13.png","images/complex/111.png","images/complex/62.png,images/complex/30.png,images/complex/5.png,images/complex/68.png,images/complex/99.png,images/complex/98.png,images/complex/53.png,images/complex/9.png,images/complex/27.png","0","null","","600","852.6850000140257","","","","deviant","",""
"","null","html-keyboard-response","24","83892","0.0-13.0-0.5","SS1602730104581","","null","","","","","","","","","","","","<img src=images/blank.png width =""500"" height = ""500"" style=""border:5px solid black"">","","",""
"","107.38500003935769","stimulus-presentation","25","84608","0.0-13.0-1.5","SS1602730104581","<img src='images/complex/111.png' width ='500' height = '500' style='border:5px solid black'>","40","all_complex","images/complex/13.png","images/complex/111.png","images/complex/62.png,images/complex/30.png,images/complex/5.png,images/complex/68.png,images/complex/99.png,images/complex/98.png,images/complex/53.png,images/complex/9.png,images/complex/27.png","0","null","","600","707.3850000393577","","","","background","",""
"","null","html-keyboard-response","26","85414","0.0-13.0-0.6","SS1602730104581","","null","","","","","","","","","","","","<img src=images/blank.png width =""500"" height = ""500"" style=""border:5px solid black"">","","",""
"","62.15000001247972","stimulus-presentation","27","86088","0.0-13.0-1.6","SS1602730104581","<img src='images/complex/111.png' width ='500' height = '500' style='border:5px solid black'>","40","all_complex","images/complex/13.png","images/complex/111.png","images/complex/62.png,images/complex/30.png,images/complex/5.png,images/complex/68.png,images/complex/99.png,images/complex/98.png,images/complex/53.png,images/complex/9.png,images/complex/27.png","0","null","","600","662.1500000124797","","","","background","",""
"","null","html-keyboard-response","28","87202","0.0-13.0-0.7","SS1602730104581","","null","","","","","","","","","","","","<img src=images/blank.png width =""500"" height = ""500"" style=""border:5px solid black"">","","",""
"","89.44499999051914","stimulus-presentation","29","87896","0.0-13.0-1.7","SS1602730104581","<img src='images/complex/111.png' width ='500' height = '500' style='border:5px solid black'>","40","all_complex","images/complex/13.png","images/complex/111.png","images/complex/62.png,images/complex/30.png,images/complex/5.png,images/complex/68.png,images/complex/99.png,images/complex/98.png,images/complex/53.png,images/complex/9.png,images/complex/27.png","0","null","","600","689.4449999905191","","","","background","",""
"","null","html-keyboard-response","30","88850","0.0-13.0-0.8","SS1602730104581","","null","","","","","","","","","","","","<img src=images/blank.png width =""500"" height = ""500"" style=""border:5px solid black"">","","",""
"","13.175000029150397","stimulus-presentation","31","89474","0.0-13.0-1.8","SS1602730104581","<img src='images/complex/111.png' width ='500' height = '500' style='border:5px solid black'>","40","all_complex","images/complex/13.png","images/complex/111.png","images/complex/62.png,images/complex/30.png,images/complex/5.png,images/complex/68.png,images/complex/99.png,images/complex/98.png,images/complex/53.png,images/complex/9.png,images/complex/27.png","0","null","","600","613.1750000291504","","","","background","",""
"","null","html-keyboard-response","32","90652","0.0-13.0-0.9","SS1602730104581","","null","","","","","","","","","","","","<img src=images/blank.png width =""500"" height = ""500"" style=""border:5px solid black"">","","",""
"","18.55999999679625","stimulus-presentation","33","91279","0.0-13.0-1.9","SS1602730104581","<img src='images/complex/68.png' width ='500' height = '500' style='border:5px solid black'>","40","all_complex","images/complex/13.png","images/complex/111.png","images/complex/62.png,images/complex/30.png,images/complex/5.png,images/complex/68.png,images/complex/99.png,images/complex/98.png,images/complex/53.png,images/complex/9.png,images/complex/27.png","0","null","","600","618.5599999967963","","","","deviant","",""
"","null","html-keyboard-response","34","92459","0.0-13.0-0.10","SS1602730104581","","null","","","","","","","","","","","","<img src=images/blank.png width =""500"" height = ""500"" style=""border:5px solid black"">","","",""
"","40.99499998847023","stimulus-presentation","35","93107","0.0-13.0-1.10","SS1602730104581","<img src='images/complex/111.png' width ='500' height = '500' style='border:5px solid black'>","40","all_complex","images/complex/13.png","images/complex/111.png","images/complex/62.png,images/complex/30.png,images/complex/5.png,images/complex/68.png,images/complex/99.png,images/complex/98.png,images/complex/53.png,images/complex/9.png,images/complex/27.png","0","null","","600","640.9949999884702","","","","background","",""
"","null","html-keyboard-response","36","93919","0.0-13.0-0.11","SS1602730104581","","null","","","","","","","","","","","","<img src=images/blank.png width =""500"" height = ""500"" style=""border:5px solid black"">","","",""
"","801.8300000112504","stimulus-presentation","37","95329","0.0-13.0-1.11","SS1602730104581","<img src='images/complex/13.png' width ='500' height = '500' style='border:5px solid black'>","40","all_complex","images/complex/13.png","images/complex/111.png","images/complex/62.png,images/complex/30.png,images/complex/5.png,images/complex/68.png,images/complex/99.png,images/complex/98.png,images/complex/53.png,images/complex/9.png,images/complex/27.png","0","null","","600","1401.8300000112504","yes","58.71999997179955","","target","",""
"","null","html-keyboard-response","38","96494","0.0-13.0-0.12","SS1602730104581","","null","","","","","","","","","","","","<img src=images/blank.png width =""500"" height = ""500"" style=""border:5px solid black"">","","",""
"","65.61500002862886","stimulus-presentation","39","97169","0.0-13.0-1.12","SS1602730104581","<img src='images/complex/111.png' width ='500' height = '500' style='border:5px solid black'>","40","all_complex","images/complex/13.png","images/complex/111.png","images/complex/62.png,images/complex/30.png,images/complex/5.png,images/complex/68.png,images/complex/99.png,images/complex/98.png,images/complex/53.png,images/complex/9.png,images/complex/27.png","0","null","","600","665.6150000286289","","","","background","",""
"","null","html-keyboard-response","40","98316","0.0-13.0-0.13","SS1602730104581","","null","","","","","","","","","","","","<img src=images/blank.png width =""500"" height = ""500"" style=""border:5px solid black"">","","",""
"","310.3200000477955","stimulus-presentation","41","99232","0.0-13.0-1.13","SS1602730104581","<img src='images/complex/111.png' width ='500' height = '500' style='border:5px solid black'>","40","all_complex","images/complex/13.png","images/complex/111.png","images/complex/62.png,images/complex/30.png,images/complex/5.png,images/complex/68.png,images/complex/99.png,images/complex/98.png,images/complex/53.png,images/complex/9.png,images/complex/27.png","0","null","","600","910.3200000477955","","","","background","",""
"","null","html-keyboard-response","42","100323","0.0-13.0-0.14","SS1602730104581","","null","","","","","","","","","","","","<img src=images/blank.png width =""500"" height = ""500"" style=""border:5px solid black"">","","",""
"","1100.594999967143","stimulus-presentation","43","102034","0.0-13.0-1.14","SS1602730104581","<img src='images/complex/13.png' width ='500' height = '500' style='border:5px solid black'>","40","all_complex","images/complex/13.png","images/complex/111.png","images/complex/62.png,images/complex/30.png,images/complex/5.png,images/complex/68.png,images/complex/99.png,images/complex/98.png,images/complex/53.png,images/complex/9.png,images/complex/27.png","0","null","","600","1700.594999967143","yes","148.97999999811873","","target","",""
"","null","html-keyboard-response","44","103039","0.0-13.0-0.15","SS1602730104581","","null","","","","","","","","","","","","<img src=images/blank.png width =""500"" height = ""500"" style=""border:5px solid black"">","","",""
"","248.46499995328486","stimulus-presentation","45","103896","0.0-13.0-1.15","SS1602730104581","<img src='images/complex/111.png' width ='500' height = '500' style='border:5px solid black'>","40","all_complex","images/complex/13.png","images/complex/111.png","images/complex/62.png,images/complex/30.png,images/complex/5.png,images/complex/68.png,images/complex/99.png,images/complex/98.png,images/complex/53.png,images/complex/9.png,images/complex/27.png","0","null","","600","848.4649999532849","","","","background","",""
"","null","html-keyboard-response","46","105043","0.0-13.0-0.16","SS1602730104581","","null","","","","","","","","","","","","<img src=images/blank.png width =""500"" height = ""500"" style=""border:5px solid black"">","","",""
"","259.45000001229346","stimulus-presentation","47","105913","0.0-13.0-1.16","SS1602730104581","<img src='images/complex/99.png' width ='500' height = '500' style='border:5px solid black'>","40","all_complex","images/complex/13.png","images/complex/111.png","images/complex/62.png,images/complex/30.png,images/complex/5.png,images/complex/68.png,images/complex/99.png,images/complex/98.png,images/complex/53.png,images/complex/9.png,images/complex/27.png","0","null","","600","859.4500000122935","","","","deviant","",""
"","null","html-keyboard-response","48","107203","0.0-13.0-0.17","SS1602730104581","","null","","","","","","","","","","","","<img src=images/blank.png width =""500"" height = ""500"" style=""border:5px solid black"">","","",""
"","181.99000001186505","stimulus-presentation","49","107995","0.0-13.0-1.17","SS1602730104581","<img src='images/complex/111.png' width ='500' height = '500' style='border:5px solid black'>","40","all_complex","images/complex/13.png","images/complex/111.png","images/complex/62.png,images/complex/30.png,images/complex/5.png,images/complex/68.png,images/complex/99.png,images/complex/98.png,images/complex/53.png,images/complex/9.png,images/complex/27.png","0","null","","600","781.990000011865","","","","background","",""
"","null","html-keyboard-response","50","109240","0.0-13.0-0.18","SS1602730104581","","null","","","","","","","","","","","","<img src=images/blank.png width =""500"" height = ""500"" style=""border:5px solid black"">","","",""
"","1305.1750000449829","stimulus-presentation","51","111150","0.0-13.0-1.18","SS1602730104581","<img src='images/complex/13.png' width ='500' height = '500' style='border:5px solid black'>","40","all_complex","images/complex/13.png","images/complex/111.png","images/complex/62.png,images/complex/30.png,images/complex/5.png,images/complex/68.png,images/complex/99.png,images/complex/98.png,images/complex/53.png,images/complex/9.png,images/complex/27.png","0","null","","600","1905.1750000449829","yes","187.5550000113435","","target","",""
"","null","html-keyboard-response","52","112106","0.0-13.0-0.19","SS1602730104581","","null","","","","","","","","","","","","<img src=images/blank.png width =""500"" height = ""500"" style=""border:5px solid black"">","","",""
"","233.21500001475215","stimulus-presentation","53","112948","0.0-13.0-1.19","SS1602730104581","<img src='images/complex/111.png' width ='500' height = '500' style='border:5px solid black'>","40","all_complex","images/complex/13.png","images/complex/111.png","images/complex/62.png,images/complex/30.png,images/complex/5.png,images/complex/68.png,images/complex/99.png,images/complex/98.png,images/complex/53.png,images/complex/9.png,images/complex/27.png","0","null","","600","833.2150000147521","","","","background","",""
"","null","html-keyboard-response","54","114111","0.0-13.0-0.20","SS1602730104581","","null","","","","","","","","","","","","<img src=images/blank.png width =""500"" height = ""500"" style=""border:5px solid black"">","","",""
"","60.720000008586794","stimulus-presentation","55","114780","0.0-13.0-1.20","SS1602730104581","<img src='images/complex/111.png' width ='500' height = '500' style='border:5px solid black'>","40","all_complex","images/complex/13.png","images/complex/111.png","images/complex/62.png,images/complex/30.png,images/complex/5.png,images/complex/68.png,images/complex/99.png,images/complex/98.png,images/complex/53.png,images/complex/9.png,images/complex/27.png","0","null","","600","660.7200000085868","","","","background","",""
"","null","html-keyboard-response","56","115793","0.0-13.0-0.21","SS1602730104581","","null","","","","","","","","","","","","<img src=images/blank.png width =""500"" height = ""500"" style=""border:5px solid black"">","","",""
"","138.9000000199303","stimulus-presentation","57","116540","0.0-13.0-1.21","SS1602730104581","<img src='images/complex/30.png' width ='500' height = '500' style='border:5px solid black'>","40","all_complex","images/complex/13.png","images/complex/111.png","images/complex/62.png,images/complex/30.png,images/complex/5.png,images/complex/68.png,images/complex/99.png,images/complex/98.png,images/complex/53.png,images/complex/9.png,images/complex/27.png","0","null","","600","738.9000000199303","","","","deviant","",""
"","null","html-keyboard-response","58","117350","0.0-13.0-0.22","SS1602730104581","","null","","","","","","","","","","","","<img src=images/blank.png width =""500"" height = ""500"" style=""border:5px solid black"">","","",""
"","50.18500000005588","stimulus-presentation","59","118010","0.0-13.0-1.22","SS1602730104581","<img src='images/complex/111.png' width ='500' height = '500' style='border:5px solid black'>","40","all_complex","images/complex/13.png","images/complex/111.png","images/complex/62.png,images/complex/30.png,images/complex/5.png,images/complex/68.png,images/complex/99.png,images/complex/98.png,images/complex/53.png,images/complex/9.png,images/complex/27.png","0","null","","600","650.1850000000559","","","","background","",""
"","null","html-keyboard-response","60","119146","0.0-13.0-0.23","SS1602730104581","","null","","","","","","","","","","","","<img src=images/blank.png width =""500"" height = ""500"" style=""border:5px solid black"">","","",""
"","46.15000000922009","stimulus-presentation","61","119801","0.0-13.0-1.23","SS1602730104581","<img src='images/complex/53.png' width ='500' height = '500' style='border:5px solid black'>","40","all_complex","images/complex/13.png","images/complex/111.png","images/complex/62.png,images/complex/30.png,images/complex/5.png,images/complex/68.png,images/complex/99.png,images/complex/98.png,images/complex/53.png,images/complex/9.png,images/complex/27.png","0","null","","600","646.1500000092201","","","","deviant","",""
"","null","html-keyboard-response","62","120746","0.0-13.0-0.24","SS1602730104581","","null","","","","","","","","","","","","<img src=images/blank.png width =""500"" height = ""500"" style=""border:5px solid black"">","","",""
"","191.56000000657514","stimulus-presentation","63","121547","0.0-13.0-1.24","SS1602730104581","<img src='images/complex/111.png' width ='500' height = '500' style='border:5px solid black'>","40","all_complex","images/complex/13.png","images/complex/111.png","images/complex/62.png,images/complex/30.png,images/complex/5.png,images/complex/68.png,images/complex/99.png,images/complex/98.png,images/complex/53.png,images/complex/9.png,images/complex/27.png","0","null","","600","791.5600000065751","","","","background","",""
"","null","html-keyboard-response","64","122438","0.0-13.0-0.25","SS1602730104581","","null","","","","","","","","","","","","<img src=images/blank.png width =""500"" height = ""500"" style=""border:5px solid black"">","","",""
"","1300.9249999886379","stimulus-presentation","65","124346","0.0-13.0-1.25","SS1602730104581","<img src='images/complex/13.png' width ='500' height = '500' style='border:5px solid black'>","40","all_complex","images/complex/13.png","images/complex/111.png","images/complex/62.png,images/complex/30.png,images/complex/5.png,images/complex/68.png,images/complex/99.png,images/complex/98.png,images/complex/53.png,images/complex/9.png,images/complex/27.png","0","null","","600","1900.9249999886379","yes","443.15999996615574","","target","",""
"","null","html-keyboard-response","66","125478","0.0-13.0-0.26","SS1602730104581","","null","","","","","","","","","","","","<img src=images/blank.png width =""500"" height = ""500"" style=""border:5px solid black"">","","",""
"","1021.6650000074878","stimulus-presentation","67","127110","0.0-13.0-1.26","SS1602730104581","<img src='images/complex/13.png' width ='500' height = '500' style='border:5px solid black'>","40","all_complex","images/complex/13.png","images/complex/111.png","images/complex/62.png,images/complex/30.png,images/complex/5.png,images/complex/68.png,images/complex/99.png,images/complex/98.png,images/complex/53.png,images/complex/9.png,images/complex/27.png","0","null","","600","1621.6650000074878","yes","203.3100000116974","","target","",""
"","null","html-keyboard-response","68","128351","0.0-13.0-0.27","SS1602730104581","","null","","","","","","","","","","","","<img src=images/blank.png width =""500"" height = ""500"" style=""border:5px solid black"">","","",""
"","249.16999996639788","stimulus-presentation","69","129210","0.0-13.0-1.27","SS1602730104581","<img src='images/complex/111.png' width ='500' height = '500' style='border:5px solid black'>","40","all_complex","images/complex/13.png","images/complex/111.png","images/complex/62.png,images/complex/30.png,images/complex/5.png,images/complex/68.png,images/complex/99.png,images/complex/98.png,images/complex/53.png,images/complex/9.png,images/complex/27.png","0","null","","600","849.1699999663979","","","","background","",""
"","null","html-keyboard-response","70","130464","0.0-13.0-0.28","SS1602730104581","","null","","","","","","","","","","","","<img src=images/blank.png width =""500"" height = ""500"" style=""border:5px solid black"">","","",""
"","1066.2049999809824","stimulus-presentation","71","132139","0.0-13.0-1.28","SS1602730104581","<img src='images/complex/13.png' width ='500' height = '500' style='border:5px solid black'>","40","all_complex","images/complex/13.png","images/complex/111.png","images/complex/62.png,images/complex/30.png,images/complex/5.png,images/complex/68.png,images/complex/99.png,images/complex/98.png,images/complex/53.png,images/complex/9.png,images/complex/27.png","0","null","","600","1666.2049999809824","yes","177.42499994346872","","target","",""
"","null","html-keyboard-response","72","133104","0.0-13.0-0.29","SS1602730104581","","null","","","","","","","","","","","","<img src=images/blank.png width =""500"" height = ""500"" style=""border:5px solid black"">","","",""
"","41.85999999754131","stimulus-presentation","73","133753","0.0-13.0-1.29","SS1602730104581","<img src='images/complex/111.png' width ='500' height = '500' style='border:5px solid black'>","40","all_complex","images/complex/13.png","images/complex/111.png","images/complex/62.png,images/complex/30.png,images/complex/5.png,images/complex/68.png,images/complex/99.png,images/complex/98.png,images/complex/53.png,images/complex/9.png,images/complex/27.png","0","null","","600","641.8599999975413","","","","background","",""
"","null","html-keyboard-response","74","134602","0.0-13.0-0.30","SS1602730104581","","null","","","","","","","","","","","","<img src=images/blank.png width =""500"" height = ""500"" style=""border:5px solid black"">","","",""
"","297.1350000007078","stimulus-presentation","75","135508","0.0-13.0-1.30","SS1602730104581","<img src='images/complex/111.png' width ='500' height = '500' style='border:5px solid black'>","40","all_complex","images/complex/13.png","images/complex/111.png","images/complex/62.png,images/complex/30.png,images/complex/5.png,images/complex/68.png,images/complex/99.png,images/complex/98.png,images/complex/53.png,images/complex/9.png,images/complex/27.png","0","null","","600","897.1350000007078","","","","background","",""
"","null","html-keyboard-response","76","136604","0.0-13.0-0.31","SS1602730104581","","null","","","","","","","","","","","","<img src=images/blank.png width =""500"" height = ""500"" style=""border:5px solid black"">","","",""
"","137.93500000610948","stimulus-presentation","77","137348","0.0-13.0-1.31","SS1602730104581","<img src='images/complex/111.png' width ='500' height = '500' style='border:5px solid black'>","40","all_complex","images/complex/13.png","images/complex/111.png","images/complex/62.png,images/complex/30.png,images/complex/5.png,images/complex/68.png,images/complex/99.png,images/complex/98.png,images/complex/53.png,images/complex/9.png,images/complex/27.png","0","null","","600","737.9350000061095","","","","background","",""
"","null","html-keyboard-response","78","138426","0.0-13.0-0.32","SS1602730104581","","null","","","","","","","","","","","","<img src=images/blank.png width =""500"" height = ""500"" style=""border:5px solid black"">","","",""
"","145.0450000120327","stimulus-presentation","79","139178","0.0-13.0-1.32","SS1602730104581","<img src='images/complex/111.png' width ='500' height = '500' style='border:5px solid black'>","40","all_complex","images/complex/13.png","images/complex/111.png","images/complex/62.png,images/complex/30.png,images/complex/5.png,images/complex/68.png,images/complex/99.png,images/complex/98.png,images/complex/53.png,images/complex/9.png,images/complex/27.png","0","null","","600","745.0450000120327","","","","background","",""
"","null","html-keyboard-response","80","140138","0.0-13.0-0.33","SS1602730104581","","null","","","","","","","","","","","","<img src=images/blank.png width =""500"" height = ""500"" style=""border:5px solid black"">","","",""
"","150.33999999286607","stimulus-presentation","81","140899","0.0-13.0-1.33","SS1602730104581","<img src='images/complex/111.png' width ='500' height = '500' style='border:5px solid black'>","40","all_complex","images/complex/13.png","images/complex/111.png","images/complex/62.png,images/complex/30.png,images/complex/5.png,images/complex/68.png,images/complex/99.png,images/complex/98.png,images/complex/53.png,images/complex/9.png,images/complex/27.png","0","null","","600","750.3399999928661","","","","background","",""
"","null","html-keyboard-response","82","142164","0.0-13.0-0.34","SS1602730104581","","null","","","","","","","","","","","","<img src=images/blank.png width =""500"" height = ""500"" style=""border:5px solid black"">","","",""
"","350.88500002166256","stimulus-presentation","83","143122","0.0-13.0-1.34","SS1602730104581","<img src='images/complex/111.png' width ='500' height = '500' style='border:5px solid black'>","40","all_complex","images/complex/13.png","images/complex/111.png","images/complex/62.png,images/complex/30.png,images/complex/5.png,images/complex/68.png,images/complex/99.png,images/complex/98.png,images/complex/53.png,images/complex/9.png,images/complex/27.png","0","null","","600","950.8850000216626","","","","background","",""
"","null","html-keyboard-response","84","144371","0.0-13.0-0.35","SS1602730104581","","null","","","","","","","","","","","","<img src=images/blank.png width =""500"" height = ""500"" style=""border:5px solid black"">","","",""
"","226.30500001832843","stimulus-presentation","85","145202","0.0-13.0-1.35","SS1602730104581","<img src='images/complex/111.png' width ='500' height = '500' style='border:5px solid black'>","40","all_complex","images/complex/13.png","images/complex/111.png","images/complex/62.png,images/complex/30.png,images/complex/5.png,images/complex/68.png,images/complex/99.png,images/complex/98.png,images/complex/53.png,images/complex/9.png,images/complex/27.png","0","null","","600","826.3050000183284","","","","background","",""
"","null","html-keyboard-response","86","146187","0.0-13.0-0.36","SS1602730104581","","null","","","","","","","","","","","","<img src=images/blank.png width =""500"" height = ""500"" style=""border:5px solid black"">","","",""
"","391.98499999474734","stimulus-presentation","87","147186","0.0-13.0-1.36","SS1602730104581","<img src='images/complex/111.png' width ='500' height = '500' style='border:5px solid black'>","40","all_complex","images/complex/13.png","images/complex/111.png","images/complex/62.png,images/complex/30.png,images/complex/5.png,images/complex/68.png,images/complex/99.png,images/complex/98.png,images/complex/53.png,images/complex/9.png,images/complex/27.png","0","null","","600","991.9849999947473","","","","background","",""
"","null","html-keyboard-response","88","148232","0.0-13.0-0.37","SS1602730104581","","null","","","","","","","","","","","","<img src=images/blank.png width =""500"" height = ""500"" style=""border:5px solid black"">","","",""
"","1034.2800000216812","stimulus-presentation","89","149874","0.0-13.0-1.37","SS1602730104581","<img src='images/complex/98.png' width ='500' height = '500' style='border:5px solid black'>","40","all_complex","images/complex/13.png","images/complex/111.png","images/complex/62.png,images/complex/30.png,images/complex/5.png,images/complex/68.png,images/complex/99.png,images/complex/98.png,images/complex/53.png,images/complex/9.png,images/complex/27.png","0","null","","600","1634.2800000216812","","","","deviant","",""
"","null","html-keyboard-response","90","150833","0.0-13.0-0.38","SS1602730104581","","null","","","","","","","","","","","","<img src=images/blank.png width =""500"" height = ""500"" style=""border:5px solid black"">","","",""
"","392.57500000530854","stimulus-presentation","91","151833","0.0-13.0-1.38","SS1602730104581","<img src='images/complex/111.png' width ='500' height = '500' style='border:5px solid black'>","40","all_complex","images/complex/13.png","images/complex/111.png","images/complex/62.png,images/complex/30.png,images/complex/5.png,images/complex/68.png,images/complex/99.png,images/complex/98.png,images/complex/53.png,images/complex/9.png,images/complex/27.png","0","null","","600","992.5750000053085","","","","background","",""
"","null","html-keyboard-response","92","152940","0.0-13.0-0.39","SS1602730104581","","null","","","","","","","","","","","","<img src=images/blank.png width =""500"" height = ""500"" style=""border:5px solid black"">","","",""
"","279.63499998440966","stimulus-presentation","93","153826","0.0-13.0-1.39","SS1602730104581","<img src='images/complex/111.png' width ='500' height = '500' style='border:5px solid black'>","40","all_complex","images/complex/13.png","images/complex/111.png","images/complex/62.png,images/complex/30.png,images/complex/5.png,images/complex/68.png,images/complex/99.png,images/complex/98.png,images/complex/53.png,images/complex/9.png,images/complex/27.png","0","null","","600","879.6349999844097","","","","background","",""
"","null","html-keyboard-response","94","154859","0.0-13.0-0.40","SS1602730104581","","null","","","","","","","","","","","","<img src=images/blank.png width =""500"" height = ""500"" style=""border:5px solid black"">","","",""
"","166.5250000078231","stimulus-presentation","95","155634","0.0-13.0-1.40","SS1602730104581","<img src='images/complex/111.png' width ='500' height = '500' style='border:5px solid black'>","40","all_complex","images/complex/13.png","images/complex/111.png","images/complex/62.png,images/complex/30.png,images/complex/5.png,images/complex/68.png,images/complex/99.png,images/complex/98.png,images/complex/53.png,images/complex/9.png,images/complex/27.png","0","null","","600","766.5250000078231","","","","background","",""
"","null","html-keyboard-response","96","156593","0.0-13.0-0.41","SS1602730104581","","null","","","","","","","","","","","","<img src=images/blank.png width =""500"" height = ""500"" style=""border:5px solid black"">","","",""
"","1269.5049999747425","stimulus-presentation","97","158472","0.0-13.0-1.41","SS1602730104581","<img src='images/complex/13.png' width ='500' height = '500' style='border:5px solid black'>","40","all_complex","images/complex/13.png","images/complex/111.png","images/complex/62.png,images/complex/30.png,images/complex/5.png,images/complex/68.png,images/complex/99.png,images/complex/98.png,images/complex/53.png,images/complex/9.png,images/complex/27.png","0","null","","600","1869.5049999747425","yes","471.2650000001304","","target","",""
"","null","html-keyboard-response","98","159305","0.0-13.0-0.42","SS1602730104581","","null","","","","","","","","","","","","<img src=images/blank.png width =""500"" height = ""500"" style=""border:5px solid black"">","","",""
"","69.09999996423721","stimulus-presentation","99","159980","0.0-13.0-1.42","SS1602730104581","<img src='images/complex/111.png' width ='500' height = '500' style='border:5px solid black'>","40","all_complex","images/complex/13.png","images/complex/111.png","images/complex/62.png,images/complex/30.png,images/complex/5.png,images/complex/68.png,images/complex/99.png,images/complex/98.png,images/complex/53.png,images/complex/9.png,images/complex/27.png","0","null","","600","669.0999999642372","","","","background","",""
"","null","html-keyboard-response","100","161003","0.0-13.0-0.43","SS1602730104581","","null","","","","","","","","","","","","<img src=images/blank.png width =""500"" height = ""500"" style=""border:5px solid black"">","","",""
"","93.75","stimulus-presentation","101","161706","0.0-13.0-1.43","SS1602730104581","<img src='images/complex/111.png' width ='500' height = '500' style='border:5px solid black'>","40","all_complex","images/complex/13.png","images/complex/111.png","images/complex/62.png,images/complex/30.png,images/complex/5.png,images/complex/68.png,images/complex/99.png,images/complex/98.png,images/complex/53.png,images/complex/9.png,images/complex/27.png","0","null","","600","693.75","","","","background","",""
"","null","html-keyboard-response","102","162838","0.0-13.0-0.44","SS1602730104581","","null","","","","","","","","","","","","<img src=images/blank.png width =""500"" height = ""500"" style=""border:5px solid black"">","","",""
"","92.46999997412786","stimulus-presentation","103","163539","0.0-13.0-1.44","SS1602730104581","<img src='images/complex/111.png' width ='500' height = '500' style='border:5px solid black'>","40","all_complex","images/complex/13.png","images/complex/111.png","images/complex/62.png,images/complex/30.png,images/complex/5.png,images/complex/68.png,images/complex/99.png,images/complex/98.png,images/complex/53.png,images/complex/9.png,images/complex/27.png","0","null","","600","692.4699999741279","","","","background","",""
"","null","html-keyboard-response","104","164581","0.0-13.0-0.45","SS1602730104581","","null","","","","","","","","","","","","<img src=images/blank.png width =""500"" height = ""500"" style=""border:5px solid black"">","","",""
"","89.21000000555068","stimulus-presentation","105","165282","0.0-13.0-1.45","SS1602730104581","<img src='images/complex/111.png' width ='500' height = '500' style='border:5px solid black'>","40","all_complex","images/complex/13.png","images/complex/111.png","images/complex/62.png,images/complex/30.png,images/complex/5.png,images/complex/68.png,images/complex/99.png,images/complex/98.png,images/complex/53.png,images/complex/9.png,images/complex/27.png","0","null","","600","689.2100000055507","","","","background","",""
"","null","html-keyboard-response","106","166264","0.0-13.0-0.46","SS1602730104581","","null","","","","","","","","","","","","<img src=images/blank.png width =""500"" height = ""500"" style=""border:5px solid black"">","","",""
"","58.009999978821725","stimulus-presentation","107","166931","0.0-13.0-1.46","SS1602730104581","<img src='images/complex/111.png' width ='500' height = '500' style='border:5px solid black'>","40","all_complex","images/complex/13.png","images/complex/111.png","images/complex/62.png,images/complex/30.png,images/complex/5.png,images/complex/68.png,images/complex/99.png,images/complex/98.png,images/complex/53.png,images/complex/9.png,images/complex/27.png","0","null","","600","658.0099999788217","","","","background","",""
"","null","html-keyboard-response","108","167871","0.0-13.0-0.47","SS1602730104581","","null","","","","","","","","","","","","<img src=images/blank.png width =""500"" height = ""500"" style=""border:5px solid black"">","","",""
"","1615.8399999840185","stimulus-presentation","109","170099","0.0-13.0-1.47","SS1602730104581","<img src='images/complex/13.png' width ='500' height = '500' style='border:5px solid black'>","40","all_complex","images/complex/13.png","images/complex/111.png","images/complex/62.png,images/complex/30.png,images/complex/5.png,images/complex/68.png,images/complex/99.png,images/complex/98.png,images/complex/53.png,images/complex/9.png,images/complex/27.png","0","null","","600","2215.8399999840185","yes","597.9550000047311","","target","",""
"","null","html-keyboard-response","110","171203","0.0-13.0-0.48","SS1602730104581","","null","","","","","","","","","","","","<img src=images/blank.png width =""500"" height = ""500"" style=""border:5px solid black"">","","",""
"","842.4849999719299","stimulus-presentation","111","172658","0.0-13.0-1.48","SS1602730104581","<img src='images/complex/62.png' width ='500' height = '500' style='border:5px solid black'>","40","all_complex","images/complex/13.png","images/complex/111.png","images/complex/62.png,images/complex/30.png,images/complex/5.png,images/complex/68.png,images/complex/99.png,images/complex/98.png,images/complex/53.png,images/complex/9.png,images/complex/27.png","0","null","","600","1442.48499997193","","","","deviant","",""
"","null","html-keyboard-response","112","173878","0.0-13.0-0.49","SS1602730104581","","null","","","","","","","","","","","","<img src=images/blank.png width =""500"" height = ""500"" style=""border:5px solid black"">","","",""
"","219.7349999914877","stimulus-presentation","113","174707","0.0-13.0-1.49","SS1602730104581","<img src='images/complex/111.png' width ='500' height = '500' style='border:5px solid black'>","40","all_complex","images/complex/13.png","images/complex/111.png","images/complex/62.png,images/complex/30.png,images/complex/5.png,images/complex/68.png,images/complex/99.png,images/complex/98.png,images/complex/53.png,images/complex/9.png,images/complex/27.png","0","null","","600","819.7349999914877","","","","background","",""
"","null","html-keyboard-response","114","175953","0.0-13.0-0.50","SS1602730104581","","null","","","","","","","","","","","","<img src=images/blank.png width =""500"" height = ""500"" style=""border:5px solid black"">","","",""
"","1445.1349999872036","stimulus-presentation","115","178010","0.0-13.0-1.50","SS1602730104581","<img src='images/complex/13.png' width ='500' height = '500' style='border:5px solid black'>","40","all_complex","images/complex/13.png","images/complex/111.png","images/complex/62.png,images/complex/30.png,images/complex/5.png,images/complex/68.png,images/complex/99.png,images/complex/98.png,images/complex/53.png,images/complex/9.png,images/complex/27.png","0","null","","600","2045.1349999872036","yes","582.1949999663047","","target","",""
"","null","html-keyboard-response","116","178937","0.0-13.0-0.51","SS1602730104581","","null","","","","","","","","","","","","<img src=images/blank.png width =""500"" height = ""500"" style=""border:5px solid black"">","","",""
"","846.1499999975786","stimulus-presentation","117","180392","0.0-13.0-1.51","SS1602730104581","<img src='images/complex/111.png' width ='500' height = '500' style='border:5px solid black'>","40","all_complex","images/complex/13.png","images/complex/111.png","images/complex/62.png,images/complex/30.png,images/complex/5.png,images/complex/68.png,images/complex/99.png,images/complex/98.png,images/complex/53.png,images/complex/9.png,images/complex/27.png","0","null","","600","1446.1499999975786","","","","background","",""
"","null","html-keyboard-response","118","181594","0.0-13.0-0.52","SS1602730104581","","null","","","","","","","","","","","","<img src=images/blank.png width =""500"" height = ""500"" style=""border:5px solid black"">","","",""
"","188.4849999914877","stimulus-presentation","119","182395","0.0-13.0-1.52","SS1602730104581","<img src='images/complex/111.png' width ='500' height = '500' style='border:5px solid black'>","40","all_complex","images/complex/13.png","images/complex/111.png","images/complex/62.png,images/complex/30.png,images/complex/5.png,images/complex/68.png,images/complex/99.png,images/complex/98.png,images/complex/53.png,images/complex/9.png,images/complex/27.png","0","null","","600","788.4849999914877","","","","background","",""
"","null","html-keyboard-response","120","183575","0.0-13.0-0.53","SS1602730104581","","null","","","","","","","","","","","","<img src=images/blank.png width =""500"" height = ""500"" style=""border:5px solid black"">","","",""
"","669.1350000328384","stimulus-presentation","121","184851","0.0-13.0-1.53","SS1602730104581","<img src='images/complex/111.png' width ='500' height = '500' style='border:5px solid black'>","40","all_complex","images/complex/13.png","images/complex/111.png","images/complex/62.png,images/complex/30.png,images/complex/5.png,images/complex/68.png,images/complex/99.png,images/complex/98.png,images/complex/53.png,images/complex/9.png,images/complex/27.png","0","null","","600","1269.1350000328384","","","","background","",""
"","null","html-keyboard-response","122","186005","0.0-13.0-0.54","SS1602730104581","","null","","","","","","","","","","","","<img src=images/blank.png width =""500"" height = ""500"" style=""border:5px solid black"">","","",""
"","1125.2949999761768","stimulus-presentation","123","187739","0.0-13.0-1.54","SS1602730104581","<img src='images/complex/9.png' width ='500' height = '500' style='border:5px solid black'>","40","all_complex","images/complex/13.png","images/complex/111.png","images/complex/62.png,images/complex/30.png,images/complex/5.png,images/complex/68.png,images/complex/99.png,images/complex/98.png,images/complex/53.png,images/complex/9.png,images/complex/27.png","0","null","","600","1725.2949999761768","","","","deviant","",""
"","null","html-keyboard-response","124","188651","0.0-13.0-0.55","SS1602730104581","","null","","","","","","","","","","","","<img src=images/blank.png width =""500"" height = ""500"" style=""border:5px solid black"">","","",""
"","76.47000002907589","stimulus-presentation","125","189337","0.0-13.0-1.55","SS1602730104581","<img src='images/complex/111.png' width ='500' height = '500' style='border:5px solid black'>","40","all_complex","images/complex/13.png","images/complex/111.png","images/complex/62.png,images/complex/30.png,images/complex/5.png,images/complex/68.png,images/complex/99.png,images/complex/98.png,images/complex/53.png,images/complex/9.png,images/complex/27.png","0","null","","600","676.4700000290759","","","","background","",""
"","null","html-keyboard-response","126","190644","0.0-13.0-0.56","SS1602730104581","","null","","","","","","","","","","","","<img src=images/blank.png width =""500"" height = ""500"" style=""border:5px solid black"">","","",""
"","60.66000001737848","stimulus-presentation","127","191316","0.0-13.0-1.56","SS1602730104581","<img src='images/complex/111.png' width ='500' height = '500' style='border:5px solid black'>","40","all_complex","images/complex/13.png","images/complex/111.png","images/complex/62.png,images/complex/30.png,images/complex/5.png,images/complex/68.png,images/complex/99.png,images/complex/98.png,images/complex/53.png,images/complex/9.png,images/complex/27.png","0","null","","600","660.6600000173785","","","","background","",""
"","null","html-keyboard-response","128","192329","0.0-13.0-0.57","SS1602730104581","","null","","","","","","","","","","","","<img src=images/blank.png width =""500"" height = ""500"" style=""border:5px solid black"">","","",""
"","394.09499999601394","stimulus-presentation","129","193331","0.0-13.0-1.57","SS1602730104581","<img src='images/complex/111.png' width ='500' height = '500' style='border:5px solid black'>","40","all_complex","images/complex/13.png","images/complex/111.png","images/complex/62.png,images/complex/30.png,images/complex/5.png,images/complex/68.png,images/complex/99.png,images/complex/98.png,images/complex/53.png,images/complex/9.png,images/complex/27.png","0","null","","600","994.0949999960139","","","","background","",""
"","null","html-keyboard-response","130","194169","0.0-13.0-0.58","SS1602730104581","","null","","","","","","","","","","","","<img src=images/blank.png width =""500"" height = ""500"" style=""border:5px solid black"">","","",""
"","379.2449999600649","stimulus-presentation","131","195155","0.0-13.0-1.58","SS1602730104581","<img src='images/complex/111.png' width ='500' height = '500' style='border:5px solid black'>","40","all_complex","images/complex/13.png","images/complex/111.png","images/complex/62.png,images/complex/30.png,images/complex/5.png,images/complex/68.png,images/complex/99.png,images/complex/98.png,images/complex/53.png,images/complex/9.png,images/complex/27.png","0","null","","600","979.2449999600649","","","","background","",""
"","null","html-keyboard-response","132","196115","0.0-13.0-0.59","SS1602730104581","","null","","","","","","","","","","","","<img src=images/blank.png width =""500"" height = ""500"" style=""border:5px solid black"">","","",""
"","228.1150000053458","stimulus-presentation","133","196955","0.0-13.0-1.59","SS1602730104581","<img src='images/complex/111.png' width ='500' height = '500' style='border:5px solid black'>","40","all_complex","images/complex/13.png","images/complex/111.png","images/complex/62.png,images/complex/30.png,images/complex/5.png,images/complex/68.png,images/complex/99.png,images/complex/98.png,images/complex/53.png,images/complex/9.png,images/complex/27.png","0","null","","600","828.1150000053458","","","","background","",""
"","null","html-keyboard-response","134","198253","0.0-13.0-0.60","SS1602730104581","","null","","","","","","","","","","","","<img src=images/blank.png width =""500"" height = ""500"" style=""border:5px solid black"">","","",""
"","125.85999997099862","stimulus-presentation","135","198989","0.0-13.0-1.60","SS1602730104581","<img src='images/complex/111.png' width ='500' height = '500' style='border:5px solid black'>","40","all_complex","images/complex/13.png","images/complex/111.png","images/complex/62.png,images/complex/30.png,images/complex/5.png,images/complex/68.png,images/complex/99.png,images/complex/98.png,images/complex/53.png,images/complex/9.png,images/complex/27.png","0","null","","600","725.8599999709986","","","","background","",""
"[{""page_index"":0,""viewing_time"":5339}]","5339","task-instructions","136","204332","0.0-14.0","SS1602730104581","","","","","","","","","","","","","","","","",""
"[{""page_index"":0,""viewing_time"":2046.7200000421144},{""page_index"":1,""viewing_time"":3951.795000000857},{""page_index"":2,""viewing_time"":2503.6899999831803}]","8502.625000022817","instructions","137","212838","0.0-15.0","SS1602730104581","","","","","","","","","","","","","","","","",""
"","null","html-keyboard-response","138","213896","0.0-16.0-0.0","SS1602730104581","","null","","","","","","","","","","","","<img src=images/blank.png width =""500"" height = ""500"" style=""border:5px solid black"">","","",""
"","435.29999995371327","stimulus-presentation","139","214940","0.0-16.0-1.0","SS1602730104581","<img src='images/simple/70.png' width ='500' height = '500' style='border:5px solid black'>","40","mixed_complex_deviant","images/simple/68.png","images/simple/70.png","images/complex/72.png,images/complex/8.png,images/complex/42.png,images/complex/19.png,images/complex/112.png,images/complex/77.png,images/complex/63.png,images/complex/87.png,images/complex/85.png","1","null","","600","1035.2999999537133","","","","background","",""
"","null","html-keyboard-response","140","215748","0.0-16.0-0.1","SS1602730104581","","null","","","","","","","","","","","","<img src=images/blank.png width =""500"" height = ""500"" style=""border:5px solid black"">","","",""
"","327.6550000300631","stimulus-presentation","141","216685","0.0-16.0-1.1","SS1602730104581","<img src='images/simple/70.png' width ='500' height = '500' style='border:5px solid black'>","40","mixed_complex_deviant","images/simple/68.png","images/simple/70.png","images/complex/72.png,images/complex/8.png,images/complex/42.png,images/complex/19.png,images/complex/112.png,images/complex/77.png,images/complex/63.png,images/complex/87.png,images/complex/85.png","1","null","","600","927.6550000300631","","","","background","",""
"","null","html-keyboard-response","142","217650","0.0-16.0-0.2","SS1602730104581","","null","","","","","","","","","","","","<img src=images/blank.png width =""500"" height = ""500"" style=""border:5px solid black"">","","",""
"","611.3699999987148","stimulus-presentation","143","218875","0.0-16.0-1.2","SS1602730104581","<img src='images/complex/8.png' width ='500' height = '500' style='border:5px solid black'>","40","mixed_complex_deviant","images/simple/68.png","images/simple/70.png","images/complex/72.png,images/complex/8.png,images/complex/42.png,images/complex/19.png,images/complex/112.png,images/complex/77.png,images/complex/63.png,images/complex/87.png,images/complex/85.png","1","null","","600","1211.3699999987148","yes","67.83000001451","","deviant","",""
"","null","html-keyboard-response","144","219789","0.0-16.0-0.3","SS1602730104581","","null","","","","","","","","","","","","<img src=images/blank.png width =""500"" height = ""500"" style=""border:5px solid black"">","","",""
"","324.71500005340204","stimulus-presentation","145","220722","0.0-16.0-1.3","SS1602730104581","<img src='images/simple/70.png' width ='500' height = '500' style='border:5px solid black'>","40","mixed_complex_deviant","images/simple/68.png","images/simple/70.png","images/complex/72.png,images/complex/8.png,images/complex/42.png,images/complex/19.png,images/complex/112.png,images/complex/77.png,images/complex/63.png,images/complex/87.png,images/complex/85.png","1","null","","600","924.715000053402","","","","background","",""
"","null","html-keyboard-response","146","221997","0.0-16.0-0.4","SS1602730104581","","null","","","","","","","","","","","","<img src=images/blank.png width =""500"" height = ""500"" style=""border:5px solid black"">","","",""
"","61.34999997448176","stimulus-presentation","147","222669","0.0-16.0-1.4","SS1602730104581","<img src='images/simple/70.png' width ='500' height = '500' style='border:5px solid black'>","40","mixed_complex_deviant","images/simple/68.png","images/simple/70.png","images/complex/72.png,images/complex/8.png,images/complex/42.png,images/complex/19.png,images/complex/112.png,images/complex/77.png,images/complex/63.png,images/complex/87.png,images/complex/85.png","1","null","","600","661.3499999744818","","","","background","",""
"","null","html-keyboard-response","148","223692","0.0-16.0-0.5","SS1602730104581","","null","","","","","","","","","","","","<img src=images/blank.png width =""500"" height = ""500"" style=""border:5px solid black"">","","",""
"","99.88499997416511","stimulus-presentation","149","224403","0.0-16.0-1.5","SS1602730104581","<img src='images/simple/70.png' width ='500' height = '500' style='border:5px solid black'>","40","mixed_complex_deviant","images/simple/68.png","images/simple/70.png","images/complex/72.png,images/complex/8.png,images/complex/42.png,images/complex/19.png,images/complex/112.png,images/complex/77.png,images/complex/63.png,images/complex/87.png,images/complex/85.png","1","null","","600","699.8849999741651","","","","background","",""
"","null","html-keyboard-response","150","225319","0.0-16.0-0.6","SS1602730104581","","null","","","","","","","","","","","","<img src=images/blank.png width =""500"" height = ""500"" style=""border:5px solid black"">","","",""
"","189.7599999792874","stimulus-presentation","151","226116","0.0-16.0-1.6","SS1602730104581","<img src='images/simple/68.png' width ='500' height = '500' style='border:5px solid black'>","40","mixed_complex_deviant","images/simple/68.png","images/simple/70.png","images/complex/72.png,images/complex/8.png,images/complex/42.png,images/complex/19.png,images/complex/112.png,images/complex/77.png,images/complex/63.png,images/complex/87.png,images/complex/85.png","1","null","","600","789.7599999792874","","","","target","",""
"","null","html-keyboard-response","152","226989","0.0-16.0-0.7","SS1602730104581","","null","","","","","","","","","","","","<img src=images/blank.png width =""500"" height = ""500"" style=""border:5px solid black"">","","",""
"","91.91499999724329","stimulus-presentation","153","227690","0.0-16.0-1.7","SS1602730104581","<img src='images/simple/68.png' width ='500' height = '500' style='border:5px solid black'>","40","mixed_complex_deviant","images/simple/68.png","images/simple/70.png","images/complex/72.png,images/complex/8.png,images/complex/42.png,images/complex/19.png,images/complex/112.png,images/complex/77.png,images/complex/63.png,images/complex/87.png,images/complex/85.png","1","null","","600","691.9149999972433","","","","target","",""
"","null","html-keyboard-response","154","228941","0.0-16.0-0.8","SS1602730104581","","null","","","","","","","","","","","","<img src=images/blank.png width =""500"" height = ""500"" style=""border:5px solid black"">","","",""
"","100.92499997699633","stimulus-presentation","155","229650","0.0-16.0-1.8","SS1602730104581","<img src='images/complex/42.png' width ='500' height = '500' style='border:5px solid black'>","40","mixed_complex_deviant","images/simple/68.png","images/simple/70.png","images/complex/72.png,images/complex/8.png,images/complex/42.png,images/complex/19.png,images/complex/112.png,images/complex/77.png,images/complex/63.png,images/complex/87.png,images/complex/85.png","1","null","","600","700.9249999769963","","","","deviant","",""
"","null","html-keyboard-response","156","230844","0.0-16.0-0.9","SS1602730104581","","null","","","","","","","","","","","","<img src=images/blank.png width =""500"" height = ""500"" style=""border:5px solid black"">","","",""
"","35.940000030677766","stimulus-presentation","157","231492","0.0-16.0-1.9","SS1602730104581","<img src='images/simple/70.png' width ='500' height = '500' style='border:5px solid black'>","40","mixed_complex_deviant","images/simple/68.png","images/simple/70.png","images/complex/72.png,images/complex/8.png,images/complex/42.png,images/complex/19.png,images/complex/112.png,images/complex/77.png,images/complex/63.png,images/complex/87.png,images/complex/85.png","1","null","","600","635.9400000306778","","","","background","",""
"","null","html-keyboard-response","158","232516","0.0-16.0-0.10","SS1602730104581","","null","","","","","","","","","","","","<img src=images/blank.png width =""500"" height = ""500"" style=""border:5px solid black"">","","",""
"","8.695000025909394","stimulus-presentation","159","233133","0.0-16.0-1.10","SS1602730104581","<img src='images/simple/70.png' width ='500' height = '500' style='border:5px solid black'>","40","mixed_complex_deviant","images/simple/68.png","images/simple/70.png","images/complex/72.png,images/complex/8.png,images/complex/42.png,images/complex/19.png,images/complex/112.png,images/complex/77.png,images/complex/63.png,images/complex/87.png,images/complex/85.png","1","null","","600","608.6950000259094","","","","background","",""
"","null","html-keyboard-response","160","234277","0.0-16.0-0.11","SS1602730104581","","null","","","","","","","","","","","","<img src=images/blank.png width =""500"" height = ""500"" style=""border:5px solid black"">","","",""
"","233.82500000298023","stimulus-presentation","161","235119","0.0-16.0-1.11","SS1602730104581","<img src='images/complex/77.png' width ='500' height = '500' style='border:5px solid black'>","40","mixed_complex_deviant","images/simple/68.png","images/simple/70.png","images/complex/72.png,images/complex/8.png,images/complex/42.png,images/complex/19.png,images/complex/112.png,images/complex/77.png,images/complex/63.png,images/complex/87.png,images/complex/85.png","1","null","","600","833.8250000029802","","","","deviant","",""
"","null","html-keyboard-response","162","236282","0.0-16.0-0.12","SS1602730104581","","null","","","","","","","","","","","","<img src=images/blank.png width =""500"" height = ""500"" style=""border:5px solid black"">","","",""
"","167.1900000073947","stimulus-presentation","163","237061","0.0-16.0-1.12","SS1602730104581","<img src='images/simple/70.png' width ='500' height = '500' style='border:5px solid black'>","40","mixed_complex_deviant","images/simple/68.png","images/simple/70.png","images/complex/72.png,images/complex/8.png,images/complex/42.png,images/complex/19.png,images/complex/112.png,images/complex/77.png,images/complex/63.png,images/complex/87.png,images/complex/85.png","1","null","","600","767.1900000073947","","","","background","",""
"","null","html-keyboard-response","164","237969","0.0-16.0-0.13","SS1602730104581","","null","","","","","","","","","","","","<img src=images/blank.png width =""500"" height = ""500"" style=""border:5px solid black"">","","",""
"","623.1300000217743","stimulus-presentation","165","239199","0.0-16.0-1.13","SS1602730104581","<img src='images/simple/70.png' width ='500' height = '500' style='border:5px solid black'>","40","mixed_complex_deviant","images/simple/68.png","images/simple/70.png","images/complex/72.png,images/complex/8.png,images/complex/42.png,images/complex/19.png,images/complex/112.png,images/complex/77.png,images/complex/63.png,images/complex/87.png,images/complex/85.png","1","null","","600","1223.1300000217743","yes","80.79000003635883","","background","",""
"","null","html-keyboard-response","166","240087","0.0-16.0-0.14","SS1602730104581","","null","","","","","","","","","","","","<img src=images/blank.png width =""500"" height = ""500"" style=""border:5px solid black"">","","",""
"","697.7150000166148","stimulus-presentation","167","241394","0.0-16.0-1.14","SS1602730104581","<img src='images/simple/70.png' width ='500' height = '500' style='border:5px solid black'>","40","mixed_complex_deviant","images/simple/68.png","images/simple/70.png","images/complex/72.png,images/complex/8.png,images/complex/42.png,images/complex/19.png,images/complex/112.png,images/complex/77.png,images/complex/63.png,images/complex/87.png,images/complex/85.png","1","null","","600","1297.7150000166148","yes","169.51999999582767","","background","",""
"","null","html-keyboard-response","168","242518","0.0-16.0-0.15","SS1602730104581","","null","","","","","","","","","","","","<img src=images/blank.png width =""500"" height = ""500"" style=""border:5px solid black"">","","",""
"","42.58999996818602","stimulus-presentation","169","243172","0.0-16.0-1.15","SS1602730104581","<img src='images/simple/70.png' width ='500' height = '500' style='border:5px solid black'>","40","mixed_complex_deviant","images/simple/68.png","images/simple/70.png","images/complex/72.png,images/complex/8.png,images/complex/42.png,images/complex/19.png,images/complex/112.png,images/complex/77.png,images/complex/63.png,images/complex/87.png,images/complex/85.png","1","null","","600","642.589999968186","","","","background","",""
"","null","html-keyboard-response","170","244004","0.0-16.0-0.16","SS1602730104581","","null","","","","","","","","","","","","<img src=images/blank.png width =""500"" height = ""500"" style=""border:5px solid black"">","","",""
"","6.855000043287873","stimulus-presentation","171","244619","0.0-16.0-1.16","SS1602730104581","<img src='images/simple/70.png' width ='500' height = '500' style='border:5px solid black'>","40","mixed_complex_deviant","images/simple/68.png","images/simple/70.png","images/complex/72.png,images/complex/8.png,images/complex/42.png,images/complex/19.png,images/complex/112.png,images/complex/77.png,images/complex/63.png,images/complex/87.png,images/complex/85.png","1","null","","600","606.8550000432879","","","","background","",""
"","null","html-keyboard-response","172","245854","0.0-16.0-0.17","SS1602730104581","","null","","","","","","","","","","","","<img src=images/blank.png width =""500"" height = ""500"" style=""border:5px solid black"">","","",""
"","81.64499996928498","stimulus-presentation","173","246547","0.0-16.0-1.17","SS1602730104581","<img src='images/simple/70.png' width ='500' height = '500' style='border:5px solid black'>","40","mixed_complex_deviant","images/simple/68.png","images/simple/70.png","images/complex/72.png,images/complex/8.png,images/complex/42.png,images/complex/19.png,images/complex/112.png,images/complex/77.png,images/complex/63.png,images/complex/87.png,images/complex/85.png","1","null","","600","681.644999969285","","","","background","",""
"","null","html-keyboard-response","174","247395","0.0-16.0-0.18","SS1602730104581","","null","","","","","","","","","","","","<img src=images/blank.png width =""500"" height = ""500"" style=""border:5px solid black"">","","",""
"","277.79000002192333","stimulus-presentation","175","248281","0.0-16.0-1.18","SS1602730104581","<img src='images/simple/70.png' width ='500' height = '500' style='border:5px solid black'>","40","mixed_complex_deviant","images/simple/68.png","images/simple/70.png","images/complex/72.png,images/complex/8.png,images/complex/42.png,images/complex/19.png,images/complex/112.png,images/complex/77.png,images/complex/63.png,images/complex/87.png,images/complex/85.png","1","null","","600","877.7900000219233","","","","background","",""
"","null","html-keyboard-response","176","249144","0.0-16.0-0.19","SS1602730104581","","null","","","","","","","","","","","","<img src=images/blank.png width =""500"" height = ""500"" style=""border:5px solid black"">","","",""
"","113.03000000771135","stimulus-presentation","177","249866","0.0-16.0-1.19","SS1602730104581","<img src='images/simple/70.png' width ='500' height = '500' style='border:5px solid black'>","40","mixed_complex_deviant","images/simple/68.png","images/simple/70.png","images/complex/72.png,images/complex/8.png,images/complex/42.png,images/complex/19.png,images/complex/112.png,images/complex/77.png,images/complex/63.png,images/complex/87.png,images/complex/85.png","1","null","","600","713.0300000077114","","","","background","",""
"","null","html-keyboard-response","178","250898","0.0-16.0-0.20","SS1602730104581","","null","","","","","","","","","","","","<img src=images/blank.png width =""500"" height = ""500"" style=""border:5px solid black"">","","",""
"","52.62999999104068","stimulus-presentation","179","251563","0.0-16.0-1.20","SS1602730104581","<img src='images/simple/70.png' width ='500' height = '500' style='border:5px solid black'>","40","mixed_complex_deviant","images/simple/68.png","images/simple/70.png","images/complex/72.png,images/complex/8.png,images/complex/42.png,images/complex/19.png,images/complex/112.png,images/complex/77.png,images/complex/63.png,images/complex/87.png,images/complex/85.png","1","null","","600","652.6299999910407","","","","background","",""
"","null","html-keyboard-response","180","252483","0.0-16.0-0.21","SS1602730104581","","null","","","","","","","","","","","","<img src=images/blank.png width =""500"" height = ""500"" style=""border:5px solid black"">","","",""
"","292.7299999864772","stimulus-presentation","181","253388","0.0-16.0-1.21","SS1602730104581","<img src='images/complex/85.png' width ='500' height = '500' style='border:5px solid black'>","40","mixed_complex_deviant","images/simple/68.png","images/simple/70.png","images/complex/72.png,images/complex/8.png,images/complex/42.png,images/complex/19.png,images/complex/112.png,images/complex/77.png,images/complex/63.png,images/complex/87.png,images/complex/85.png","1","null","","600","892.7299999864772","","","","deviant","",""
"","null","html-keyboard-response","182","254206","0.0-16.0-0.22","SS1602730104581","","null","","","","","","","","","","","","<img src=images/blank.png width =""500"" height = ""500"" style=""border:5px solid black"">","","",""
"","136.9449999765493","stimulus-presentation","183","254956","0.0-16.0-1.22","SS1602730104581","<img src='images/simple/70.png' width ='500' height = '500' style='border:5px solid black'>","40","mixed_complex_deviant","images/simple/68.png","images/simple/70.png","images/complex/72.png,images/complex/8.png,images/complex/42.png,images/complex/19.png,images/complex/112.png,images/complex/77.png,images/complex/63.png,images/complex/87.png,images/complex/85.png","1","null","","600","736.9449999765493","","","","background","",""
"","null","html-keyboard-response","184","256217","0.0-16.0-0.23","SS1602730104581","","null","","","","","","","","","","","","<img src=images/blank.png width =""500"" height = ""500"" style=""border:5px solid black"">","","",""
"","65.14000002061948","stimulus-presentation","185","256890","0.0-16.0-1.23","SS1602730104581","<img src='images/simple/70.png' width ='500' height = '500' style='border:5px solid black'>","40","mixed_complex_deviant","images/simple/68.png","images/simple/70.png","images/complex/72.png,images/complex/8.png,images/complex/42.png,images/complex/19.png,images/complex/112.png,images/complex/77.png,images/complex/63.png,images/complex/87.png,images/complex/85.png","1","null","","600","665.1400000206195","","","","background","",""
"","null","html-keyboard-response","186","257810","0.0-16.0-0.24","SS1602730104581","","null","","","","","","","","","","","","<img src=images/blank.png width =""500"" height = ""500"" style=""border:5px solid black"">","","",""
"","191.27000001026317","stimulus-presentation","187","258614","0.0-16.0-1.24","SS1602730104581","<img src='images/simple/70.png' width ='500' height = '500' style='border:5px solid black'>","40","mixed_complex_deviant","images/simple/68.png","images/simple/70.png","images/complex/72.png,images/complex/8.png,images/complex/42.png,images/complex/19.png,images/complex/112.png,images/complex/77.png,images/complex/63.png,images/complex/87.png,images/complex/85.png","1","null","","600","791.2700000102632","","","","background","",""
"","null","html-keyboard-response","188","259662","0.0-16.0-0.25","SS1602730104581","","null","","","","","","","","","","","","<img src=images/blank.png width =""500"" height = ""500"" style=""border:5px solid black"">","","",""
"","166.2849999847822","stimulus-presentation","189","260443","0.0-16.0-1.25","SS1602730104581","<img src='images/simple/68.png' width ='500' height = '500' style='border:5px solid black'>","40","mixed_complex_deviant","images/simple/68.png","images/simple/70.png","images/complex/72.png,images/complex/8.png,images/complex/42.png,images/complex/19.png,images/complex/112.png,images/complex/77.png,images/complex/63.png,images/complex/87.png,images/complex/85.png","1","null","","600","766.2849999847822","","","","target","",""
"","null","html-keyboard-response","190","261654","0.0-16.0-0.26","SS1602730104581","","null","","","","","","","","","","","","<img src=images/blank.png width =""500"" height = ""500"" style=""border:5px solid black"">","","",""
"","90.20999999484047","stimulus-presentation","191","262356","0.0-16.0-1.26","SS1602730104581","<img src='images/simple/70.png' width ='500' height = '500' style='border:5px solid black'>","40","mixed_complex_deviant","images/simple/68.png","images/simple/70.png","images/complex/72.png,images/complex/8.png,images/complex/42.png,images/complex/19.png,images/complex/112.png,images/complex/77.png,images/complex/63.png,images/complex/87.png,images/complex/85.png","1","null","","600","690.2099999948405","","","","background","",""
"","null","html-keyboard-response","192","263213","0.0-16.0-0.27","SS1602730104581","","null","","","","","","","","","","","","<img src=images/blank.png width =""500"" height = ""500"" style=""border:5px solid black"">","","",""
"","699.7750000446104","stimulus-presentation","193","264523","0.0-16.0-1.27","SS1602730104581","<img src='images/complex/63.png' width ='500' height = '500' style='border:5px solid black'>","40","mixed_complex_deviant","images/simple/68.png","images/simple/70.png","images/complex/72.png,images/complex/8.png,images/complex/42.png,images/complex/19.png,images/complex/112.png,images/complex/77.png,images/complex/63.png,images/complex/87.png,images/complex/85.png","1","null","","600","1299.7750000446104","","","","deviant","",""
"","null","html-keyboard-response","194","265344","0.0-16.0-0.28","SS1602730104581","","null","","","","","","","","","","","","<img src=images/blank.png width =""500"" height = ""500"" style=""border:5px solid black"">","","",""
"","11.775000020861626","stimulus-presentation","195","265967","0.0-16.0-1.28","SS1602730104581","<img src='images/simple/70.png' width ='500' height = '500' style='border:5px solid black'>","40","mixed_complex_deviant","images/simple/68.png","images/simple/70.png","images/complex/72.png,images/complex/8.png,images/complex/42.png,images/complex/19.png,images/complex/112.png,images/complex/77.png,images/complex/63.png,images/complex/87.png,images/complex/85.png","1","null","","600","611.7750000208616","","","","background","",""
"","null","html-keyboard-response","196","267212","0.0-16.0-0.29","SS1602730104581","","null","","","","","","","","","","","","<img src=images/blank.png width =""500"" height = ""500"" style=""border:5px solid black"">","","",""
"","305.99000002257526","stimulus-presentation","197","268132","0.0-16.0-1.29","SS1602730104581","<img src='images/simple/70.png' width ='500' height = '500' style='border:5px solid black'>","40","mixed_complex_deviant","images/simple/68.png","images/simple/70.png","images/complex/72.png,images/complex/8.png,images/complex/42.png,images/complex/19.png,images/complex/112.png,images/complex/77.png,images/complex/63.png,images/complex/87.png,images/complex/85.png","1","null","","600","905.9900000225753","","","","background","",""
"","null","html-keyboard-response","198","269084","0.0-16.0-0.30","SS1602730104581","","null","","","","","","","","","","","","<img src=images/blank.png width =""500"" height = ""500"" style=""border:5px solid black"">","","",""
"","16.90499996766448","stimulus-presentation","199","269709","0.0-16.0-1.30","SS1602730104581","<img src='images/simple/70.png' width ='500' height = '500' style='border:5px solid black'>","40","mixed_complex_deviant","images/simple/68.png","images/simple/70.png","images/complex/72.png,images/complex/8.png,images/complex/42.png,images/complex/19.png,images/complex/112.png,images/complex/77.png,images/complex/63.png,images/complex/87.png,images/complex/85.png","1","null","","600","616.9049999676645","","","","background","",""
"","null","html-keyboard-response","200","270556","0.0-16.0-0.31","SS1602730104581","","null","","","","","","","","","","","","<img src=images/blank.png width =""500"" height = ""500"" style=""border:5px solid black"">","","",""
"","535.0099999923259","stimulus-presentation","201","271700","0.0-16.0-1.31","SS1602730104581","<img src='images/complex/87.png' width ='500' height = '500' style='border:5px solid black'>","40","mixed_complex_deviant","images/simple/68.png","images/simple/70.png","images/complex/72.png,images/complex/8.png,images/complex/42.png,images/complex/19.png,images/complex/112.png,images/complex/77.png,images/complex/63.png,images/complex/87.png,images/complex/85.png","1","null","","600","1135.009999992326","","","","deviant","",""
"","null","html-keyboard-response","202","273001","0.0-16.0-0.32","SS1602730104581","","null","","","","","","","","","","","","<img src=images/blank.png width =""500"" height = ""500"" style=""border:5px solid black"">","","",""
"","45.855000033043325","stimulus-presentation","203","273661","0.0-16.0-1.32","SS1602730104581","<img src='images/simple/70.png' width ='500' height = '500' style='border:5px solid black'>","40","mixed_complex_deviant","images/simple/68.png","images/simple/70.png","images/complex/72.png,images/complex/8.png,images/complex/42.png,images/complex/19.png,images/complex/112.png,images/complex/77.png,images/complex/63.png,images/complex/87.png,images/complex/85.png","1","null","","600","645.8550000330433","","","","background","",""
"","null","html-keyboard-response","204","274937","0.0-16.0-0.33","SS1602730104581","","null","","","","","","","","","","","","<img src=images/blank.png width =""500"" height = ""500"" style=""border:5px solid black"">","","",""
"","687.5650000292808","stimulus-presentation","205","276235","0.0-16.0-1.33","SS1602730104581","<img src='images/simple/70.png' width ='500' height = '500' style='border:5px solid black'>","40","mixed_complex_deviant","images/simple/68.png","images/simple/70.png","images/complex/72.png,images/complex/8.png,images/complex/42.png,images/complex/19.png,images/complex/112.png,images/complex/77.png,images/complex/63.png,images/complex/87.png,images/complex/85.png","1","null","","600","1287.5650000292808","","","","background","",""
"","null","html-keyboard-response","206","277198","0.0-16.0-0.34","SS1602730104581","","null","","","","","","","","","","","","<img src=images/blank.png width =""500"" height = ""500"" style=""border:5px solid black"">","","",""
"","171.42999998759478","stimulus-presentation","207","277979","0.0-16.0-1.34","SS1602730104581","<img src='images/simple/70.png' width ='500' height = '500' style='border:5px solid black'>","40","mixed_complex_deviant","images/simple/68.png","images/simple/70.png","images/complex/72.png,images/complex/8.png,images/complex/42.png,images/complex/19.png,images/complex/112.png,images/complex/77.png,images/complex/63.png,images/complex/87.png,images/complex/85.png","1","null","","600","771.4299999875948","","","","background","",""
"","null","html-keyboard-response","208","279069","0.0-16.0-0.35","SS1602730104581","","null","","","","","","","","","","","","<img src=images/blank.png width =""500"" height = ""500"" style=""border:5px solid black"">","","",""
"","880.2750000031665","stimulus-presentation","209","280557","0.0-16.0-1.35","SS1602730104581","<img src='images/complex/19.png' width ='500' height = '500' style='border:5px solid black'>","40","mixed_complex_deviant","images/simple/68.png","images/simple/70.png","images/complex/72.png,images/complex/8.png,images/complex/42.png,images/complex/19.png,images/complex/112.png,images/complex/77.png,images/complex/63.png,images/complex/87.png,images/complex/85.png","1","null","","600","1480.2750000031665","","","","deviant","",""
"","null","html-keyboard-response","210","281668","0.0-16.0-0.36","SS1602730104581","","null","","","","","","","","","","","","<img src=images/blank.png width =""500"" height = ""500"" style=""border:5px solid black"">","","",""
"","74.85500001348555","stimulus-presentation","211","282355","0.0-16.0-1.36","SS1602730104581","<img src='images/simple/68.png' width ='500' height = '500' style='border:5px solid black'>","40","mixed_complex_deviant","images/simple/68.png","images/simple/70.png","images/complex/72.png,images/complex/8.png,images/complex/42.png,images/complex/19.png,images/complex/112.png,images/complex/77.png,images/complex/63.png,images/complex/87.png,images/complex/85.png","1","null","","600","674.8550000134856","","","","target","",""
"","null","html-keyboard-response","212","283209","0.0-16.0-0.37","SS1602730104581","","null","","","","","","","","","","","","<img src=images/blank.png width =""500"" height = ""500"" style=""border:5px solid black"">","","",""
"","368.5549999936484","stimulus-presentation","213","284186","0.0-16.0-1.37","SS1602730104581","<img src='images/simple/70.png' width ='500' height = '500' style='border:5px solid black'>","40","mixed_complex_deviant","images/simple/68.png","images/simple/70.png","images/complex/72.png,images/complex/8.png,images/complex/42.png,images/complex/19.png,images/complex/112.png,images/complex/77.png,images/complex/63.png,images/complex/87.png,images/complex/85.png","1","null","","600","968.5549999936484","","","","background","",""
"","null","html-keyboard-response","214","285198","0.0-16.0-0.38","SS1602730104581","","null","","","","","","","","","","","","<img src=images/blank.png width =""500"" height = ""500"" style=""border:5px solid black"">","","",""
"","153.33499998087063","stimulus-presentation","215","285962","0.0-16.0-1.38","SS1602730104581","<img src='images/simple/70.png' width ='500' height = '500' style='border:5px solid black'>","40","mixed_complex_deviant","images/simple/68.png","images/simple/70.png","images/complex/72.png,images/complex/8.png,images/complex/42.png,images/complex/19.png,images/complex/112.png,images/complex/77.png,images/complex/63.png,images/complex/87.png,images/complex/85.png","1","null","","600","753.3349999808706","","","","background","",""
"","null","html-keyboard-response","216","287246","0.0-16.0-0.39","SS1602730104581","","null","","","","","","","","","","","","<img src=images/blank.png width =""500"" height = ""500"" style=""border:5px solid black"">","","",""
"","105.2800000179559","stimulus-presentation","217","287964","0.0-16.0-1.39","SS1602730104581","<img src='images/simple/70.png' width ='500' height = '500' style='border:5px solid black'>","40","mixed_complex_deviant","images/simple/68.png","images/simple/70.png","images/complex/72.png,images/complex/8.png,images/complex/42.png,images/complex/19.png,images/complex/112.png,images/complex/77.png,images/complex/63.png,images/complex/87.png,images/complex/85.png","1","null","","600","705.2800000179559","","","","background","",""
"","null","html-keyboard-response","218","289177","0.0-16.0-0.40","SS1602730104581","","null","","","","","","","","","","","","<img src=images/blank.png width =""500"" height = ""500"" style=""border:5px solid black"">","","",""
"","44.15500001050532","stimulus-presentation","219","289836","0.0-16.0-1.40","SS1602730104581","<img src='images/simple/70.png' width ='500' height = '500' style='border:5px solid black'>","40","mixed_complex_deviant","images/simple/68.png","images/simple/70.png","images/complex/72.png,images/complex/8.png,images/complex/42.png,images/complex/19.png,images/complex/112.png,images/complex/77.png,images/complex/63.png,images/complex/87.png,images/complex/85.png","1","null","","600","644.1550000105053","","","","background","",""
"","null","html-keyboard-response","220","290926","0.0-16.0-0.41","SS1602730104581","","null","","","","","","","","","","","","<img src=images/blank.png width =""500"" height = ""500"" style=""border:5px solid black"">","","",""
"","180.34500000067055","stimulus-presentation","221","291716","0.0-16.0-1.41","SS1602730104581","<img src='images/simple/70.png' width ='500' height = '500' style='border:5px solid black'>","40","mixed_complex_deviant","images/simple/68.png","images/simple/70.png","images/complex/72.png,images/complex/8.png,images/complex/42.png,images/complex/19.png,images/complex/112.png,images/complex/77.png,images/complex/63.png,images/complex/87.png,images/complex/85.png","1","null","","600","780.3450000006706","","","","background","",""
"","null","html-keyboard-response","222","292962","0.0-16.0-0.42","SS1602730104581","","null","","","","","","","","","","","","<img src=images/blank.png width =""500"" height = ""500"" style=""border:5px solid black"">","","",""
"","118.01500001456589","stimulus-presentation","223","293691","0.0-16.0-1.42","SS1602730104581","<img src='images/simple/70.png' width ='500' height = '500' style='border:5px solid black'>","40","mixed_complex_deviant","images/simple/68.png","images/simple/70.png","images/complex/72.png,images/complex/8.png,images/complex/42.png,images/complex/19.png,images/complex/112.png,images/complex/77.png,images/complex/63.png,images/complex/87.png,images/complex/85.png","1","null","","600","718.0150000145659","","","","background","",""
"","null","html-keyboard-response","224","294916","0.0-16.0-0.43","SS1602730104581","","null","","","","","","","","","","","","<img src=images/blank.png width =""500"" height = ""500"" style=""border:5px solid black"">","","",""
"","130.37000002805144","stimulus-presentation","225","295657","0.0-16.0-1.43","SS1602730104581","<img src='images/simple/70.png' width ='500' height = '500' style='border:5px solid black'>","40","mixed_complex_deviant","images/simple/68.png","images/simple/70.png","images/complex/72.png,images/complex/8.png,images/complex/42.png,images/complex/19.png,images/complex/112.png,images/complex/77.png,images/complex/63.png,images/complex/87.png,images/complex/85.png","1","null","","600","730.3700000280514","","","","background","",""
"","null","html-keyboard-response","226","296804","0.0-16.0-0.44","SS1602730104581","","null","","","","","","","","","","","","<img src=images/blank.png width =""500"" height = ""500"" style=""border:5px solid black"">","","",""
"","144.87499999813735","stimulus-presentation","227","297564","0.0-16.0-1.44","SS1602730104581","<img src='images/simple/70.png' width ='500' height = '500' style='border:5px solid black'>","40","mixed_complex_deviant","images/simple/68.png","images/simple/70.png","images/complex/72.png,images/complex/8.png,images/complex/42.png,images/complex/19.png,images/complex/112.png,images/complex/77.png,images/complex/63.png,images/complex/87.png,images/complex/85.png","1","null","","600","744.8749999981374","","","","background","",""
"","null","html-keyboard-response","228","298430","0.0-16.0-0.45","SS1602730104581","","null","","","","","","","","","","","","<img src=images/blank.png width =""500"" height = ""500"" style=""border:5px solid black"">","","",""
"","200.43999998597428","stimulus-presentation","229","299245","0.0-16.0-1.45","SS1602730104581","<img src='images/complex/112.png' width ='500' height = '500' style='border:5px solid black'>","40","mixed_complex_deviant","images/simple/68.png","images/simple/70.png","images/complex/72.png,images/complex/8.png,images/complex/42.png,images/complex/19.png,images/complex/112.png,images/complex/77.png,images/complex/63.png,images/complex/87.png,images/complex/85.png","1","null","","600","800.4399999859743","","","","deviant","",""
"","null","html-keyboard-response","230","300492","0.0-16.0-0.46","SS1602730104581","","null","","","","","","","","","","","","<img src=images/blank.png width =""500"" height = ""500"" style=""border:5px solid black"">","","",""
"","26.870000001508743","stimulus-presentation","231","301131","0.0-16.0-1.46","SS1602730104581","<img src='images/simple/68.png' width ='500' height = '500' style='border:5px solid black'>","40","mixed_complex_deviant","images/simple/68.png","images/simple/70.png","images/complex/72.png,images/complex/8.png,images/complex/42.png,images/complex/19.png,images/complex/112.png,images/complex/77.png,images/complex/63.png,images/complex/87.png,images/complex/85.png","1","null","","600","626.8700000015087","","","","target","",""
"","null","html-keyboard-response","232","302234","0.0-16.0-0.47","SS1602730104581","","null","","","","","","","","","","","","<img src=images/blank.png width =""500"" height = ""500"" style=""border:5px solid black"">","","",""
"","39.4850000157021","stimulus-presentation","233","302884","0.0-16.0-1.47","SS1602730104581","<img src='images/simple/68.png' width ='500' height = '500' style='border:5px solid black'>","40","mixed_complex_deviant","images/simple/68.png","images/simple/70.png","images/complex/72.png,images/complex/8.png,images/complex/42.png,images/complex/19.png,images/complex/112.png,images/complex/77.png,images/complex/63.png,images/complex/87.png,images/complex/85.png","1","null","","600","639.4850000157021","","","","target","",""
"","null","html-keyboard-response","234","303894","0.0-16.0-0.48","SS1602730104581","","null","","","","","","","","","","","","<img src=images/blank.png width =""500"" height = ""500"" style=""border:5px solid black"">","","",""
"","110.95499998191372","stimulus-presentation","235","304620","0.0-16.0-1.48","SS1602730104581","<img src='images/simple/70.png' width ='500' height = '500' style='border:5px solid black'>","40","mixed_complex_deviant","images/simple/68.png","images/simple/70.png","images/complex/72.png,images/complex/8.png,images/complex/42.png,images/complex/19.png,images/complex/112.png,images/complex/77.png,images/complex/63.png,images/complex/87.png,images/complex/85.png","1","null","","600","710.9549999819137","","","","background","",""
"","null","html-keyboard-response","236","305813","0.0-16.0-0.49","SS1602730104581","","null","","","","","","","","","","","","<img src=images/blank.png width =""500"" height = ""500"" style=""border:5px solid black"">","","",""
"","140.45499998610467","stimulus-presentation","237","306564","0.0-16.0-1.49","SS1602730104581","<img src='images/simple/70.png' width ='500' height = '500' style='border:5px solid black'>","40","mixed_complex_deviant","images/simple/68.png","images/simple/70.png","images/complex/72.png,images/complex/8.png,images/complex/42.png,images/complex/19.png,images/complex/112.png,images/complex/77.png,images/complex/63.png,images/complex/87.png,images/complex/85.png","1","null","","600","740.4549999861047","","","","background","",""
"","null","html-keyboard-response","238","307805","0.0-16.0-0.50","SS1602730104581","","null","","","","","","","","","","","","<img src=images/blank.png width =""500"" height = ""500"" style=""border:5px solid black"">","","",""
"","232.8799999668263","stimulus-presentation","239","308652","0.0-16.0-1.50","SS1602730104581","<img src='images/complex/72.png' width ='500' height = '500' style='border:5px solid black'>","40","mixed_complex_deviant","images/simple/68.png","images/simple/70.png","images/complex/72.png,images/complex/8.png,images/complex/42.png,images/complex/19.png,images/complex/112.png,images/complex/77.png,images/complex/63.png,images/complex/87.png,images/complex/85.png","1","null","","600","832.8799999668263","","","","deviant","",""
"","null","html-keyboard-response","240","309938","0.0-16.0-0.51","SS1602730104581","","null","","","","","","","","","","","","<img src=images/blank.png width =""500"" height = ""500"" style=""border:5px solid black"">","","",""
"","46.99499998241663","stimulus-presentation","241","310596","0.0-16.0-1.51","SS1602730104581","<img src='images/simple/70.png' width ='500' height = '500' style='border:5px solid black'>","40","mixed_complex_deviant","images/simple/68.png","images/simple/70.png","images/complex/72.png,images/complex/8.png,images/complex/42.png,images/complex/19.png,images/complex/112.png,images/complex/77.png,images/complex/63.png,images/complex/87.png,images/complex/85.png","1","null","","600","646.9949999824166","","","","background","",""
"","null","html-keyboard-response","242","311769","0.0-16.0-0.52","SS1602730104581","","null","","","","","","","","","","","","<img src=images/blank.png width =""500"" height = ""500"" style=""border:5px solid black"">","","",""
"","27.334999991580844","stimulus-presentation","243","312411","0.0-16.0-1.52","SS1602730104581","<img src='images/simple/70.png' width ='500' height = '500' style='border:5px solid black'>","40","mixed_complex_deviant","images/simple/68.png","images/simple/70.png","images/complex/72.png,images/complex/8.png,images/complex/42.png,images/complex/19.png,images/complex/112.png,images/complex/77.png,images/complex/63.png,images/complex/87.png,images/complex/85.png","1","null","","600","627.3349999915808","","","","background","",""
"","null","html-keyboard-response","244","313284","0.0-16.0-0.53","SS1602730104581","","null","","","","","","","","","","","","<img src=images/blank.png width =""500"" height = ""500"" style=""border:5px solid black"">","","",""
"","108.53000002680346","stimulus-presentation","245","314005","0.0-16.0-1.53","SS1602730104581","<img src='images/simple/70.png' width ='500' height = '500' style='border:5px solid black'>","40","mixed_complex_deviant","images/simple/68.png","images/simple/70.png","images/complex/72.png,images/complex/8.png,images/complex/42.png,images/complex/19.png,images/complex/112.png,images/complex/77.png,images/complex/63.png,images/complex/87.png,images/complex/85.png","1","null","","600","708.5300000268035","","","","background","",""
"","null","html-keyboard-response","246","315299","0.0-16.0-0.54","SS1602730104581","","null","","","","","","","","","","","","<img src=images/blank.png width =""500"" height = ""500"" style=""border:5px solid black"">","","",""
"","44.855000043753535","stimulus-presentation","247","315955","0.0-16.0-1.54","SS1602730104581","<img src='images/simple/70.png' width ='500' height = '500' style='border:5px solid black'>","40","mixed_complex_deviant","images/simple/68.png","images/simple/70.png","images/complex/72.png,images/complex/8.png,images/complex/42.png,images/complex/19.png,images/complex/112.png,images/complex/77.png,images/complex/63.png,images/complex/87.png,images/complex/85.png","1","null","","600","644.8550000437535","","","","background","",""
"","null","html-keyboard-response","248","316907","0.0-16.0-0.55","SS1602730104581","","null","","","","","","","","","","","","<img src=images/blank.png width =""500"" height = ""500"" style=""border:5px solid black"">","","",""
"","163.20000000996515","stimulus-presentation","249","317683","0.0-16.0-1.55","SS1602730104581","<img src='images/simple/70.png' width ='500' height = '500' style='border:5px solid black'>","40","mixed_complex_deviant","images/simple/68.png","images/simple/70.png","images/complex/72.png,images/complex/8.png,images/complex/42.png,images/complex/19.png,images/complex/112.png,images/complex/77.png,images/complex/63.png,images/complex/87.png,images/complex/85.png","1","null","","600","763.2000000099652","","","","background","",""
"","null","html-keyboard-response","250","318645","0.0-16.0-0.56","SS1602730104581","","null","","","","","","","","","","","","<img src=images/blank.png width =""500"" height = ""500"" style=""border:5px solid black"">","","",""
"","97.07000001799315","stimulus-presentation","251","319356","0.0-16.0-1.56","SS1602730104581","<img src='images/simple/68.png' width ='500' height = '500' style='border:5px solid black'>","40","mixed_complex_deviant","images/simple/68.png","images/simple/70.png","images/complex/72.png,images/complex/8.png,images/complex/42.png,images/complex/19.png,images/complex/112.png,images/complex/77.png,images/complex/63.png,images/complex/87.png,images/complex/85.png","1","null","","600","697.0700000179932","","","","target","",""
"","null","html-keyboard-response","252","320349","0.0-16.0-0.57","SS1602730104581","","null","","","","","","","","","","","","<img src=images/blank.png width =""500"" height = ""500"" style=""border:5px solid black"">","","",""
"","104.70000002533197","stimulus-presentation","253","321067","0.0-16.0-1.57","SS1602730104581","<img src='images/simple/70.png' width ='500' height = '500' style='border:5px solid black'>","40","mixed_complex_deviant","images/simple/68.png","images/simple/70.png","images/complex/72.png,images/complex/8.png,images/complex/42.png,images/complex/19.png,images/complex/112.png,images/complex/77.png,images/complex/63.png,images/complex/87.png,images/complex/85.png","1","null","","600","704.700000025332","","","","background","",""
"","null","html-keyboard-response","254","322149","0.0-16.0-0.58","SS1602730104581","","null","","","","","","","","","","","","<img src=images/blank.png width =""500"" height = ""500"" style=""border:5px solid black"">","","",""
"","77.77999999234453","stimulus-presentation","255","322836","0.0-16.0-1.58","SS1602730104581","<img src='images/simple/68.png' width ='500' height = '500' style='border:5px solid black'>","40","mixed_complex_deviant","images/simple/68.png","images/simple/70.png","images/complex/72.png,images/complex/8.png,images/complex/42.png,images/complex/19.png,images/complex/112.png,images/complex/77.png,images/complex/63.png,images/complex/87.png,images/complex/85.png","1","null","","600","677.7799999923445","","","","target","",""
"","null","html-keyboard-response","256","323757","0.0-16.0-0.59","SS1602730104581","","null","","","","","","","","","","","","<img src=images/blank.png width =""500"" height = ""500"" style=""border:5px solid black"">","","",""
"","21.61499997600913","stimulus-presentation","257","324389","0.0-16.0-1.59","SS1602730104581","<img src='images/simple/68.png' width ='500' height = '500' style='border:5px solid black'>","40","mixed_complex_deviant","images/simple/68.png","images/simple/70.png","images/complex/72.png,images/complex/8.png,images/complex/42.png,images/complex/19.png,images/complex/112.png,images/complex/77.png,images/complex/63.png,images/complex/87.png,images/complex/85.png","1","null","","600","621.6149999760091","","","","target","",""
"","null","html-keyboard-response","258","325244","0.0-16.0-0.60","SS1602730104581","","null","","","","","","","","","","","","<img src=images/blank.png width =""500"" height = ""500"" style=""border:5px solid black"">","","",""
"","48.629999975673854","stimulus-presentation","259","325906","0.0-16.0-1.60","SS1602730104581","<img src='images/simple/70.png' width ='500' height = '500' style='border:5px solid black'>","40","mixed_complex_deviant","images/simple/68.png","images/simple/70.png","images/complex/72.png,images/complex/8.png,images/complex/42.png,images/complex/19.png,images/complex/112.png,images/complex/77.png,images/complex/63.png,images/complex/87.png,images/complex/85.png","1","null","","600","648.6299999756739","","","","background","",""
"[{""page_index"":0,""viewing_time"":2249}]","2250","task-instructions","260","328166","0.0-17.0","SS1602730104581","","","","","","","","","","","","","","","","",""
"[{""page_index"":0,""viewing_time"":1516.7950000031851},{""page_index"":1,""viewing_time"":1225.0800000037998},{""page_index"":2,""viewing_time"":733.3750000107102}]","3475.52999999607","instructions","261","331645","0.0-18.0","SS1602730104581","","","","","","","","","","","","","","","","",""
"","null","html-keyboard-response","262","332857","0.0-19.0-0.0","SS1602730104581","","null","","","","","","","","","","","","<img src=images/blank.png width =""500"" height = ""500"" style=""border:5px solid black"">","","",""
"","105.53499998059124","stimulus-presentation","263","333573","0.0-19.0-1.0","SS1602730104581","<img src='images/simple/39.png' width ='500' height = '500' style='border:5px solid black'>","40","mixed_simple_deviant","images/complex/36.png","images/complex/1.png","images/simple/40.png,images/simple/39.png,images/simple/69.png,images/simple/63.png,images/simple/112.png,images/simple/24.png,images/simple/8.png,images/simple/81.png,images/simple/86.png","2","null","","600","705.5349999805912","","","","deviant","",""
"","null","html-keyboard-response","264","334665","0.0-19.0-0.1","SS1602730104581","","null","","","","","","","","","","","","<img src=images/blank.png width =""500"" height = ""500"" style=""border:5px solid black"">","","",""
"","112.94000002089888","stimulus-presentation","265","335391","0.0-19.0-1.1","SS1602730104581","<img src='images/complex/1.png' width ='500' height = '500' style='border:5px solid black'>","40","mixed_simple_deviant","images/complex/36.png","images/complex/1.png","images/simple/40.png,images/simple/39.png,images/simple/69.png,images/simple/63.png,images/simple/112.png,images/simple/24.png,images/simple/8.png,images/simple/81.png,images/simple/86.png","2","null","","600","712.9400000208989","","","","background","",""
