"view_history","rt","trial_type","trial_index","time_elapsed","internal_node_id","subject","trial_stimulus","key_press","task_type","task_target_stimulus","task_background_stimulus","task_deviant_stimuli","task_order_number","block_order_number","trial_order_number","minimum_viewing_duration","trial_looking_time","trial_pressed_space_bar","trial_space_bar_rt","stimulus","trial_stimulus_type","responses","question_order"
"[{""page_index"":0,""viewing_time"":3869.8549999971874}]","3870.100000000093","instructions","0","3885","0.0-0.0","SS1604514246150","","","","","","","","","","","","","","","","",""
"[{""page_index"":0,""viewing_time"":6938.865000003716},{""page_index"":1,""viewing_time"":1386.8950000032783},{""page_index"":0,""viewing_time"":3100.2100000041537},{""page_index"":1,""viewing_time"":4574.764999997569},{""page_index"":2,""viewing_time"":5134.229999996023},{""page_index"":3,""viewing_time"":5594.805000000633},{""page_index"":4,""viewing_time"":3774.9999999941792},{""page_index"":5,""viewing_time"":5990.970000013476},{""page_index"":6,""viewing_time"":1913.7850000115577},{""page_index"":7,""viewing_time"":6234.6249999827705},{""page_index"":8,""viewing_time"":3129.2799999937415}]","47773.695000010775","instructions","1","51659","0.0-1.0","SS1604514246150","","","","","","","","","","","","","","","","",""
"[{""page_index"":0,""viewing_time"":2377.749999985099},{""page_index"":1,""viewing_time"":4302.155000012135},{""page_index"":2,""viewing_time"":1632.4800000002142}]","8312.644999998156","instructions","2","59973","0.0-2.0","SS1604514246150","","","","","","","","","","","","","","","","",""
"","1265.9250000142492","practice-block","3","61442","0.0-3.0","SS1604514246150","<img src='images/practice/practice_background.jpeg' width ='500' height = '500' style='border:5px solid black'>","40","null","images/practice/practice_target.jpg","null","null","null","null","","200","1465.9250000142492","","","","","",""
"","null","html-keyboard-response","4","62730","0.0-4.0","SS1604514246150","","null","","","","","","","","","","","","<img src=images/blank.png width =""500"" height = ""500"" style=""border:5px solid black"">","","",""
"","366.1900000006426","practice-block","5","63298","0.0-5.0","SS1604514246150","<img src='images/practice/practice_background.jpeg' width ='500' height = '500' style='border:5px solid black'>","40","null","images/practice/practice_target.jpg","null","null","null","null","","200","566.1900000006426","","","","","",""
"","null","html-keyboard-response","6","64308","0.0-6.0","SS1604514246150","","null","","","","","","","","","","","","<img src=images/blank.png width =""500"" height = ""500"" style=""border:5px solid black"">","","",""
"","114.54999999841675","practice-block","7","64624","0.0-7.0","SS1604514246150","<img src='images/practice/practice_deviant.jpeg' width ='500' height = '500' style='border:5px solid black'>","40","null","images/practice/practice_target.jpg","null","null","null","null","","200","314.54999999841675","","","","","",""
"","null","html-keyboard-response","8","65863","0.0-8.0","SS1604514246150","","null","","","","","","","","","","","","<img src=images/blank.png width =""500"" height = ""500"" style=""border:5px solid black"">","","",""
"","2425.5899999989197","practice-block","9","68491","0.0-9.0-0.0","SS1604514246150","<img src='images/practice/practice_target.jpg' width ='500' height = '500' style='border:5px solid black'>","40","null","images/practice/practice_target.jpg","null","null","null","null","","200","2625.5899999989197","yes","199.8850000090897","","","",""
"","null","html-keyboard-response","10","69480","0.0-10.0","SS1604514246150","","null","","","","","","","","","","","","<img src=images/blank.png width =""500"" height = ""500"" style=""border:5px solid black"">","","",""
"","155.35000001545995","practice-block","11","69838","0.0-11.0","SS1604514246150","<img src='images/practice/practice_background.jpeg' width ='500' height = '500' style='border:5px solid black'>","40","null","images/practice/practice_target.jpg","null","null","null","null","","200","355.35000001545995","","","","","",""
"[{""page_index"":0,""viewing_time"":2016}]","2016","task-instructions","12","71855","0.0-12.0","SS1604514246150","","","","","","","","","","","","","","","","",""
"[{""page_index"":0,""viewing_time"":1701.7249999917112},{""page_index"":1,""viewing_time"":4380.035000009229},{""page_index"":2,""viewing_time"":1510.1449999783654}]","7592.074999993201","instructions","13","79448","0.0-13.0","SS1604514246150","","","","","","","","","","","","","","","","",""
"","null","html-keyboard-response","14","80658","0.0-14.0-0.0","SS1604514246150","","null","","","","","","","","","","","","<img src=images/blank.png width =""500"" height = ""500"" style=""border:5px solid black"">","","",""
"","375.19000002066605","stimulus-presentation","15","81235","0.0-14.0-1.0","SS1604514246150","<img src='images/simple/10.png' width ='500' height = '500' style='border:5px solid black'>","40","mixed_complex_deviant","images/simple/15.png","images/simple/10.png","images/complex/3.png,images/complex/13.png,images/complex/4.png,images/complex/14.png,images/complex/2.png,images/complex/17.png,images/complex/15.png","0","null","","200","575.190000020666","","","","background","",""
"","null","html-keyboard-response","16","82512","0.0-14.0-0.1","SS1604514246150","","null","","","","","","","","","","","","<img src=images/blank.png width =""500"" height = ""500"" style=""border:5px solid black"">","","",""
"","139.95000001159497","stimulus-presentation","17","82855","0.0-14.0-1.1","SS1604514246150","<img src='images/complex/2.png' width ='500' height = '500' style='border:5px solid black'>","40","mixed_complex_deviant","images/simple/15.png","images/simple/10.png","images/complex/3.png,images/complex/13.png,images/complex/4.png,images/complex/14.png,images/complex/2.png,images/complex/17.png,images/complex/15.png","0","null","","200","339.95000001159497","","","","deviant","",""
"","null","html-keyboard-response","18","84019","0.0-14.0-0.2","SS1604514246150","","null","","","","","","","","","","","","<img src=images/blank.png width =""500"" height = ""500"" style=""border:5px solid black"">","","",""
"","127.52000000909902","stimulus-presentation","19","84350","0.0-14.0-1.2","SS1604514246150","<img src='images/simple/10.png' width ='500' height = '500' style='border:5px solid black'>","40","mixed_complex_deviant","images/simple/15.png","images/simple/10.png","images/complex/3.png,images/complex/13.png,images/complex/4.png,images/complex/14.png,images/complex/2.png,images/complex/17.png,images/complex/15.png","0","null","","200","327.520000009099","","","","background","",""
"","null","html-keyboard-response","20","85439","0.0-14.0-0.3","SS1604514246150","","null","","","","","","","","","","","","<img src=images/blank.png width =""500"" height = ""500"" style=""border:5px solid black"">","","",""
"","47.91500000283122","stimulus-presentation","21","85689","0.0-14.0-1.3","SS1604514246150","<img src='images/simple/10.png' width ='500' height = '500' style='border:5px solid black'>","40","mixed_complex_deviant","images/simple/15.png","images/simple/10.png","images/complex/3.png,images/complex/13.png,images/complex/4.png,images/complex/14.png,images/complex/2.png,images/complex/17.png,images/complex/15.png","0","null","","200","247.91500000283122","","","","background","",""
"","null","html-keyboard-response","22","86786","0.0-14.0-0.4","SS1604514246150","","null","","","","","","","","","","","","<img src=images/blank.png width =""500"" height = ""500"" style=""border:5px solid black"">","","",""
"","1460.7499999983702","stimulus-presentation","23","88451","0.0-14.0-1.4","SS1604514246150","<img src='images/simple/15.png' width ='500' height = '500' style='border:5px solid black'>","40","mixed_complex_deviant","images/simple/15.png","images/simple/10.png","images/complex/3.png,images/complex/13.png,images/complex/4.png,images/complex/14.png,images/complex/2.png,images/complex/17.png,images/complex/15.png","0","null","","200","1660.7499999983702","yes","261.65499998023733","","target","",""
"","null","html-keyboard-response","24","89733","0.0-14.0-0.5","SS1604514246150","","null","","","","","","","","","","","","<img src=images/blank.png width =""500"" height = ""500"" style=""border:5px solid black"">","","",""
"","1656.810000014957","stimulus-presentation","25","91592","0.0-14.0-1.5","SS1604514246150","<img src='images/simple/15.png' width ='500' height = '500' style='border:5px solid black'>","40","mixed_complex_deviant","images/simple/15.png","images/simple/10.png","images/complex/3.png,images/complex/13.png,images/complex/4.png,images/complex/14.png,images/complex/2.png,images/complex/17.png,images/complex/15.png","0","null","","200","1856.810000014957","yes","959.499999997206","","target","",""
"","null","html-keyboard-response","26","92650","0.0-14.0-0.6","SS1604514246150","","null","","","","","","","","","","","","<img src=images/blank.png width =""500"" height = ""500"" style=""border:5px solid black"">","","",""
"","322.50999999814667","stimulus-presentation","27","93175","0.0-14.0-1.6","SS1604514246150","<img src='images/simple/10.png' width ='500' height = '500' style='border:5px solid black'>","40","mixed_complex_deviant","images/simple/15.png","images/simple/10.png","images/complex/3.png,images/complex/13.png,images/complex/4.png,images/complex/14.png,images/complex/2.png,images/complex/17.png,images/complex/15.png","0","null","","200","522.5099999981467","","","","background","",""
"","null","html-keyboard-response","28","94009","0.0-14.0-0.7","SS1604514246150","","null","","","","","","","","","","","","<img src=images/blank.png width =""500"" height = ""500"" style=""border:5px solid black"">","","",""
"","117.80999999609776","stimulus-presentation","29","94329","0.0-14.0-1.7","SS1604514246150","<img src='images/simple/10.png' width ='500' height = '500' style='border:5px solid black'>","40","mixed_complex_deviant","images/simple/15.png","images/simple/10.png","images/complex/3.png,images/complex/13.png,images/complex/4.png,images/complex/14.png,images/complex/2.png,images/complex/17.png,images/complex/15.png","0","null","","200","317.80999999609776","","","","background","",""
"","null","html-keyboard-response","30","95221","0.0-14.0-0.8","SS1604514246150","","null","","","","","","","","","","","","<img src=images/blank.png width =""500"" height = ""500"" style=""border:5px solid black"">","","",""
"","79.43499999237247","stimulus-presentation","31","95503","0.0-14.0-1.8","SS1604514246150","<img src='images/simple/10.png' width ='500' height = '500' style='border:5px solid black'>","40","mixed_complex_deviant","images/simple/15.png","images/simple/10.png","images/complex/3.png,images/complex/13.png,images/complex/4.png,images/complex/14.png,images/complex/2.png,images/complex/17.png,images/complex/15.png","0","null","","200","279.43499999237247","","","","background","",""
"","null","html-keyboard-response","32","96373","0.0-14.0-0.9","SS1604514246150","","null","","","","","","","","","","","","<img src=images/blank.png width =""500"" height = ""500"" style=""border:5px solid black"">","","",""
"","59.450000000651926","stimulus-presentation","33","96634","0.0-14.0-1.9","SS1604514246150","<img src='images/simple/10.png' width ='500' height = '500' style='border:5px solid black'>","40","mixed_complex_deviant","images/simple/15.png","images/simple/10.png","images/complex/3.png,images/complex/13.png,images/complex/4.png,images/complex/14.png,images/complex/2.png,images/complex/17.png,images/complex/15.png","0","null","","200","259.4500000006519","","","","background","",""
"","null","html-keyboard-response","34","97867","0.0-14.0-0.10","SS1604514246150","","null","","","","","","","","","","","","<img src=images/blank.png width =""500"" height = ""500"" style=""border:5px solid black"">","","",""
"","100.23500001989305","stimulus-presentation","35","98169","0.0-14.0-1.10","SS1604514246150","<img src='images/simple/10.png' width ='500' height = '500' style='border:5px solid black'>","40","mixed_complex_deviant","images/simple/15.png","images/simple/10.png","images/complex/3.png,images/complex/13.png,images/complex/4.png,images/complex/14.png,images/complex/2.png,images/complex/17.png,images/complex/15.png","0","null","","200","300.23500001989305","","","","background","",""
"","null","html-keyboard-response","36","99004","0.0-14.0-0.11","SS1604514246150","","null","","","","","","","","","","","","<img src=images/blank.png width =""500"" height = ""500"" style=""border:5px solid black"">","","",""
"","62.535000004572794","stimulus-presentation","37","99269","0.0-14.0-1.11","SS1604514246150","<img src='images/simple/10.png' width ='500' height = '500' style='border:5px solid black'>","40","mixed_complex_deviant","images/simple/15.png","images/simple/10.png","images/complex/3.png,images/complex/13.png,images/complex/4.png,images/complex/14.png,images/complex/2.png,images/complex/17.png,images/complex/15.png","0","null","","200","262.5350000045728","","","","background","",""
"","null","html-keyboard-response","38","100293","0.0-14.0-0.12","SS1604514246150","","null","","","","","","","","","","","","<img src=images/blank.png width =""500"" height = ""500"" style=""border:5px solid black"">","","",""
"","70.6449999997858","stimulus-presentation","39","100566","0.0-14.0-1.12","SS1604514246150","<img src='images/complex/17.png' width ='500' height = '500' style='border:5px solid black'>","40","mixed_complex_deviant","images/simple/15.png","images/simple/10.png","images/complex/3.png,images/complex/13.png,images/complex/4.png,images/complex/14.png,images/complex/2.png,images/complex/17.png,images/complex/15.png","0","null","","200","270.6449999997858","","","","deviant","",""
"","null","html-keyboard-response","40","101692","0.0-14.0-0.13","SS1604514246150","","null","","","","","","","","","","","","<img src=images/blank.png width =""500"" height = ""500"" style=""border:5px solid black"">","","",""
"","138.0899999930989","stimulus-presentation","41","102032","0.0-14.0-1.13","SS1604514246150","<img src='images/simple/10.png' width ='500' height = '500' style='border:5px solid black'>","40","mixed_complex_deviant","images/simple/15.png","images/simple/10.png","images/complex/3.png,images/complex/13.png,images/complex/4.png,images/complex/14.png,images/complex/2.png,images/complex/17.png,images/complex/15.png","0","null","","200","338.0899999930989","","","","background","",""
"","null","html-keyboard-response","42","103201","0.0-14.0-0.14","SS1604514246150","","null","","","","","","","","","","","","<img src=images/blank.png width =""500"" height = ""500"" style=""border:5px solid black"">","","",""
"","132.6450000051409","stimulus-presentation","43","103535","0.0-14.0-1.14","SS1604514246150","<img src='images/complex/3.png' width ='500' height = '500' style='border:5px solid black'>","40","mixed_complex_deviant","images/simple/15.png","images/simple/10.png","images/complex/3.png,images/complex/13.png,images/complex/4.png,images/complex/14.png,images/complex/2.png,images/complex/17.png,images/complex/15.png","0","null","","200","332.6450000051409","","","","deviant","",""
"","null","html-keyboard-response","44","104462","0.0-14.0-0.15","SS1604514246150","","null","","","","","","","","","","","","<img src=images/blank.png width =""500"" height = ""500"" style=""border:5px solid black"">","","",""
"","83.21499999146909","stimulus-presentation","45","104749","0.0-14.0-1.15","SS1604514246150","<img src='images/simple/10.png' width ='500' height = '500' style='border:5px solid black'>","40","mixed_complex_deviant","images/simple/15.png","images/simple/10.png","images/complex/3.png,images/complex/13.png,images/complex/4.png,images/complex/14.png,images/complex/2.png,images/complex/17.png,images/complex/15.png","0","null","","200","283.2149999914691","","","","background","",""
"","null","html-keyboard-response","46","105598","0.0-14.0-0.16","SS1604514246150","","null","","","","","","","","","","","","<img src=images/blank.png width =""500"" height = ""500"" style=""border:5px solid black"">","","",""
"","71.88999999198131","stimulus-presentation","47","105872","0.0-14.0-1.16","SS1604514246150","<img src='images/simple/10.png' width ='500' height = '500' style='border:5px solid black'>","40","mixed_complex_deviant","images/simple/15.png","images/simple/10.png","images/complex/3.png,images/complex/13.png,images/complex/4.png,images/complex/14.png,images/complex/2.png,images/complex/17.png,images/complex/15.png","0","null","","200","271.8899999919813","","","","background","",""
"","null","html-keyboard-response","48","106707","0.0-14.0-0.17","SS1604514246150","","null","","","","","","","","","","","","<img src=images/blank.png width =""500"" height = ""500"" style=""border:5px solid black"">","","",""
"","1110.2300000202376","stimulus-presentation","49","108019","0.0-14.0-1.17","SS1604514246150","<img src='images/simple/15.png' width ='500' height = '500' style='border:5px solid black'>","40","mixed_complex_deviant","images/simple/15.png","images/simple/10.png","images/complex/3.png,images/complex/13.png,images/complex/4.png,images/complex/14.png,images/complex/2.png,images/complex/17.png,images/complex/15.png","0","null","","200","1310.2300000202376","yes","416.45500002778135","","target","",""
"","null","html-keyboard-response","50","109244","0.0-14.0-0.18","SS1604514246150","","null","","","","","","","","","","","","<img src=images/blank.png width =""500"" height = ""500"" style=""border:5px solid black"">","","",""
"","170.8249999792315","stimulus-presentation","51","109618","0.0-14.0-1.18","SS1604514246150","<img src='images/simple/10.png' width ='500' height = '500' style='border:5px solid black'>","40","mixed_complex_deviant","images/simple/15.png","images/simple/10.png","images/complex/3.png,images/complex/13.png,images/complex/4.png,images/complex/14.png,images/complex/2.png,images/complex/17.png,images/complex/15.png","0","null","","200","370.8249999792315","","","","background","",""
"","null","html-keyboard-response","52","110593","0.0-14.0-0.19","SS1604514246150","","null","","","","","","","","","","","","<img src=images/blank.png width =""500"" height = ""500"" style=""border:5px solid black"">","","",""
"","858.1399999966379","stimulus-presentation","53","111653","0.0-14.0-1.19","SS1604514246150","<img src='images/simple/15.png' width ='500' height = '500' style='border:5px solid black'>","40","mixed_complex_deviant","images/simple/15.png","images/simple/10.png","images/complex/3.png,images/complex/13.png,images/complex/4.png,images/complex/14.png,images/complex/2.png,images/complex/17.png,images/complex/15.png","0","null","","200","1058.139999996638","yes","255.08500001160428","","target","",""
"","null","html-keyboard-response","54","112712","0.0-14.0-0.20","SS1604514246150","","null","","","","","","","","","","","","<img src=images/blank.png width =""500"" height = ""500"" style=""border:5px solid black"">","","",""
"","88.1799999915529","stimulus-presentation","55","113003","0.0-14.0-1.20","SS1604514246150","<img src='images/simple/10.png' width ='500' height = '500' style='border:5px solid black'>","40","mixed_complex_deviant","images/simple/15.png","images/simple/10.png","images/complex/3.png,images/complex/13.png,images/complex/4.png,images/complex/14.png,images/complex/2.png,images/complex/17.png,images/complex/15.png","0","null","","200","288.1799999915529","","","","background","",""
"","null","html-keyboard-response","56","114072","0.0-14.0-0.21","SS1604514246150","","null","","","","","","","","","","","","<img src=images/blank.png width =""500"" height = ""500"" style=""border:5px solid black"">","","",""
"","120.41500001214445","stimulus-presentation","57","114394","0.0-14.0-1.21","SS1604514246150","<img src='images/complex/4.png' width ='500' height = '500' style='border:5px solid black'>","40","mixed_complex_deviant","images/simple/15.png","images/simple/10.png","images/complex/3.png,images/complex/13.png,images/complex/4.png,images/complex/14.png,images/complex/2.png,images/complex/17.png,images/complex/15.png","0","null","","200","320.41500001214445","","","","deviant","",""
"","null","html-keyboard-response","58","115318","0.0-14.0-0.22","SS1604514246150","","null","","","","","","","","","","","","<img src=images/blank.png width =""500"" height = ""500"" style=""border:5px solid black"">","","",""
"","197.61499998276122","stimulus-presentation","59","115718","0.0-14.0-1.22","SS1604514246150","<img src='images/simple/10.png' width ='500' height = '500' style='border:5px solid black'>","40","mixed_complex_deviant","images/simple/15.png","images/simple/10.png","images/complex/3.png,images/complex/13.png,images/complex/4.png,images/complex/14.png,images/complex/2.png,images/complex/17.png,images/complex/15.png","0","null","","200","397.6149999827612","","","","background","",""
"","null","html-keyboard-response","60","116770","0.0-14.0-0.23","SS1604514246150","","null","","","","","","","","","","","","<img src=images/blank.png width =""500"" height = ""500"" style=""border:5px solid black"">","","",""
"","120.93499998445623","stimulus-presentation","61","117092","0.0-14.0-1.23","SS1604514246150","<img src='images/simple/10.png' width ='500' height = '500' style='border:5px solid black'>","40","mixed_complex_deviant","images/simple/15.png","images/simple/10.png","images/complex/3.png,images/complex/13.png,images/complex/4.png,images/complex/14.png,images/complex/2.png,images/complex/17.png,images/complex/15.png","0","null","","200","320.9349999844562","","","","background","",""
"","null","html-keyboard-response","62","117966","0.0-14.0-0.24","SS1604514246150","","null","","","","","","","","","","","","<img src=images/blank.png width =""500"" height = ""500"" style=""border:5px solid black"">","","",""
"","1287.9700000048615","stimulus-presentation","63","119456","0.0-14.0-1.24","SS1604514246150","<img src='images/simple/15.png' width ='500' height = '500' style='border:5px solid black'>","40","mixed_complex_deviant","images/simple/15.png","images/simple/10.png","images/complex/3.png,images/complex/13.png,images/complex/4.png,images/complex/14.png,images/complex/2.png,images/complex/17.png,images/complex/15.png","0","null","","200","1487.9700000048615","yes","324.8549999843817","","target","",""
"","null","html-keyboard-response","64","120518","0.0-14.0-0.25","SS1604514246150","","null","","","","","","","","","","","","<img src=images/blank.png width =""500"" height = ""500"" style=""border:5px solid black"">","","",""
"","327.5149999826681","stimulus-presentation","65","121048","0.0-14.0-1.25","SS1604514246150","<img src='images/simple/10.png' width ='500' height = '500' style='border:5px solid black'>","40","mixed_complex_deviant","images/simple/15.png","images/simple/10.png","images/complex/3.png,images/complex/13.png,images/complex/4.png,images/complex/14.png,images/complex/2.png,images/complex/17.png,images/complex/15.png","0","null","","200","527.5149999826681","","","","background","",""
"","null","html-keyboard-response","66","122032","0.0-14.0-0.26","SS1604514246150","","null","","","","","","","","","","","","<img src=images/blank.png width =""500"" height = ""500"" style=""border:5px solid black"">","","",""
"","156.19000000879169","stimulus-presentation","67","122390","0.0-14.0-1.26","SS1604514246150","<img src='images/simple/10.png' width ='500' height = '500' style='border:5px solid black'>","40","mixed_complex_deviant","images/simple/15.png","images/simple/10.png","images/complex/3.png,images/complex/13.png,images/complex/4.png,images/complex/14.png,images/complex/2.png,images/complex/17.png,images/complex/15.png","0","null","","200","356.1900000087917","","","","background","",""
"","null","html-keyboard-response","68","123315","0.0-14.0-0.27","SS1604514246150","","null","","","","","","","","","","","","<img src=images/blank.png width =""500"" height = ""500"" style=""border:5px solid black"">","","",""
"","143.1250000023283","stimulus-presentation","69","123661","0.0-14.0-1.27","SS1604514246150","<img src='images/simple/10.png' width ='500' height = '500' style='border:5px solid black'>","40","mixed_complex_deviant","images/simple/15.png","images/simple/10.png","images/complex/3.png,images/complex/13.png,images/complex/4.png,images/complex/14.png,images/complex/2.png,images/complex/17.png,images/complex/15.png","0","null","","200","343.1250000023283","","","","background","",""
"","null","html-keyboard-response","70","124672","0.0-14.0-0.28","SS1604514246150","","null","","","","","","","","","","","","<img src=images/blank.png width =""500"" height = ""500"" style=""border:5px solid black"">","","",""
"","168.43999997945502","stimulus-presentation","71","125043","0.0-14.0-1.28","SS1604514246150","<img src='images/simple/10.png' width ='500' height = '500' style='border:5px solid black'>","40","mixed_complex_deviant","images/simple/15.png","images/simple/10.png","images/complex/3.png,images/complex/13.png,images/complex/4.png,images/complex/14.png,images/complex/2.png,images/complex/17.png,images/complex/15.png","0","null","","200","368.439999979455","","","","background","",""
"","null","html-keyboard-response","72","126220","0.0-14.0-0.29","SS1604514246150","","null","","","","","","","","","","","","<img src=images/blank.png width =""500"" height = ""500"" style=""border:5px solid black"">","","",""
"","679.6850000100676","stimulus-presentation","73","127103","0.0-14.0-1.29","SS1604514246150","<img src='images/complex/14.png' width ='500' height = '500' style='border:5px solid black'>","40","mixed_complex_deviant","images/simple/15.png","images/simple/10.png","images/complex/3.png,images/complex/13.png,images/complex/4.png,images/complex/14.png,images/complex/2.png,images/complex/17.png,images/complex/15.png","0","null","","200","879.6850000100676","","","","deviant","",""
"","null","html-keyboard-response","74","128359","0.0-14.0-0.30","SS1604514246150","","null","","","","","","","","","","","","<img src=images/blank.png width =""500"" height = ""500"" style=""border:5px solid black"">","","",""
"","206.44500001799315","stimulus-presentation","75","128768","0.0-14.0-1.30","SS1604514246150","<img src='images/simple/10.png' width ='500' height = '500' style='border:5px solid black'>","40","mixed_complex_deviant","images/simple/15.png","images/simple/10.png","images/complex/3.png,images/complex/13.png,images/complex/4.png,images/complex/14.png,images/complex/2.png,images/complex/17.png,images/complex/15.png","0","null","","200","406.44500001799315","","","","background","",""
"","null","html-keyboard-response","76","130021","0.0-14.0-0.31","SS1604514246150","","null","","","","","","","","","","","","<img src=images/blank.png width =""500"" height = ""500"" style=""border:5px solid black"">","","",""
"","123.71000001439825","stimulus-presentation","77","130348","0.0-14.0-1.31","SS1604514246150","<img src='images/simple/10.png' width ='500' height = '500' style='border:5px solid black'>","40","mixed_complex_deviant","images/simple/15.png","images/simple/10.png","images/complex/3.png,images/complex/13.png,images/complex/4.png,images/complex/14.png,images/complex/2.png,images/complex/17.png,images/complex/15.png","0","null","","200","323.71000001439825","","","","background","",""
"","null","html-keyboard-response","78","131511","0.0-14.0-0.32","SS1604514246150","","null","","","","","","","","","","","","<img src=images/blank.png width =""500"" height = ""500"" style=""border:5px solid black"">","","",""
"","160.3400000021793","stimulus-presentation","79","131873","0.0-14.0-1.32","SS1604514246150","<img src='images/simple/10.png' width ='500' height = '500' style='border:5px solid black'>","40","mixed_complex_deviant","images/simple/15.png","images/simple/10.png","images/complex/3.png,images/complex/13.png,images/complex/4.png,images/complex/14.png,images/complex/2.png,images/complex/17.png,images/complex/15.png","0","null","","200","360.3400000021793","","","","background","",""
"","null","html-keyboard-response","80","132950","0.0-14.0-0.33","SS1604514246150","","null","","","","","","","","","","","","<img src=images/blank.png width =""500"" height = ""500"" style=""border:5px solid black"">","","",""
"","796.2750000006054","stimulus-presentation","81","133948","0.0-14.0-1.33","SS1604514246150","<img src='images/complex/13.png' width ='500' height = '500' style='border:5px solid black'>","40","mixed_complex_deviant","images/simple/15.png","images/simple/10.png","images/complex/3.png,images/complex/13.png,images/complex/4.png,images/complex/14.png,images/complex/2.png,images/complex/17.png,images/complex/15.png","0","null","","200","996.2750000006054","","","","deviant","",""
"","null","html-keyboard-response","82","134894","0.0-14.0-0.34","SS1604514246150","","null","","","","","","","","","","","","<img src=images/blank.png width =""500"" height = ""500"" style=""border:5px solid black"">","","",""
"","116.71999999089167","stimulus-presentation","83","135214","0.0-14.0-1.34","SS1604514246150","<img src='images/simple/10.png' width ='500' height = '500' style='border:5px solid black'>","40","mixed_complex_deviant","images/simple/15.png","images/simple/10.png","images/complex/3.png,images/complex/13.png,images/complex/4.png,images/complex/14.png,images/complex/2.png,images/complex/17.png,images/complex/15.png","0","null","","200","316.71999999089167","","","","background","",""
"","null","html-keyboard-response","84","136338","0.0-14.0-0.35","SS1604514246150","","null","","","","","","","","","","","","<img src=images/blank.png width =""500"" height = ""500"" style=""border:5px solid black"">","","",""
"","53.49500000011176","stimulus-presentation","85","136594","0.0-14.0-1.35","SS1604514246150","<img src='images/simple/10.png' width ='500' height = '500' style='border:5px solid black'>","40","mixed_complex_deviant","images/simple/15.png","images/simple/10.png","images/complex/3.png,images/complex/13.png,images/complex/4.png,images/complex/14.png,images/complex/2.png,images/complex/17.png,images/complex/15.png","0","null","","200","253.49500000011176","","","","background","",""
"","null","html-keyboard-response","86","137825","0.0-14.0-0.36","SS1604514246150","","null","","","","","","","","","","","","<img src=images/blank.png width =""500"" height = ""500"" style=""border:5px solid black"">","","",""
"","52.364999981364235","stimulus-presentation","87","138080","0.0-14.0-1.36","SS1604514246150","<img src='images/complex/15.png' width ='500' height = '500' style='border:5px solid black'>","40","mixed_complex_deviant","images/simple/15.png","images/simple/10.png","images/complex/3.png,images/complex/13.png,images/complex/4.png,images/complex/14.png,images/complex/2.png,images/complex/17.png,images/complex/15.png","0","null","","200","252.36499998136424","","","","deviant","",""
"","null","html-keyboard-response","88","139094","0.0-14.0-0.37","SS1604514246150","","null","","","","","","","","","","","","<img src=images/blank.png width =""500"" height = ""500"" style=""border:5px solid black"">","","",""
"","200.20999998087063","stimulus-presentation","89","139496","0.0-14.0-1.37","SS1604514246150","<img src='images/simple/10.png' width ='500' height = '500' style='border:5px solid black'>","40","mixed_complex_deviant","images/simple/15.png","images/simple/10.png","images/complex/3.png,images/complex/13.png,images/complex/4.png,images/complex/14.png,images/complex/2.png,images/complex/17.png,images/complex/15.png","0","null","","200","400.20999998087063","","","","background","",""
"","null","html-keyboard-response","90","140687","0.0-14.0-0.38","SS1604514246150","","null","","","","","","","","","","","","<img src=images/blank.png width =""500"" height = ""500"" style=""border:5px solid black"">","","",""
"","187.98499999684282","stimulus-presentation","91","141078","0.0-14.0-1.38","SS1604514246150","<img src='images/simple/10.png' width ='500' height = '500' style='border:5px solid black'>","40","mixed_complex_deviant","images/simple/15.png","images/simple/10.png","images/complex/3.png,images/complex/13.png,images/complex/4.png,images/complex/14.png,images/complex/2.png,images/complex/17.png,images/complex/15.png","0","null","","200","387.9849999968428","","","","background","",""
"","null","html-keyboard-response","92","142340","0.0-14.0-0.39","SS1604514246150","","null","","","","","","","","","","","","<img src=images/blank.png width =""500"" height = ""500"" style=""border:5px solid black"">","","",""
"","2747.1699999878183","stimulus-presentation","93","145292","0.0-14.0-1.39","SS1604514246150","<img src='images/simple/15.png' width ='500' height = '500' style='border:5px solid black'>","40","mixed_complex_deviant","images/simple/15.png","images/simple/10.png","images/complex/3.png,images/complex/13.png,images/complex/4.png,images/complex/14.png,images/complex/2.png,images/complex/17.png,images/complex/15.png","0","null","","200","2947.1699999878183","yes","1137.0250000036322","","target","",""
"","null","html-keyboard-response","94","146462","0.0-14.0-0.40","SS1604514246150","","null","","","","","","","","","","","","<img src=images/blank.png width =""500"" height = ""500"" style=""border:5px solid black"">","","",""
"","275.16499999910593","stimulus-presentation","95","146939","0.0-14.0-1.40","SS1604514246150","<img src='images/simple/10.png' width ='500' height = '500' style='border:5px solid black'>","40","mixed_complex_deviant","images/simple/15.png","images/simple/10.png","images/complex/3.png,images/complex/13.png,images/complex/4.png,images/complex/14.png,images/complex/2.png,images/complex/17.png,images/complex/15.png","0","null","","200","475.16499999910593","","","","background","",""
"","null","html-keyboard-response","96","147972","0.0-14.0-0.41","SS1604514246150","","null","","","","","","","","","","","","<img src=images/blank.png width =""500"" height = ""500"" style=""border:5px solid black"">","","",""
"","365.62500000582077","stimulus-presentation","97","148541","0.0-14.0-1.41","SS1604514246150","<img src='images/simple/10.png' width ='500' height = '500' style='border:5px solid black'>","40","mixed_complex_deviant","images/simple/15.png","images/simple/10.png","images/complex/3.png,images/complex/13.png,images/complex/4.png,images/complex/14.png,images/complex/2.png,images/complex/17.png,images/complex/15.png","0","null","","200","565.6250000058208","","","","background","",""
"","null","html-keyboard-response","98","149566","0.0-14.0-0.42","SS1604514246150","","null","","","","","","","","","","","","<img src=images/blank.png width =""500"" height = ""500"" style=""border:5px solid black"">","","",""
"","168.61499997321516","stimulus-presentation","99","149938","0.0-14.0-1.42","SS1604514246150","<img src='images/simple/10.png' width ='500' height = '500' style='border:5px solid black'>","40","mixed_complex_deviant","images/simple/15.png","images/simple/10.png","images/complex/3.png,images/complex/13.png,images/complex/4.png,images/complex/14.png,images/complex/2.png,images/complex/17.png,images/complex/15.png","0","null","","200","368.61499997321516","","","","background","",""
"","null","html-keyboard-response","100","150796","0.0-14.0-0.43","SS1604514246150","","null","","","","","","","","","","","","<img src=images/blank.png width =""500"" height = ""500"" style=""border:5px solid black"">","","",""
"","107.02999998466112","stimulus-presentation","101","151106","0.0-14.0-1.43","SS1604514246150","<img src='images/simple/10.png' width ='500' height = '500' style='border:5px solid black'>","40","mixed_complex_deviant","images/simple/15.png","images/simple/10.png","images/complex/3.png,images/complex/13.png,images/complex/4.png,images/complex/14.png,images/complex/2.png,images/complex/17.png,images/complex/15.png","0","null","","200","307.0299999846611","","","","background","",""
"","null","html-keyboard-response","102","152080","0.0-14.0-0.44","SS1604514246150","","null","","","","","","","","","","","","<img src=images/blank.png width =""500"" height = ""500"" style=""border:5px solid black"">","","",""
"","73.78499998594634","stimulus-presentation","103","152357","0.0-14.0-1.44","SS1604514246150","<img src='images/simple/10.png' width ='500' height = '500' style='border:5px solid black'>","40","mixed_complex_deviant","images/simple/15.png","images/simple/10.png","images/complex/3.png,images/complex/13.png,images/complex/4.png,images/complex/14.png,images/complex/2.png,images/complex/17.png,images/complex/15.png","0","null","","200","273.78499998594634","","","","background","",""
"","null","html-keyboard-response","104","153190","0.0-14.0-0.45","SS1604514246150","","null","","","","","","","","","","","","<img src=images/blank.png width =""500"" height = ""500"" style=""border:5px solid black"">","","",""
"","88.14999999594875","stimulus-presentation","105","153481","0.0-14.0-1.45","SS1604514246150","<img src='images/simple/15.png' width ='500' height = '500' style='border:5px solid black'>","40","mixed_complex_deviant","images/simple/15.png","images/simple/10.png","images/complex/3.png,images/complex/13.png,images/complex/4.png,images/complex/14.png,images/complex/2.png,images/complex/17.png,images/complex/15.png","0","null","","200","288.14999999594875","","","","target","",""
"","null","html-keyboard-response","106","154330","0.0-14.0-0.46","SS1604514246150","","null","","","","","","","","","","","","<img src=images/blank.png width =""500"" height = ""500"" style=""border:5px solid black"">","","",""
"","156.75500000361353","stimulus-presentation","107","154690","0.0-14.0-1.46","SS1604514246150","<img src='images/simple/10.png' width ='500' height = '500' style='border:5px solid black'>","40","mixed_complex_deviant","images/simple/15.png","images/simple/10.png","images/complex/3.png,images/complex/13.png,images/complex/4.png,images/complex/14.png,images/complex/2.png,images/complex/17.png,images/complex/15.png","0","null","","200","356.75500000361353","","","","background","",""
"","null","html-keyboard-response","108","155533","0.0-14.0-0.47","SS1604514246150","","null","","","","","","","","","","","","<img src=images/blank.png width =""500"" height = ""500"" style=""border:5px solid black"">","","",""
"","49.685000005410984","stimulus-presentation","109","155785","0.0-14.0-1.47","SS1604514246150","<img src='images/simple/10.png' width ='500' height = '500' style='border:5px solid black'>","40","mixed_complex_deviant","images/simple/15.png","images/simple/10.png","images/complex/3.png,images/complex/13.png,images/complex/4.png,images/complex/14.png,images/complex/2.png,images/complex/17.png,images/complex/15.png","0","null","","200","249.68500000541098","","","","background","",""
"","null","html-keyboard-response","110","157062","0.0-14.0-0.48","SS1604514246150","","null","","","","","","","","","","","","<img src=images/blank.png width =""500"" height = ""500"" style=""border:5px solid black"">","","",""
"","109.9650000105612","stimulus-presentation","111","157375","0.0-14.0-1.48","SS1604514246150","<img src='images/simple/10.png' width ='500' height = '500' style='border:5px solid black'>","40","mixed_complex_deviant","images/simple/15.png","images/simple/10.png","images/complex/3.png,images/complex/13.png,images/complex/4.png,images/complex/14.png,images/complex/2.png,images/complex/17.png,images/complex/15.png","0","null","","200","309.9650000105612","","","","background","",""
"[{""page_index"":0,""viewing_time"":2635}]","2636","task-instructions","112","160012","0.0-15.0","SS1604514246150","","","","","","","","","","","","","","","","",""
"[{""page_index"":0,""viewing_time"":2068.1000000040513},{""page_index"":1,""viewing_time"":2043.9149999874644},{""page_index"":2,""viewing_time"":2179.5750000164844}]","6291.820000013104","instructions","113","166306","0.0-16.0","SS1604514246150","","","","","","","","","","","","","","","","",""
"","null","html-keyboard-response","114","167314","0.0-17.0-0.0","SS1604514246150","","null","","","","","","","","","","","","<img src=images/blank.png width =""500"" height = ""500"" style=""border:5px solid black"">","","",""
"","198.8300000084564","stimulus-presentation","115","167717","0.0-17.0-1.0","SS1604514246150","<img src='images/complex/9.png' width ='500' height = '500' style='border:5px solid black'>","40","all_complex","images/complex/1.png","images/complex/9.png","images/complex/12.png,images/complex/5.png,images/complex/7.png,images/complex/11.png,images/complex/6.png,images/complex/18.png,images/complex/10.png","1","null","","200","398.8300000084564","","","","background","",""
"","null","html-keyboard-response","116","168711","0.0-17.0-0.1","SS1604514246150","","null","","","","","","","","","","","","<img src=images/blank.png width =""500"" height = ""500"" style=""border:5px solid black"">","","",""
"","108.90500000095926","stimulus-presentation","117","169024","0.0-17.0-1.1","SS1604514246150","<img src='images/complex/1.png' width ='500' height = '500' style='border:5px solid black'>","40","all_complex","images/complex/1.png","images/complex/9.png","images/complex/12.png,images/complex/5.png,images/complex/7.png,images/complex/11.png,images/complex/6.png,images/complex/18.png,images/complex/10.png","1","null","","200","308.90500000095926","","","","target","",""
"","null","html-keyboard-response","118","170070","0.0-17.0-0.2","SS1604514246150","","null","","","","","","","","","","","","<img src=images/blank.png width =""500"" height = ""500"" style=""border:5px solid black"">","","",""
"","179.67000001226552","stimulus-presentation","119","170453","0.0-17.0-1.2","SS1604514246150","<img src='images/complex/9.png' width ='500' height = '500' style='border:5px solid black'>","40","all_complex","images/complex/1.png","images/complex/9.png","images/complex/12.png,images/complex/5.png,images/complex/7.png,images/complex/11.png,images/complex/6.png,images/complex/18.png,images/complex/10.png","1","null","","200","379.6700000122655","","","","background","",""
"","null","html-keyboard-response","120","171638","0.0-17.0-0.3","SS1604514246150","","null","","","","","","","","","","","","<img src=images/blank.png width =""500"" height = ""500"" style=""border:5px solid black"">","","",""
"","115.2799999981653","stimulus-presentation","121","171955","0.0-17.0-1.3","SS1604514246150","<img src='images/complex/7.png' width ='500' height = '500' style='border:5px solid black'>","40","all_complex","images/complex/1.png","images/complex/9.png","images/complex/12.png,images/complex/5.png,images/complex/7.png,images/complex/11.png,images/complex/6.png,images/complex/18.png,images/complex/10.png","1","null","","200","315.2799999981653","","","","deviant","",""
"","null","html-keyboard-response","122","173070","0.0-17.0-0.4","SS1604514246150","","null","","","","","","","","","","","","<img src=images/blank.png width =""500"" height = ""500"" style=""border:5px solid black"">","","",""
"","120.52999998559244","stimulus-presentation","123","173395","0.0-17.0-1.4","SS1604514246150","<img src='images/complex/9.png' width ='500' height = '500' style='border:5px solid black'>","40","all_complex","images/complex/1.png","images/complex/9.png","images/complex/12.png,images/complex/5.png,images/complex/7.png,images/complex/11.png,images/complex/6.png,images/complex/18.png,images/complex/10.png","1","null","","200","320.52999998559244","","","","background","",""
"","null","html-keyboard-response","124","174464","0.0-17.0-0.5","SS1604514246150","","null","","","","","","","","","","","","<img src=images/blank.png width =""500"" height = ""500"" style=""border:5px solid black"">","","",""
"","179.91499998606741","stimulus-presentation","125","174847","0.0-17.0-1.5","SS1604514246150","<img src='images/complex/9.png' width ='500' height = '500' style='border:5px solid black'>","40","all_complex","images/complex/1.png","images/complex/9.png","images/complex/12.png,images/complex/5.png,images/complex/7.png,images/complex/11.png,images/complex/6.png,images/complex/18.png,images/complex/10.png","1","null","","200","379.9149999860674","","","","background","",""
"","null","html-keyboard-response","126","175815","0.0-17.0-0.6","SS1604514246150","","null","","","","","","","","","","","","<img src=images/blank.png width =""500"" height = ""500"" style=""border:5px solid black"">","","",""
"","138.74500000383705","stimulus-presentation","127","176157","0.0-17.0-1.6","SS1604514246150","<img src='images/complex/9.png' width ='500' height = '500' style='border:5px solid black'>","40","all_complex","images/complex/1.png","images/complex/9.png","images/complex/12.png,images/complex/5.png,images/complex/7.png,images/complex/11.png,images/complex/6.png,images/complex/18.png,images/complex/10.png","1","null","","200","338.74500000383705","","","","background","",""
"","null","html-keyboard-response","128","177100","0.0-17.0-0.7","SS1604514246150","","null","","","","","","","","","","","","<img src=images/blank.png width =""500"" height = ""500"" style=""border:5px solid black"">","","",""
"","94.55000000889413","stimulus-presentation","129","177398","0.0-17.0-1.7","SS1604514246150","<img src='images/complex/9.png' width ='500' height = '500' style='border:5px solid black'>","40","all_complex","images/complex/1.png","images/complex/9.png","images/complex/12.png,images/complex/5.png,images/complex/7.png,images/complex/11.png,images/complex/6.png,images/complex/18.png,images/complex/10.png","1","null","","200","294.55000000889413","","","","background","",""
"","null","html-keyboard-response","130","178279","0.0-17.0-0.8","SS1604514246150","","null","","","","","","","","","","","","<img src=images/blank.png width =""500"" height = ""500"" style=""border:5px solid black"">","","",""
"","82.89499999955297","stimulus-presentation","131","178565","0.0-17.0-1.8","SS1604514246150","<img src='images/complex/9.png' width ='500' height = '500' style='border:5px solid black'>","40","all_complex","images/complex/1.png","images/complex/9.png","images/complex/12.png,images/complex/5.png,images/complex/7.png,images/complex/11.png,images/complex/6.png,images/complex/18.png,images/complex/10.png","1","null","","200","282.89499999955297","","","","background","",""
"","null","html-keyboard-response","132","179430","0.0-17.0-0.9","SS1604514246150","","null","","","","","","","","","","","","<img src=images/blank.png width =""500"" height = ""500"" style=""border:5px solid black"">","","",""
"","71.9649999809917","stimulus-presentation","133","179705","0.0-17.0-1.9","SS1604514246150","<img src='images/complex/9.png' width ='500' height = '500' style='border:5px solid black'>","40","all_complex","images/complex/1.png","images/complex/9.png","images/complex/12.png,images/complex/5.png,images/complex/7.png,images/complex/11.png,images/complex/6.png,images/complex/18.png,images/complex/10.png","1","null","","200","271.9649999809917","","","","background","",""
"","null","html-keyboard-response","134","180523","0.0-17.0-0.10","SS1604514246150","","null","","","","","","","","","","","","<img src=images/blank.png width =""500"" height = ""500"" style=""border:5px solid black"">","","",""
"","123.93500001053326","stimulus-presentation","135","180850","0.0-17.0-1.10","SS1604514246150","<img src='images/complex/9.png' width ='500' height = '500' style='border:5px solid black'>","40","all_complex","images/complex/1.png","images/complex/9.png","images/complex/12.png,images/complex/5.png,images/complex/7.png,images/complex/11.png,images/complex/6.png,images/complex/18.png,images/complex/10.png","1","null","","200","323.93500001053326","","","","background","",""
"","null","html-keyboard-response","136","181754","0.0-17.0-0.11","SS1604514246150","","null","","","","","","","","","","","","<img src=images/blank.png width =""500"" height = ""500"" style=""border:5px solid black"">","","",""
"","68.13499997952022","stimulus-presentation","137","182025","0.0-17.0-1.11","SS1604514246150","<img src='images/complex/9.png' width ='500' height = '500' style='border:5px solid black'>","40","all_complex","images/complex/1.png","images/complex/9.png","images/complex/12.png,images/complex/5.png,images/complex/7.png,images/complex/11.png,images/complex/6.png,images/complex/18.png,images/complex/10.png","1","null","","200","268.1349999795202","","","","background","",""
"","null","html-keyboard-response","138","182968","0.0-17.0-0.12","SS1604514246150","","null","","","","","","","","","","","","<img src=images/blank.png width =""500"" height = ""500"" style=""border:5px solid black"">","","",""
"","81.08000000356697","stimulus-presentation","139","183252","0.0-17.0-1.12","SS1604514246150","<img src='images/complex/9.png' width ='500' height = '500' style='border:5px solid black'>","40","all_complex","images/complex/1.png","images/complex/9.png","images/complex/12.png,images/complex/5.png,images/complex/7.png,images/complex/11.png,images/complex/6.png,images/complex/18.png,images/complex/10.png","1","null","","200","281.08000000356697","","","","background","",""
"","null","html-keyboard-response","140","184290","0.0-17.0-0.13","SS1604514246150","","null","","","","","","","","","","","","<img src=images/blank.png width =""500"" height = ""500"" style=""border:5px solid black"">","","",""
"","104.91500000352971","stimulus-presentation","141","184598","0.0-17.0-1.13","SS1604514246150","<img src='images/complex/10.png' width ='500' height = '500' style='border:5px solid black'>","40","all_complex","images/complex/1.png","images/complex/9.png","images/complex/12.png,images/complex/5.png,images/complex/7.png,images/complex/11.png,images/complex/6.png,images/complex/18.png,images/complex/10.png","1","null","","200","304.9150000035297","","","","deviant","",""
"","null","html-keyboard-response","142","185464","0.0-17.0-0.14","SS1604514246150","","null","","","","","","","","","","","","<img src=images/blank.png width =""500"" height = ""500"" style=""border:5px solid black"">","","",""
"","1553.6100000026636","stimulus-presentation","143","187220","0.0-17.0-1.14","SS1604514246150","<img src='images/complex/1.png' width ='500' height = '500' style='border:5px solid black'>","40","all_complex","images/complex/1.png","images/complex/9.png","images/complex/12.png,images/complex/5.png,images/complex/7.png,images/complex/11.png,images/complex/6.png,images/complex/18.png,images/complex/10.png","1","null","","200","1753.6100000026636","yes","381.0200000007171","","target","",""
"","null","html-keyboard-response","144","188396","0.0-17.0-0.15","SS1604514246150","","null","","","","","","","","","","","","<img src=images/blank.png width =""500"" height = ""500"" style=""border:5px solid black"">","","",""
"","183.01499998779036","stimulus-presentation","145","188783","0.0-17.0-1.15","SS1604514246150","<img src='images/complex/9.png' width ='500' height = '500' style='border:5px solid black'>","40","all_complex","images/complex/1.png","images/complex/9.png","images/complex/12.png,images/complex/5.png,images/complex/7.png,images/complex/11.png,images/complex/6.png,images/complex/18.png,images/complex/10.png","1","null","","200","383.01499998779036","","","","background","",""
"","null","html-keyboard-response","146","189787","0.0-17.0-0.16","SS1604514246150","","null","","","","","","","","","","","","<img src=images/blank.png width =""500"" height = ""500"" style=""border:5px solid black"">","","",""
"","56.36499999673106","stimulus-presentation","147","190046","0.0-17.0-1.16","SS1604514246150","<img src='images/complex/9.png' width ='500' height = '500' style='border:5px solid black'>","40","all_complex","images/complex/1.png","images/complex/9.png","images/complex/12.png,images/complex/5.png,images/complex/7.png,images/complex/11.png,images/complex/6.png,images/complex/18.png,images/complex/10.png","1","null","","200","256.36499999673106","","","","background","",""
"","null","html-keyboard-response","148","191146","0.0-17.0-0.17","SS1604514246150","","null","","","","","","","","","","","","<img src=images/blank.png width =""500"" height = ""500"" style=""border:5px solid black"">","","",""
"","41.25499998917803","stimulus-presentation","149","191391","0.0-17.0-1.17","SS1604514246150","<img src='images/complex/1.png' width ='500' height = '500' style='border:5px solid black'>","40","all_complex","images/complex/1.png","images/complex/9.png","images/complex/12.png,images/complex/5.png,images/complex/7.png,images/complex/11.png,images/complex/6.png,images/complex/18.png,images/complex/10.png","1","null","","200","241.25499998917803","","","","target","",""
"","null","html-keyboard-response","150","192209","0.0-17.0-0.18","SS1604514246150","","null","","","","","","","","","","","","<img src=images/blank.png width =""500"" height = ""500"" style=""border:5px solid black"">","","",""
"","119.0399999904912","stimulus-presentation","151","192532","0.0-17.0-1.18","SS1604514246150","<img src='images/complex/18.png' width ='500' height = '500' style='border:5px solid black'>","40","all_complex","images/complex/1.png","images/complex/9.png","images/complex/12.png,images/complex/5.png,images/complex/7.png,images/complex/11.png,images/complex/6.png,images/complex/18.png,images/complex/10.png","1","null","","200","319.0399999904912","","","","deviant","",""
"","null","html-keyboard-response","152","193591","0.0-17.0-0.19","SS1604514246150","","null","","","","","","","","","","","","<img src=images/blank.png width =""500"" height = ""500"" style=""border:5px solid black"">","","",""
"","53.50500001804903","stimulus-presentation","153","193848","0.0-17.0-1.19","SS1604514246150","<img src='images/complex/9.png' width ='500' height = '500' style='border:5px solid black'>","40","all_complex","images/complex/1.png","images/complex/9.png","images/complex/12.png,images/complex/5.png,images/complex/7.png,images/complex/11.png,images/complex/6.png,images/complex/18.png,images/complex/10.png","1","null","","200","253.50500001804903","","","","background","",""
"","null","html-keyboard-response","154","194776","0.0-17.0-0.20","SS1604514246150","","null","","","","","","","","","","","","<img src=images/blank.png width =""500"" height = ""500"" style=""border:5px solid black"">","","",""
"","86.0650000104215","stimulus-presentation","155","195065","0.0-17.0-1.20","SS1604514246150","<img src='images/complex/9.png' width ='500' height = '500' style='border:5px solid black'>","40","all_complex","images/complex/1.png","images/complex/9.png","images/complex/12.png,images/complex/5.png,images/complex/7.png,images/complex/11.png,images/complex/6.png,images/complex/18.png,images/complex/10.png","1","null","","200","286.0650000104215","","","","background","",""
"","null","html-keyboard-response","156","196050","0.0-17.0-0.21","SS1604514246150","","null","","","","","","","","","","","","<img src=images/blank.png width =""500"" height = ""500"" style=""border:5px solid black"">","","",""
"","735.6900000013411","stimulus-presentation","157","196988","0.0-17.0-1.21","SS1604514246150","<img src='images/complex/1.png' width ='500' height = '500' style='border:5px solid black'>","40","all_complex","images/complex/1.png","images/complex/9.png","images/complex/12.png,images/complex/5.png,images/complex/7.png,images/complex/11.png,images/complex/6.png,images/complex/18.png,images/complex/10.png","1","null","","200","935.6900000013411","yes","306.4699999813456","","target","",""
"","null","html-keyboard-response","158","198127","0.0-17.0-0.22","SS1604514246150","","null","","","","","","","","","","","","<img src=images/blank.png width =""500"" height = ""500"" style=""border:5px solid black"">","","",""
"","222.29000000515953","stimulus-presentation","159","198553","0.0-17.0-1.22","SS1604514246150","<img src='images/complex/9.png' width ='500' height = '500' style='border:5px solid black'>","40","all_complex","images/complex/1.png","images/complex/9.png","images/complex/12.png,images/complex/5.png,images/complex/7.png,images/complex/11.png,images/complex/6.png,images/complex/18.png,images/complex/10.png","1","null","","200","422.2900000051595","","","","background","",""
"","null","html-keyboard-response","160","199669","0.0-17.0-0.23","SS1604514246150","","null","","","","","","","","","","","","<img src=images/blank.png width =""500"" height = ""500"" style=""border:5px solid black"">","","",""
"","79.70999999088235","stimulus-presentation","161","199952","0.0-17.0-1.23","SS1604514246150","<img src='images/complex/11.png' width ='500' height = '500' style='border:5px solid black'>","40","all_complex","images/complex/1.png","images/complex/9.png","images/complex/12.png,images/complex/5.png,images/complex/7.png,images/complex/11.png,images/complex/6.png,images/complex/18.png,images/complex/10.png","1","null","","200","279.70999999088235","","","","deviant","",""
"","null","html-keyboard-response","162","200826","0.0-17.0-0.24","SS1604514246150","","null","","","","","","","","","","","","<img src=images/blank.png width =""500"" height = ""500"" style=""border:5px solid black"">","","",""
"","174.17499999282882","stimulus-presentation","163","201203","0.0-17.0-1.24","SS1604514246150","<img src='images/complex/1.png' width ='500' height = '500' style='border:5px solid black'>","40","all_complex","images/complex/1.png","images/complex/9.png","images/complex/12.png,images/complex/5.png,images/complex/7.png,images/complex/11.png,images/complex/6.png,images/complex/18.png,images/complex/10.png","1","null","","200","374.1749999928288","","","","target","",""
"","null","html-keyboard-response","164","202449","0.0-17.0-0.25","SS1604514246150","","null","","","","","","","","","","","","<img src=images/blank.png width =""500"" height = ""500"" style=""border:5px solid black"">","","",""
"","100.82999998121522","stimulus-presentation","165","202753","0.0-17.0-1.25","SS1604514246150","<img src='images/complex/9.png' width ='500' height = '500' style='border:5px solid black'>","40","all_complex","images/complex/1.png","images/complex/9.png","images/complex/12.png,images/complex/5.png,images/complex/7.png,images/complex/11.png,images/complex/6.png,images/complex/18.png,images/complex/10.png","1","null","","200","300.8299999812152","","","","background","",""
"","null","html-keyboard-response","166","203774","0.0-17.0-0.26","SS1604514246150","","null","","","","","","","","","","","","<img src=images/blank.png width =""500"" height = ""500"" style=""border:5px solid black"">","","",""
"","178.51999998674728","stimulus-presentation","167","204156","0.0-17.0-1.26","SS1604514246150","<img src='images/complex/9.png' width ='500' height = '500' style='border:5px solid black'>","40","all_complex","images/complex/1.png","images/complex/9.png","images/complex/12.png,images/complex/5.png,images/complex/7.png,images/complex/11.png,images/complex/6.png,images/complex/18.png,images/complex/10.png","1","null","","200","378.5199999867473","","","","background","",""
"","null","html-keyboard-response","168","205420","0.0-17.0-0.27","SS1604514246150","","null","","","","","","","","","","","","<img src=images/blank.png width =""500"" height = ""500"" style=""border:5px solid black"">","","",""
"","99.7499999939464","stimulus-presentation","169","205723","0.0-17.0-1.27","SS1604514246150","<img src='images/complex/9.png' width ='500' height = '500' style='border:5px solid black'>","40","all_complex","images/complex/1.png","images/complex/9.png","images/complex/12.png,images/complex/5.png,images/complex/7.png,images/complex/11.png,images/complex/6.png,images/complex/18.png,images/complex/10.png","1","null","","200","299.7499999939464","","","","background","",""
"","null","html-keyboard-response","170","206902","0.0-17.0-0.28","SS1604514246150","","null","","","","","","","","","","","","<img src=images/blank.png width =""500"" height = ""500"" style=""border:5px solid black"">","","",""
"","57.969999994384125","stimulus-presentation","171","207162","0.0-17.0-1.28","SS1604514246150","<img src='images/complex/9.png' width ='500' height = '500' style='border:5px solid black'>","40","all_complex","images/complex/1.png","images/complex/9.png","images/complex/12.png,images/complex/5.png,images/complex/7.png,images/complex/11.png,images/complex/6.png,images/complex/18.png,images/complex/10.png","1","null","","200","257.9699999943841","","","","background","",""
"","null","html-keyboard-response","172","208261","0.0-17.0-0.29","SS1604514246150","","null","","","","","","","","","","","","<img src=images/blank.png width =""500"" height = ""500"" style=""border:5px solid black"">","","",""
"","82.26500000455417","stimulus-presentation","173","208547","0.0-17.0-1.29","SS1604514246150","<img src='images/complex/1.png' width ='500' height = '500' style='border:5px solid black'>","40","all_complex","images/complex/1.png","images/complex/9.png","images/complex/12.png,images/complex/5.png,images/complex/7.png,images/complex/11.png,images/complex/6.png,images/complex/18.png,images/complex/10.png","1","null","","200","282.26500000455417","","","","target","",""
"","null","html-keyboard-response","174","209546","0.0-17.0-0.30","SS1604514246150","","null","","","","","","","","","","","","<img src=images/blank.png width =""500"" height = ""500"" style=""border:5px solid black"">","","",""
"","85.50499999546446","stimulus-presentation","175","209835","0.0-17.0-1.30","SS1604514246150","<img src='images/complex/6.png' width ='500' height = '500' style='border:5px solid black'>","40","all_complex","images/complex/1.png","images/complex/9.png","images/complex/12.png,images/complex/5.png,images/complex/7.png,images/complex/11.png,images/complex/6.png,images/complex/18.png,images/complex/10.png","1","null","","200","285.50499999546446","","","","deviant","",""
"","null","html-keyboard-response","176","210817","0.0-17.0-0.31","SS1604514246150","","null","","","","","","","","","","","","<img src=images/blank.png width =""500"" height = ""500"" style=""border:5px solid black"">","","",""
"","95.01499999896623","stimulus-presentation","177","211115","0.0-17.0-1.31","SS1604514246150","<img src='images/complex/9.png' width ='500' height = '500' style='border:5px solid black'>","40","all_complex","images/complex/1.png","images/complex/9.png","images/complex/12.png,images/complex/5.png,images/complex/7.png,images/complex/11.png,images/complex/6.png,images/complex/18.png,images/complex/10.png","1","null","","200","295.01499999896623","","","","background","",""
"","null","html-keyboard-response","178","212277","0.0-17.0-0.32","SS1604514246150","","null","","","","","","","","","","","","<img src=images/blank.png width =""500"" height = ""500"" style=""border:5px solid black"">","","",""
"","989.2950000066776","stimulus-presentation","179","213468","0.0-17.0-1.32","SS1604514246150","<img src='images/complex/1.png' width ='500' height = '500' style='border:5px solid black'>","40","all_complex","images/complex/1.png","images/complex/9.png","images/complex/12.png,images/complex/5.png,images/complex/7.png,images/complex/11.png,images/complex/6.png,images/complex/18.png,images/complex/10.png","1","null","","200","1189.2950000066776","yes","286.3099999958649","","target","",""
"","null","html-keyboard-response","180","214533","0.0-17.0-0.33","SS1604514246150","","null","","","","","","","","","","","","<img src=images/blank.png width =""500"" height = ""500"" style=""border:5px solid black"">","","",""
"","49.30000001331791","stimulus-presentation","181","214785","0.0-17.0-1.33","SS1604514246150","<img src='images/complex/9.png' width ='500' height = '500' style='border:5px solid black'>","40","all_complex","images/complex/1.png","images/complex/9.png","images/complex/12.png,images/complex/5.png,images/complex/7.png,images/complex/11.png,images/complex/6.png,images/complex/18.png,images/complex/10.png","1","null","","200","249.3000000133179","","","","background","",""
"","null","html-keyboard-response","182","215729","0.0-17.0-0.34","SS1604514246150","","null","","","","","","","","","","","","<img src=images/blank.png width =""500"" height = ""500"" style=""border:5px solid black"">","","",""
"","114.07499999040738","stimulus-presentation","183","216046","0.0-17.0-1.34","SS1604514246150","<img src='images/complex/9.png' width ='500' height = '500' style='border:5px solid black'>","40","all_complex","images/complex/1.png","images/complex/9.png","images/complex/12.png,images/complex/5.png,images/complex/7.png,images/complex/11.png,images/complex/6.png,images/complex/18.png,images/complex/10.png","1","null","","200","314.0749999904074","","","","background","",""
"","null","html-keyboard-response","184","216969","0.0-17.0-0.35","SS1604514246150","","null","","","","","","","","","","","","<img src=images/blank.png width =""500"" height = ""500"" style=""border:5px solid black"">","","",""
"","47.839999984717","stimulus-presentation","185","217219","0.0-17.0-1.35","SS1604514246150","<img src='images/complex/9.png' width ='500' height = '500' style='border:5px solid black'>","40","all_complex","images/complex/1.png","images/complex/9.png","images/complex/12.png,images/complex/5.png,images/complex/7.png,images/complex/11.png,images/complex/6.png,images/complex/18.png,images/complex/10.png","1","null","","200","247.839999984717","","","","background","",""
"","null","html-keyboard-response","186","218262","0.0-17.0-0.36","SS1604514246150","","null","","","","","","","","","","","","<img src=images/blank.png width =""500"" height = ""500"" style=""border:5px solid black"">","","",""
"","135.21000000764616","stimulus-presentation","187","218601","0.0-17.0-1.36","SS1604514246150","<img src='images/complex/9.png' width ='500' height = '500' style='border:5px solid black'>","40","all_complex","images/complex/1.png","images/complex/9.png","images/complex/12.png,images/complex/5.png,images/complex/7.png,images/complex/11.png,images/complex/6.png,images/complex/18.png,images/complex/10.png","1","null","","200","335.21000000764616","","","","background","",""
"","null","html-keyboard-response","188","219620","0.0-17.0-0.37","SS1604514246150","","null","","","","","","","","","","","","<img src=images/blank.png width =""500"" height = ""500"" style=""border:5px solid black"">","","",""
"","68.99499997962266","stimulus-presentation","189","219892","0.0-17.0-1.37","SS1604514246150","<img src='images/complex/9.png' width ='500' height = '500' style='border:5px solid black'>","40","all_complex","images/complex/1.png","images/complex/9.png","images/complex/12.png,images/complex/5.png,images/complex/7.png,images/complex/11.png,images/complex/6.png,images/complex/18.png,images/complex/10.png","1","null","","200","268.99499997962266","","","","background","",""
"","null","html-keyboard-response","190","221027","0.0-17.0-0.38","SS1604514246150","","null","","","","","","","","","","","","<img src=images/blank.png width =""500"" height = ""500"" style=""border:5px solid black"">","","",""
"","868.1250000081491","stimulus-presentation","191","222098","0.0-17.0-1.38","SS1604514246150","<img src='images/complex/9.png' width ='500' height = '500' style='border:5px solid black'>","40","all_complex","images/complex/1.png","images/complex/9.png","images/complex/12.png,images/complex/5.png,images/complex/7.png,images/complex/11.png,images/complex/6.png,images/complex/18.png,images/complex/10.png","1","null","","200","1068.125000008149","","","","background","",""
"","null","html-keyboard-response","192","223252","0.0-17.0-0.39","SS1604514246150","","null","","","","","","","","","","","","<img src=images/blank.png width =""500"" height = ""500"" style=""border:5px solid black"">","","",""
"","77.49999998486601","stimulus-presentation","193","223532","0.0-17.0-1.39","SS1604514246150","<img src='images/complex/5.png' width ='500' height = '500' style='border:5px solid black'>","40","all_complex","images/complex/1.png","images/complex/9.png","images/complex/12.png,images/complex/5.png,images/complex/7.png,images/complex/11.png,images/complex/6.png,images/complex/18.png,images/complex/10.png","1","null","","200","277.499999984866","","","","deviant","",""
"","null","html-keyboard-response","194","224419","0.0-17.0-0.40","SS1604514246150","","null","","","","","","","","","","","","<img src=images/blank.png width =""500"" height = ""500"" style=""border:5px solid black"">","","",""
"","125.82000001566485","stimulus-presentation","195","224748","0.0-17.0-1.40","SS1604514246150","<img src='images/complex/9.png' width ='500' height = '500' style='border:5px solid black'>","40","all_complex","images/complex/1.png","images/complex/9.png","images/complex/12.png,images/complex/5.png,images/complex/7.png,images/complex/11.png,images/complex/6.png,images/complex/18.png,images/complex/10.png","1","null","","200","325.82000001566485","","","","background","",""
"","null","html-keyboard-response","196","225726","0.0-17.0-0.41","SS1604514246150","","null","","","","","","","","","","","","<img src=images/blank.png width =""500"" height = ""500"" style=""border:5px solid black"">","","",""
"","91.83499999926426","stimulus-presentation","197","226021","0.0-17.0-1.41","SS1604514246150","<img src='images/complex/9.png' width ='500' height = '500' style='border:5px solid black'>","40","all_complex","images/complex/1.png","images/complex/9.png","images/complex/12.png,images/complex/5.png,images/complex/7.png,images/complex/11.png,images/complex/6.png,images/complex/18.png,images/complex/10.png","1","null","","200","291.83499999926426","","","","background","",""
"","null","html-keyboard-response","198","227215","0.0-17.0-0.42","SS1604514246150","","null","","","","","","","","","","","","<img src=images/blank.png width =""500"" height = ""500"" style=""border:5px solid black"">","","",""
"","227.8449999867007","stimulus-presentation","199","227646","0.0-17.0-1.42","SS1604514246150","<img src='images/complex/9.png' width ='500' height = '500' style='border:5px solid black'>","40","all_complex","images/complex/1.png","images/complex/9.png","images/complex/12.png,images/complex/5.png,images/complex/7.png,images/complex/11.png,images/complex/6.png,images/complex/18.png,images/complex/10.png","1","null","","200","427.8449999867007","","","","background","",""
"","null","html-keyboard-response","200","228669","0.0-17.0-0.43","SS1604514246150","","null","","","","","","","","","","","","<img src=images/blank.png width =""500"" height = ""500"" style=""border:5px solid black"">","","",""
"","35.28999999980442","stimulus-presentation","201","228909","0.0-17.0-1.43","SS1604514246150","<img src='images/complex/9.png' width ='500' height = '500' style='border:5px solid black'>","40","all_complex","images/complex/1.png","images/complex/9.png","images/complex/12.png,images/complex/5.png,images/complex/7.png,images/complex/11.png,images/complex/6.png,images/complex/18.png,images/complex/10.png","1","null","","200","235.28999999980442","","","","background","",""
"","null","html-keyboard-response","202","229942","0.0-17.0-0.44","SS1604514246150","","null","","","","","","","","","","","","<img src=images/blank.png width =""500"" height = ""500"" style=""border:5px solid black"">","","",""
"","75.14000000082888","stimulus-presentation","203","230220","0.0-17.0-1.44","SS1604514246150","<img src='images/complex/9.png' width ='500' height = '500' style='border:5px solid black'>","40","all_complex","images/complex/1.png","images/complex/9.png","images/complex/12.png,images/complex/5.png,images/complex/7.png,images/complex/11.png,images/complex/6.png,images/complex/18.png,images/complex/10.png","1","null","","200","275.1400000008289","","","","background","",""
"","null","html-keyboard-response","204","231256","0.0-17.0-0.45","SS1604514246150","","null","","","","","","","","","","","","<img src=images/blank.png width =""500"" height = ""500"" style=""border:5px solid black"">","","",""
"","280.96000000368804","stimulus-presentation","205","231740","0.0-17.0-1.45","SS1604514246150","<img src='images/complex/12.png' width ='500' height = '500' style='border:5px solid black'>","40","all_complex","images/complex/1.png","images/complex/9.png","images/complex/12.png,images/complex/5.png,images/complex/7.png,images/complex/11.png,images/complex/6.png,images/complex/18.png,images/complex/10.png","1","null","","200","480.96000000368804","","","","deviant","",""
"","null","html-keyboard-response","206","232742","0.0-17.0-0.46","SS1604514246150","","null","","","","","","","","","","","","<img src=images/blank.png width =""500"" height = ""500"" style=""border:5px solid black"">","","",""
"","95.85499999229796","stimulus-presentation","207","233041","0.0-17.0-1.46","SS1604514246150","<img src='images/complex/9.png' width ='500' height = '500' style='border:5px solid black'>","40","all_complex","images/complex/1.png","images/complex/9.png","images/complex/12.png,images/complex/5.png,images/complex/7.png,images/complex/11.png,images/complex/6.png,images/complex/18.png,images/complex/10.png","1","null","","200","295.85499999229796","","","","background","",""
"","null","html-keyboard-response","208","234282","0.0-17.0-0.47","SS1604514246150","","null","","","","","","","","","","","","<img src=images/blank.png width =""500"" height = ""500"" style=""border:5px solid black"">","","",""
"","132.19999999273568","stimulus-presentation","209","234617","0.0-17.0-1.47","SS1604514246150","<img src='images/complex/9.png' width ='500' height = '500' style='border:5px solid black'>","40","all_complex","images/complex/1.png","images/complex/9.png","images/complex/12.png,images/complex/5.png,images/complex/7.png,images/complex/11.png,images/complex/6.png,images/complex/18.png,images/complex/10.png","1","null","","200","332.1999999927357","","","","background","",""
"","null","html-keyboard-response","210","235649","0.0-17.0-0.48","SS1604514246150","","null","","","","","","","","","","","","<img src=images/blank.png width =""500"" height = ""500"" style=""border:5px solid black"">","","",""
"","265.1999999943655","stimulus-presentation","211","236118","0.0-17.0-1.48","SS1604514246150","<img src='images/complex/9.png' width ='500' height = '500' style='border:5px solid black'>","40","all_complex","images/complex/1.png","images/complex/9.png","images/complex/12.png,images/complex/5.png,images/complex/7.png,images/complex/11.png,images/complex/6.png,images/complex/18.png,images/complex/10.png","1","null","","200","465.1999999943655","","","","background","",""
"[{""page_index"":0,""viewing_time"":3411}]","3411","task-instructions","212","239531","0.0-18.0","SS1604514246150","","","","","","","","","","","","","","","","",""
"[{""page_index"":0,""viewing_time"":1065.9549999982119},{""page_index"":1,""viewing_time"":2352.180000016233},{""page_index"":2,""viewing_time"":2231.0899999865796}]","5649.490000010701","instructions","213","245185","0.0-19.0","SS1604514246150","","","","","","","","","","","","","","","","",""
"","null","html-keyboard-response","214","246144","0.0-20.0-0.0","SS1604514246150","","null","","","","","","","","","","","","<img src=images/blank.png width =""500"" height = ""500"" style=""border:5px solid black"">","","",""
"","564.7400000016205","stimulus-presentation","215","246913","0.0-20.0-1.0","SS1604514246150","<img src='images/simple/11.png' width ='500' height = '500' style='border:5px solid black'>","40","all_simple","images/simple/13.png","images/simple/11.png","images/simple/4.png,images/simple/5.png,images/simple/8.png,images/simple/18.png,images/simple/9.png,images/simple/14.png,images/simple/12.png","2","null","","200","764.7400000016205","","","","background","",""
"","null","html-keyboard-response","216","248193","0.0-20.0-0.1","SS1604514246150","","null","","","","","","","","","","","","<img src=images/blank.png width =""500"" height = ""500"" style=""border:5px solid black"">","","",""
"","140.53999999305233","stimulus-presentation","217","248537","0.0-20.0-1.1","SS1604514246150","<img src='images/simple/11.png' width ='500' height = '500' style='border:5px solid black'>","40","all_simple","images/simple/13.png","images/simple/11.png","images/simple/4.png,images/simple/5.png,images/simple/8.png,images/simple/18.png,images/simple/9.png,images/simple/14.png,images/simple/12.png","2","null","","200","340.53999999305233","","","","background","",""
"","null","html-keyboard-response","218","249740","0.0-20.0-0.2","SS1604514246150","","null","","","","","","","","","","","","<img src=images/blank.png width =""500"" height = ""500"" style=""border:5px solid black"">","","",""
"","1608.3800000196788","stimulus-presentation","219","251552","0.0-20.0-1.2","SS1604514246150","<img src='images/simple/13.png' width ='500' height = '500' style='border:5px solid black'>","40","all_simple","images/simple/13.png","images/simple/11.png","images/simple/4.png,images/simple/5.png,images/simple/8.png,images/simple/18.png,images/simple/9.png,images/simple/14.png,images/simple/12.png","2","null","","200","1808.3800000196788","yes","325.91000001411885","","target","",""
"","null","html-keyboard-response","220","252626","0.0-20.0-0.3","SS1604514246150","","null","","","","","","","","","","","","<img src=images/blank.png width =""500"" height = ""500"" style=""border:5px solid black"">","","",""
"","192.33499999972992","stimulus-presentation","221","253022","0.0-20.0-1.3","SS1604514246150","<img src='images/simple/11.png' width ='500' height = '500' style='border:5px solid black'>","40","all_simple","images/simple/13.png","images/simple/11.png","images/simple/4.png,images/simple/5.png,images/simple/8.png,images/simple/18.png,images/simple/9.png,images/simple/14.png,images/simple/12.png","2","null","","200","392.3349999997299","","","","background","",""
"","null","html-keyboard-response","222","254053","0.0-20.0-0.4","SS1604514246150","","null","","","","","","","","","","","","<img src=images/blank.png width =""500"" height = ""500"" style=""border:5px solid black"">","","",""
"","238.26500002178364","stimulus-presentation","223","254496","0.0-20.0-1.4","SS1604514246150","<img src='images/simple/11.png' width ='500' height = '500' style='border:5px solid black'>","40","all_simple","images/simple/13.png","images/simple/11.png","images/simple/4.png,images/simple/5.png,images/simple/8.png,images/simple/18.png,images/simple/9.png,images/simple/14.png,images/simple/12.png","2","null","","200","438.26500002178364","","","","background","",""
"","null","html-keyboard-response","224","255567","0.0-20.0-0.5","SS1604514246150","","null","","","","","","","","","","","","<img src=images/blank.png width =""500"" height = ""500"" style=""border:5px solid black"">","","",""
"","178.5000000090804","stimulus-presentation","225","255950","0.0-20.0-1.5","SS1604514246150","<img src='images/simple/11.png' width ='500' height = '500' style='border:5px solid black'>","40","all_simple","images/simple/13.png","images/simple/11.png","images/simple/4.png,images/simple/5.png,images/simple/8.png,images/simple/18.png,images/simple/9.png,images/simple/14.png,images/simple/12.png","2","null","","200","378.5000000090804","","","","background","",""
"","null","html-keyboard-response","226","256920","0.0-20.0-0.6","SS1604514246150","","null","","","","","","","","","","","","<img src=images/blank.png width =""500"" height = ""500"" style=""border:5px solid black"">","","",""
"","178.89500001911074","stimulus-presentation","227","257303","0.0-20.0-1.6","SS1604514246150","<img src='images/simple/5.png' width ='500' height = '500' style='border:5px solid black'>","40","all_simple","images/simple/13.png","images/simple/11.png","images/simple/4.png,images/simple/5.png,images/simple/8.png,images/simple/18.png,images/simple/9.png,images/simple/14.png,images/simple/12.png","2","null","","200","378.89500001911074","","","","deviant","",""
"","null","html-keyboard-response","228","258424","0.0-20.0-0.7","SS1604514246150","","null","","","","","","","","","","","","<img src=images/blank.png width =""500"" height = ""500"" style=""border:5px solid black"">","","",""
"","297.0400000049267","stimulus-presentation","229","258925","0.0-20.0-1.7","SS1604514246150","<img src='images/simple/11.png' width ='500' height = '500' style='border:5px solid black'>","40","all_simple","images/simple/13.png","images/simple/11.png","images/simple/4.png,images/simple/5.png,images/simple/8.png,images/simple/18.png,images/simple/9.png,images/simple/14.png,images/simple/12.png","2","null","","200","497.0400000049267","","","","background","",""
"","null","html-keyboard-response","230","259835","0.0-20.0-0.8","SS1604514246150","","null","","","","","","","","","","","","<img src=images/blank.png width =""500"" height = ""500"" style=""border:5px solid black"">","","",""
"","150.07999999215826","stimulus-presentation","231","260188","0.0-20.0-1.8","SS1604514246150","<img src='images/simple/11.png' width ='500' height = '500' style='border:5px solid black'>","40","all_simple","images/simple/13.png","images/simple/11.png","images/simple/4.png,images/simple/5.png,images/simple/8.png,images/simple/18.png,images/simple/9.png,images/simple/14.png,images/simple/12.png","2","null","","200","350.07999999215826","","","","background","",""
"","null","html-keyboard-response","232","261137","0.0-20.0-0.9","SS1604514246150","","null","","","","","","","","","","","","<img src=images/blank.png width =""500"" height = ""500"" style=""border:5px solid black"">","","",""
"","130.45000002603047","stimulus-presentation","233","261473","0.0-20.0-1.9","SS1604514246150","<img src='images/simple/11.png' width ='500' height = '500' style='border:5px solid black'>","40","all_simple","images/simple/13.png","images/simple/11.png","images/simple/4.png,images/simple/5.png,images/simple/8.png,images/simple/18.png,images/simple/9.png,images/simple/14.png,images/simple/12.png","2","null","","200","330.45000002603047","","","","background","",""
"","null","html-keyboard-response","234","262566","0.0-20.0-0.10","SS1604514246150","","null","","","","","","","","","","","","<img src=images/blank.png width =""500"" height = ""500"" style=""border:5px solid black"">","","",""
"","117.7800000004936","stimulus-presentation","235","262887","0.0-20.0-1.10","SS1604514246150","<img src='images/simple/11.png' width ='500' height = '500' style='border:5px solid black'>","40","all_simple","images/simple/13.png","images/simple/11.png","images/simple/4.png,images/simple/5.png,images/simple/8.png,images/simple/18.png,images/simple/9.png,images/simple/14.png,images/simple/12.png","2","null","","200","317.7800000004936","","","","background","",""
"","null","html-keyboard-response","236","263733","0.0-20.0-0.11","SS1604514246150","","null","","","","","","","","","","","","<img src=images/blank.png width =""500"" height = ""500"" style=""border:5px solid black"">","","",""
"","118.30000000190921","stimulus-presentation","237","264055","0.0-20.0-1.11","SS1604514246150","<img src='images/simple/11.png' width ='500' height = '500' style='border:5px solid black'>","40","all_simple","images/simple/13.png","images/simple/11.png","images/simple/4.png,images/simple/5.png,images/simple/8.png,images/simple/18.png,images/simple/9.png,images/simple/14.png,images/simple/12.png","2","null","","200","318.3000000019092","","","","background","",""
"","null","html-keyboard-response","238","264977","0.0-20.0-0.12","SS1604514246150","","null","","","","","","","","","","","","<img src=images/blank.png width =""500"" height = ""500"" style=""border:5px solid black"">","","",""
"","270.6000000180211","stimulus-presentation","239","265450","0.0-20.0-1.12","SS1604514246150","<img src='images/simple/8.png' width ='500' height = '500' style='border:5px solid black'>","40","all_simple","images/simple/13.png","images/simple/11.png","images/simple/4.png,images/simple/5.png,images/simple/8.png,images/simple/18.png,images/simple/9.png,images/simple/14.png,images/simple/12.png","2","null","","200","470.6000000180211","","","","deviant","",""
"","null","html-keyboard-response","240","266358","0.0-20.0-0.13","SS1604514246150","","null","","","","","","","","","","","","<img src=images/blank.png width =""500"" height = ""500"" style=""border:5px solid black"">","","",""
"","156.88500000396743","stimulus-presentation","241","266719","0.0-20.0-1.13","SS1604514246150","<img src='images/simple/11.png' width ='500' height = '500' style='border:5px solid black'>","40","all_simple","images/simple/13.png","images/simple/11.png","images/simple/4.png,images/simple/5.png,images/simple/8.png,images/simple/18.png,images/simple/9.png,images/simple/14.png,images/simple/12.png","2","null","","200","356.88500000396743","","","","background","",""
"","null","html-keyboard-response","242","267791","0.0-20.0-0.14","SS1604514246150","","null","","","","","","","","","","","","<img src=images/blank.png width =""500"" height = ""500"" style=""border:5px solid black"">","","",""
"","132.58000000496395","stimulus-presentation","243","268126","0.0-20.0-1.14","SS1604514246150","<img src='images/simple/11.png' width ='500' height = '500' style='border:5px solid black'>","40","all_simple","images/simple/13.png","images/simple/11.png","images/simple/4.png,images/simple/5.png,images/simple/8.png,images/simple/18.png,images/simple/9.png,images/simple/14.png,images/simple/12.png","2","null","","200","332.58000000496395","","","","background","",""
"","null","html-keyboard-response","244","269340","0.0-20.0-0.15","SS1604514246150","","null","","","","","","","","","","","","<img src=images/blank.png width =""500"" height = ""500"" style=""border:5px solid black"">","","",""
"","83.7900000042282","stimulus-presentation","245","269627","0.0-20.0-1.15","SS1604514246150","<img src='images/simple/11.png' width ='500' height = '500' style='border:5px solid black'>","40","all_simple","images/simple/13.png","images/simple/11.png","images/simple/4.png,images/simple/5.png,images/simple/8.png,images/simple/18.png,images/simple/9.png,images/simple/14.png,images/simple/12.png","2","null","","200","283.7900000042282","","","","background","",""
"","null","html-keyboard-response","246","270886","0.0-20.0-0.16","SS1604514246150","","null","","","","","","","","","","","","<img src=images/blank.png width =""500"" height = ""500"" style=""border:5px solid black"">","","",""
"","74.67000000178814","stimulus-presentation","247","271164","0.0-20.0-1.16","SS1604514246150","<img src='images/simple/11.png' width ='500' height = '500' style='border:5px solid black'>","40","all_simple","images/simple/13.png","images/simple/11.png","images/simple/4.png,images/simple/5.png,images/simple/8.png,images/simple/18.png,images/simple/9.png,images/simple/14.png,images/simple/12.png","2","null","","200","274.67000000178814","","","","background","",""
"","null","html-keyboard-response","248","272077","0.0-20.0-0.17","SS1604514246150","","null","","","","","","","","","","","","<img src=images/blank.png width =""500"" height = ""500"" style=""border:5px solid black"">","","",""
"","115.05500000203028","stimulus-presentation","249","272395","0.0-20.0-1.17","SS1604514246150","<img src='images/simple/11.png' width ='500' height = '500' style='border:5px solid black'>","40","all_simple","images/simple/13.png","images/simple/11.png","images/simple/4.png,images/simple/5.png,images/simple/8.png,images/simple/18.png,images/simple/9.png,images/simple/14.png,images/simple/12.png","2","null","","200","315.0550000020303","","","","background","",""
"","null","html-keyboard-response","250","273354","0.0-20.0-0.18","SS1604514246150","","null","","","","","","","","","","","","<img src=images/blank.png width =""500"" height = ""500"" style=""border:5px solid black"">","","",""
"","88.09999999357387","stimulus-presentation","251","273645","0.0-20.0-1.18","SS1604514246150","<img src='images/simple/11.png' width ='500' height = '500' style='border:5px solid black'>","40","all_simple","images/simple/13.png","images/simple/11.png","images/simple/4.png,images/simple/5.png,images/simple/8.png,images/simple/18.png,images/simple/9.png,images/simple/14.png,images/simple/12.png","2","null","","200","288.0999999935739","","","","background","",""
"","null","html-keyboard-response","252","274885","0.0-20.0-0.19","SS1604514246150","","null","","","","","","","","","","","","<img src=images/blank.png width =""500"" height = ""500"" style=""border:5px solid black"">","","",""
"","106.88499998650514","stimulus-presentation","253","275195","0.0-20.0-1.19","SS1604514246150","<img src='images/simple/11.png' width ='500' height = '500' style='border:5px solid black'>","40","all_simple","images/simple/13.png","images/simple/11.png","images/simple/4.png,images/simple/5.png,images/simple/8.png,images/simple/18.png,images/simple/9.png,images/simple/14.png,images/simple/12.png","2","null","","200","306.88499998650514","","","","background","",""
"","null","html-keyboard-response","254","276291","0.0-20.0-0.20","SS1604514246150","","null","","","","","","","","","","","","<img src=images/blank.png width =""500"" height = ""500"" style=""border:5px solid black"">","","",""
"","87.83499998389743","stimulus-presentation","255","276582","0.0-20.0-1.20","SS1604514246150","<img src='images/simple/11.png' width ='500' height = '500' style='border:5px solid black'>","40","all_simple","images/simple/13.png","images/simple/11.png","images/simple/4.png,images/simple/5.png,images/simple/8.png,images/simple/18.png,images/simple/9.png,images/simple/14.png,images/simple/12.png","2","null","","200","287.83499998389743","","","","background","",""
"","null","html-keyboard-response","256","277735","0.0-20.0-0.21","SS1604514246150","","null","","","","","","","","","","","","<img src=images/blank.png width =""500"" height = ""500"" style=""border:5px solid black"">","","",""
"","84.43499999702908","stimulus-presentation","257","278023","0.0-20.0-1.21","SS1604514246150","<img src='images/simple/11.png' width ='500' height = '500' style='border:5px solid black'>","40","all_simple","images/simple/13.png","images/simple/11.png","images/simple/4.png,images/simple/5.png,images/simple/8.png,images/simple/18.png,images/simple/9.png,images/simple/14.png,images/simple/12.png","2","null","","200","284.4349999970291","","","","background","",""
"","null","html-keyboard-response","258","279147","0.0-20.0-0.22","SS1604514246150","","null","","","","","","","","","","","","<img src=images/blank.png width =""500"" height = ""500"" style=""border:5px solid black"">","","",""
"","78.97499998216517","stimulus-presentation","259","279430","0.0-20.0-1.22","SS1604514246150","<img src='images/simple/14.png' width ='500' height = '500' style='border:5px solid black'>","40","all_simple","images/simple/13.png","images/simple/11.png","images/simple/4.png,images/simple/5.png,images/simple/8.png,images/simple/18.png,images/simple/9.png,images/simple/14.png,images/simple/12.png","2","null","","200","278.9749999821652","","","","deviant","",""
"","null","html-keyboard-response","260","280671","0.0-20.0-0.23","SS1604514246150","","null","","","","","","","","","","","","<img src=images/blank.png width =""500"" height = ""500"" style=""border:5px solid black"">","","",""
"","158.13499997602776","stimulus-presentation","261","281033","0.0-20.0-1.23","SS1604514246150","<img src='images/simple/11.png' width ='500' height = '500' style='border:5px solid black'>","40","all_simple","images/simple/13.png","images/simple/11.png","images/simple/4.png,images/simple/5.png,images/simple/8.png,images/simple/18.png,images/simple/9.png,images/simple/14.png,images/simple/12.png","2","null","","200","358.13499997602776","","","","background","",""
"","null","html-keyboard-response","262","281992","0.0-20.0-0.24","SS1604514246150","","null","","","","","","","","","","","","<img src=images/blank.png width =""500"" height = ""500"" style=""border:5px solid black"">","","",""
"","107.17500001192093","stimulus-presentation","263","282303","0.0-20.0-1.24","SS1604514246150","<img src='images/simple/11.png' width ='500' height = '500' style='border:5px solid black'>","40","all_simple","images/simple/13.png","images/simple/11.png","images/simple/4.png,images/simple/5.png,images/simple/8.png,images/simple/18.png,images/simple/9.png,images/simple/14.png,images/simple/12.png","2","null","","200","307.17500001192093","","","","background","",""
"","null","html-keyboard-response","264","283333","0.0-20.0-0.25","SS1604514246150","","null","","","","","","","","","","","","<img src=images/blank.png width =""500"" height = ""500"" style=""border:5px solid black"">","","",""
"","1685.2749999961816","stimulus-presentation","265","285223","0.0-20.0-1.25","SS1604514246150","<img src='images/simple/13.png' width ='500' height = '500' style='border:5px solid black'>","40","all_simple","images/simple/13.png","images/simple/11.png","images/simple/4.png,images/simple/5.png,images/simple/8.png,images/simple/18.png,images/simple/9.png,images/simple/14.png,images/simple/12.png","2","null","","200","1885.2749999961816","yes","488.45999999321066","","target","",""
"","null","html-keyboard-response","266","286414","0.0-20.0-0.26","SS1604514246150","","null","","","","","","","","","","","","<img src=images/blank.png width =""500"" height = ""500"" style=""border:5px solid black"">","","",""
"","82.19499999540858","stimulus-presentation","267","286700","0.0-20.0-1.26","SS1604514246150","<img src='images/simple/11.png' width ='500' height = '500' style='border:5px solid black'>","40","all_simple","images/simple/13.png","images/simple/11.png","images/simple/4.png,images/simple/5.png,images/simple/8.png,images/simple/18.png,images/simple/9.png,images/simple/14.png,images/simple/12.png","2","null","","200","282.1949999954086","","","","background","",""
"","null","html-keyboard-response","268","287616","0.0-20.0-0.27","SS1604514246150","","null","","","","","","","","","","","","<img src=images/blank.png width =""500"" height = ""500"" style=""border:5px solid black"">","","",""
"","56.249999994179234","stimulus-presentation","269","287875","0.0-20.0-1.27","SS1604514246150","<img src='images/simple/11.png' width ='500' height = '500' style='border:5px solid black'>","40","all_simple","images/simple/13.png","images/simple/11.png","images/simple/4.png,images/simple/5.png,images/simple/8.png,images/simple/18.png,images/simple/9.png,images/simple/14.png,images/simple/12.png","2","null","","200","256.24999999417923","","","","background","",""
"","null","html-keyboard-response","270","288835","0.0-20.0-0.28","SS1604514246150","","null","","","","","","","","","","","","<img src=images/blank.png width =""500"" height = ""500"" style=""border:5px solid black"">","","",""
"","316.4550000219606","stimulus-presentation","271","289356","0.0-20.0-1.28","SS1604514246150","<img src='images/simple/18.png' width ='500' height = '500' style='border:5px solid black'>","40","all_simple","images/simple/13.png","images/simple/11.png","images/simple/4.png,images/simple/5.png,images/simple/8.png,images/simple/18.png,images/simple/9.png,images/simple/14.png,images/simple/12.png","2","null","","200","516.4550000219606","","","","deviant","",""
"","null","html-keyboard-response","272","290312","0.0-20.0-0.29","SS1604514246150","","null","","","","","","","","","","","","<img src=images/blank.png width =""500"" height = ""500"" style=""border:5px solid black"">","","",""
"","1934.8449999815784","stimulus-presentation","273","292451","0.0-20.0-1.29","SS1604514246150","<img src='images/simple/13.png' width ='500' height = '500' style='border:5px solid black'>","40","all_simple","images/simple/13.png","images/simple/11.png","images/simple/4.png,images/simple/5.png,images/simple/8.png,images/simple/18.png,images/simple/9.png,images/simple/14.png,images/simple/12.png","2","null","","200","2134.8449999815784","yes","358.03499998291954","","target","",""
"","null","html-keyboard-response","274","293553","0.0-20.0-0.30","SS1604514246150","","null","","","","","","","","","","","","<img src=images/blank.png width =""500"" height = ""500"" style=""border:5px solid black"">","","",""
"","86.92500001052395","stimulus-presentation","275","293845","0.0-20.0-1.30","SS1604514246150","<img src='images/simple/13.png' width ='500' height = '500' style='border:5px solid black'>","40","all_simple","images/simple/13.png","images/simple/11.png","images/simple/4.png,images/simple/5.png,images/simple/8.png,images/simple/18.png,images/simple/9.png,images/simple/14.png,images/simple/12.png","2","null","","200","286.92500001052395","","","","target","",""
"","null","html-keyboard-response","276","294774","0.0-20.0-0.31","SS1604514246150","","null","","","","","","","","","","","","<img src=images/blank.png width =""500"" height = ""500"" style=""border:5px solid black"">","","",""
"","166.07499998644926","stimulus-presentation","277","295145","0.0-20.0-1.31","SS1604514246150","<img src='images/simple/12.png' width ='500' height = '500' style='border:5px solid black'>","40","all_simple","images/simple/13.png","images/simple/11.png","images/simple/4.png,images/simple/5.png,images/simple/8.png,images/simple/18.png,images/simple/9.png,images/simple/14.png,images/simple/12.png","2","null","","200","366.07499998644926","","","","deviant","",""
"","null","html-keyboard-response","278","296243","0.0-20.0-0.32","SS1604514246150","","null","","","","","","","","","","","","<img src=images/blank.png width =""500"" height = ""500"" style=""border:5px solid black"">","","",""
"","110.53999999421649","stimulus-presentation","279","296557","0.0-20.0-1.32","SS1604514246150","<img src='images/simple/11.png' width ='500' height = '500' style='border:5px solid black'>","40","all_simple","images/simple/13.png","images/simple/11.png","images/simple/4.png,images/simple/5.png,images/simple/8.png,images/simple/18.png,images/simple/9.png,images/simple/14.png,images/simple/12.png","2","null","","200","310.5399999942165","","","","background","",""
"","null","html-keyboard-response","280","297747","0.0-20.0-0.33","SS1604514246150","","null","","","","","","","","","","","","<img src=images/blank.png width =""500"" height = ""500"" style=""border:5px solid black"">","","",""
"","86.8250000057742","stimulus-presentation","281","298039","0.0-20.0-1.33","SS1604514246150","<img src='images/simple/4.png' width ='500' height = '500' style='border:5px solid black'>","40","all_simple","images/simple/13.png","images/simple/11.png","images/simple/4.png,images/simple/5.png,images/simple/8.png,images/simple/18.png,images/simple/9.png,images/simple/14.png,images/simple/12.png","2","null","","200","286.8250000057742","","","","deviant","",""
"","null","html-keyboard-response","282","299090","0.0-20.0-0.34","SS1604514246150","","null","","","","","","","","","","","","<img src=images/blank.png width =""500"" height = ""500"" style=""border:5px solid black"">","","",""
"","66.56000000657514","stimulus-presentation","283","299360","0.0-20.0-1.34","SS1604514246150","<img src='images/simple/11.png' width ='500' height = '500' style='border:5px solid black'>","40","all_simple","images/simple/13.png","images/simple/11.png","images/simple/4.png,images/simple/5.png,images/simple/8.png,images/simple/18.png,images/simple/9.png,images/simple/14.png,images/simple/12.png","2","null","","200","266.56000000657514","","","","background","",""
