"view_history","rt","trial_type","trial_index","time_elapsed","internal_node_id","subject","trial_stimulus","key_press","task_type","task_target_stimulus","task_background_stimulus","task_deviant_stimuli","task_order_number","block_order_number","trial_order_number","minimum_viewing_duration","trial_looking_time","trial_pressed_space_bar","trial_space_bar_rt","stimulus","trial_stimulus_type","responses","question_order"
"[{""page_index"":0,""viewing_time"":76712.40999997826}]","76717.49999999884","instructions","0","76897","0.0-0.0","SS1604611082894","","","","","","","","","","","","","","","","",""
"[{""page_index"":0,""viewing_time"":2208.379999996396},{""page_index"":1,""viewing_time"":2063.27000001329},{""page_index"":2,""viewing_time"":1295.7900000037625},{""page_index"":3,""viewing_time"":1489.1999999817926},{""page_index"":4,""viewing_time"":1094.7050000249874},{""page_index"":5,""viewing_time"":1689.1999999934342},{""page_index"":6,""viewing_time"":1998.9500000083353},{""page_index"":7,""viewing_time"":1247.5699999777135},{""page_index"":8,""viewing_time"":2497.4349999974947}]","15585.79500002088","instructions","1","92496","0.0-1.0","SS1604611082894","","","","","","","","","","","","","","","","",""
"[{""page_index"":0,""viewing_time"":5092.269999993732},{""page_index"":1,""viewing_time"":2783.0400000093505},{""page_index"":2,""viewing_time"":1975.8450000081211}]","9852.100000018254","instructions","2","102358","0.0-2.0","SS1604611082894","","","","","","","","","","","","","","","","",""
"","2726.7050000082236","practice-block","3","105305","0.0-3.0","SS1604611082894","<img src='images/practice/practice_background.jpeg' width ='500' height = '500' style='border:5px solid black'>","40","null","images/practice/practice_target.jpg","null","null","null","null","","200","2926.7050000082236","","","","","",""
"","null","html-keyboard-response","4","106478","0.0-4.0","SS1604611082894","","null","","","","","","","","","","","","<img src=images/blank.png width =""500"" height = ""500"" style=""border:5px solid black"">","","",""
"","1524.665000004461","practice-block","5","108216","0.0-5.0","SS1604611082894","<img src='images/practice/practice_background.jpeg' width ='500' height = '500' style='border:5px solid black'>","40","null","images/practice/practice_target.jpg","null","null","null","null","","200","1724.665000004461","","","","","",""
"","null","html-keyboard-response","6","109049","0.0-6.0","SS1604611082894","","null","","","","","","","","","","","","<img src=images/blank.png width =""500"" height = ""500"" style=""border:5px solid black"">","","",""
"","300.4349999828264","practice-block","7","109563","0.0-7.0","SS1604611082894","<img src='images/practice/practice_deviant.jpeg' width ='500' height = '500' style='border:5px solid black'>","40","null","images/practice/practice_target.jpg","null","null","null","null","","200","500.4349999828264","","","","","",""
"","null","html-keyboard-response","8","110760","0.0-8.0","SS1604611082894","","null","","","","","","","","","","","","<img src=images/blank.png width =""500"" height = ""500"" style=""border:5px solid black"">","","",""
"","205.81499999389052","practice-block","9","117047","0.0-9.0-0.0","SS1604611082894","<img src='images/practice/practice_target.jpg' width ='500' height = '500' style='border:5px solid black'>","40","null","images/practice/practice_target.jpg","null","null","null","null","","200","405.8149999938905","","","","","",""
"","19820.92999998713","practice-block","10","137084","0.0-9.1-0.1","SS1604611082894","<img src='images/practice/practice_target.jpg' width ='500' height = '500' style='border:5px solid black'>","40","null","images/practice/practice_target.jpg","null","null","null","null","","200","20020.92999998713","yes","707.8699999838136","","","",""
"","null","html-keyboard-response","11","138383","0.0-10.0","SS1604611082894","","null","","","","","","","","","","","","<img src=images/blank.png width =""500"" height = ""500"" style=""border:5px solid black"">","","",""
"","1899.1650000098161","practice-block","12","140494","0.0-11.0","SS1604611082894","<img src='images/practice/practice_background.jpeg' width ='500' height = '500' style='border:5px solid black'>","40","null","images/practice/practice_target.jpg","null","null","null","null","","200","2099.165000009816","","","","","",""
"[{""page_index"":0,""viewing_time"":2608}]","2609","task-instructions","13","143112","0.0-12.0","SS1604611082894","","","","","","","","","","","","","","","","",""
"[{""page_index"":0,""viewing_time"":2271.424999984447},{""page_index"":1,""viewing_time"":8679.865000012796},{""page_index"":2,""viewing_time"":1063.865000003716}]","12015.959999989718","instructions","14","155140","0.0-13.0","SS1604611082894","","","","","","","","","","","","","","","","",""
"","null","html-keyboard-response","15","156053","0.0-14.0-0.0","SS1604611082894","","null","","","","","","","","","","","","<img src=images/blank.png width =""500"" height = ""500"" style=""border:5px solid black"">","","",""
"","775.2899999904912","stimulus-presentation","16","157046","0.0-14.0-1.0","SS1604611082894","<img src='images/complex/2.png' width ='500' height = '500' style='border:5px solid black'>","40","mixed_simple_deviant","images/complex/18.png","images/complex/2.png","images/simple/14.png,images/simple/13.png,images/simple/9.png,images/simple/10.png,images/simple/5.png,images/simple/16.png,images/simple/17.png","0","null","","200","975.2899999904912","","","","background","",""
"","null","html-keyboard-response","17","158282","0.0-14.0-0.1","SS1604611082894","","null","","","","","","","","","","","","<img src=images/blank.png width =""500"" height = ""500"" style=""border:5px solid black"">","","",""
"","7695.285000023432","stimulus-presentation","18","166194","0.0-14.0-1.1","SS1604611082894","<img src='images/complex/18.png' width ='500' height = '500' style='border:5px solid black'>","40","mixed_simple_deviant","images/complex/18.png","images/complex/2.png","images/simple/14.png,images/simple/13.png,images/simple/9.png,images/simple/10.png,images/simple/5.png,images/simple/16.png,images/simple/17.png","0","null","","200","7895.285000023432","yes","4462.260000000242","","target","",""
"","null","html-keyboard-response","19","167241","0.0-14.0-0.2","SS1604611082894","","null","","","","","","","","","","","","<img src=images/blank.png width =""500"" height = ""500"" style=""border:5px solid black"">","","",""
"","575.3700000059325","stimulus-presentation","20","168026","0.0-14.0-1.2","SS1604611082894","<img src='images/complex/2.png' width ='500' height = '500' style='border:5px solid black'>","40","mixed_simple_deviant","images/complex/18.png","images/complex/2.png","images/simple/14.png,images/simple/13.png,images/simple/9.png,images/simple/10.png,images/simple/5.png,images/simple/16.png,images/simple/17.png","0","null","","200","775.3700000059325","","","","background","",""
"","null","html-keyboard-response","21","168933","0.0-14.0-0.3","SS1604611082894","","null","","","","","","","","","","","","<img src=images/blank.png width =""500"" height = ""500"" style=""border:5px solid black"">","","",""
"","390.61500001116656","stimulus-presentation","22","169533","0.0-14.0-1.3","SS1604611082894","<img src='images/simple/17.png' width ='500' height = '500' style='border:5px solid black'>","40","mixed_simple_deviant","images/complex/18.png","images/complex/2.png","images/simple/14.png,images/simple/13.png,images/simple/9.png,images/simple/10.png,images/simple/5.png,images/simple/16.png,images/simple/17.png","0","null","","200","590.6150000111666","","","","deviant","",""
"","null","html-keyboard-response","23","170362","0.0-14.0-0.4","SS1604611082894","","null","","","","","","","","","","","","<img src=images/blank.png width =""500"" height = ""500"" style=""border:5px solid black"">","","",""
"","457.9950000043027","stimulus-presentation","24","171030","0.0-14.0-1.4","SS1604611082894","<img src='images/complex/2.png' width ='500' height = '500' style='border:5px solid black'>","40","mixed_simple_deviant","images/complex/18.png","images/complex/2.png","images/simple/14.png,images/simple/13.png,images/simple/9.png,images/simple/10.png,images/simple/5.png,images/simple/16.png,images/simple/17.png","0","null","","200","657.9950000043027","","","","background","",""
"","null","html-keyboard-response","25","171960","0.0-14.0-0.5","SS1604611082894","","null","","","","","","","","","","","","<img src=images/blank.png width =""500"" height = ""500"" style=""border:5px solid black"">","","",""
"","1170.589999994263","stimulus-presentation","26","173339","0.0-14.0-1.5","SS1604611082894","<img src='images/complex/18.png' width ='500' height = '500' style='border:5px solid black'>","40","mixed_simple_deviant","images/complex/18.png","images/complex/2.png","images/simple/14.png,images/simple/13.png,images/simple/9.png,images/simple/10.png,images/simple/5.png,images/simple/16.png,images/simple/17.png","0","null","","200","1370.589999994263","yes","347.0450000022538","","target","",""
"","null","html-keyboard-response","27","174541","0.0-14.0-0.6","SS1604611082894","","null","","","","","","","","","","","","<img src=images/blank.png width =""500"" height = ""500"" style=""border:5px solid black"">","","",""
"","183.50500002270564","stimulus-presentation","28","174935","0.0-14.0-1.6","SS1604611082894","<img src='images/complex/2.png' width ='500' height = '500' style='border:5px solid black'>","40","mixed_simple_deviant","images/complex/18.png","images/complex/2.png","images/simple/14.png,images/simple/13.png,images/simple/9.png,images/simple/10.png,images/simple/5.png,images/simple/16.png,images/simple/17.png","0","null","","200","383.50500002270564","","","","background","",""
"","null","html-keyboard-response","29","175900","0.0-14.0-0.7","SS1604611082894","","null","","","","","","","","","","","","<img src=images/blank.png width =""500"" height = ""500"" style=""border:5px solid black"">","","",""
"","1998.9850000129081","stimulus-presentation","30","178107","0.0-14.0-1.7","SS1604611082894","<img src='images/complex/18.png' width ='500' height = '500' style='border:5px solid black'>","40","mixed_simple_deviant","images/complex/18.png","images/complex/2.png","images/simple/14.png,images/simple/13.png,images/simple/9.png,images/simple/10.png,images/simple/5.png,images/simple/16.png,images/simple/17.png","0","null","","200","2198.985000012908","yes","344.600000011269","","target","",""
"","null","html-keyboard-response","31","178997","0.0-14.0-0.8","SS1604611082894","","null","","","","","","","","","","","","<img src=images/blank.png width =""500"" height = ""500"" style=""border:5px solid black"">","","",""
"","517.584999994142","stimulus-presentation","32","179724","0.0-14.0-1.8","SS1604611082894","<img src='images/simple/5.png' width ='500' height = '500' style='border:5px solid black'>","40","mixed_simple_deviant","images/complex/18.png","images/complex/2.png","images/simple/14.png,images/simple/13.png,images/simple/9.png,images/simple/10.png,images/simple/5.png,images/simple/16.png,images/simple/17.png","0","null","","200","717.584999994142","","","","deviant","",""
"","null","html-keyboard-response","33","180794","0.0-14.0-0.9","SS1604611082894","","null","","","","","","","","","","","","<img src=images/blank.png width =""500"" height = ""500"" style=""border:5px solid black"">","","",""
"","6500.8749999979045","stimulus-presentation","34","187508","0.0-14.0-1.9","SS1604611082894","<img src='images/complex/18.png' width ='500' height = '500' style='border:5px solid black'>","40","mixed_simple_deviant","images/complex/18.png","images/complex/2.png","images/simple/14.png,images/simple/13.png,images/simple/9.png,images/simple/10.png,images/simple/5.png,images/simple/16.png,images/simple/17.png","0","null","","200","6700.8749999979045","yes","393.58000000356697","","target","",""
"","null","html-keyboard-response","35","188503","0.0-14.0-0.10","SS1604611082894","","null","","","","","","","","","","","","<img src=images/blank.png width =""500"" height = ""500"" style=""border:5px solid black"">","","",""
"","366.9999999983702","stimulus-presentation","36","189081","0.0-14.0-1.10","SS1604611082894","<img src='images/complex/2.png' width ='500' height = '500' style='border:5px solid black'>","40","mixed_simple_deviant","images/complex/18.png","images/complex/2.png","images/simple/14.png,images/simple/13.png,images/simple/9.png,images/simple/10.png,images/simple/5.png,images/simple/16.png,images/simple/17.png","0","null","","200","566.9999999983702","","","","background","",""
"","null","html-keyboard-response","37","190345","0.0-14.0-0.11","SS1604611082894","","null","","","","","","","","","","","","<img src=images/blank.png width =""500"" height = ""500"" style=""border:5px solid black"">","","",""
"","550.3650000027847","stimulus-presentation","38","191105","0.0-14.0-1.11","SS1604611082894","<img src='images/complex/2.png' width ='500' height = '500' style='border:5px solid black'>","40","mixed_simple_deviant","images/complex/18.png","images/complex/2.png","images/simple/14.png,images/simple/13.png,images/simple/9.png,images/simple/10.png,images/simple/5.png,images/simple/16.png,images/simple/17.png","0","null","","200","750.3650000027847","","","","background","",""
"","null","html-keyboard-response","39","192081","0.0-14.0-0.12","SS1604611082894","","null","","","","","","","","","","","","<img src=images/blank.png width =""500"" height = ""500"" style=""border:5px solid black"">","","",""
"","290.1350000174716","stimulus-presentation","40","192582","0.0-14.0-1.12","SS1604611082894","<img src='images/simple/14.png' width ='500' height = '500' style='border:5px solid black'>","40","mixed_simple_deviant","images/complex/18.png","images/complex/2.png","images/simple/14.png,images/simple/13.png,images/simple/9.png,images/simple/10.png,images/simple/5.png,images/simple/16.png,images/simple/17.png","0","null","","200","490.1350000174716","","","","deviant","",""
"","null","html-keyboard-response","41","193694","0.0-14.0-0.13","SS1604611082894","","null","","","","","","","","","","","","<img src=images/blank.png width =""500"" height = ""500"" style=""border:5px solid black"">","","",""
"","77.1099999838043","stimulus-presentation","42","193978","0.0-14.0-1.13","SS1604611082894","<img src='images/complex/2.png' width ='500' height = '500' style='border:5px solid black'>","40","mixed_simple_deviant","images/complex/18.png","images/complex/2.png","images/simple/14.png,images/simple/13.png,images/simple/9.png,images/simple/10.png,images/simple/5.png,images/simple/16.png,images/simple/17.png","0","null","","200","277.1099999838043","","","","background","",""
"","null","html-keyboard-response","43","195008","0.0-14.0-0.14","SS1604611082894","","null","","","","","","","","","","","","<img src=images/blank.png width =""500"" height = ""500"" style=""border:5px solid black"">","","",""
"","118.68499999400228","stimulus-presentation","44","195339","0.0-14.0-1.14","SS1604611082894","<img src='images/complex/2.png' width ='500' height = '500' style='border:5px solid black'>","40","mixed_simple_deviant","images/complex/18.png","images/complex/2.png","images/simple/14.png,images/simple/13.png,images/simple/9.png,images/simple/10.png,images/simple/5.png,images/simple/16.png,images/simple/17.png","0","null","","200","318.6849999940023","","","","background","",""
"","null","html-keyboard-response","45","196416","0.0-14.0-0.15","SS1604611082894","","null","","","","","","","","","","","","<img src=images/blank.png width =""500"" height = ""500"" style=""border:5px solid black"">","","",""
"","131.47500000195578","stimulus-presentation","46","196757","0.0-14.0-1.15","SS1604611082894","<img src='images/complex/2.png' width ='500' height = '500' style='border:5px solid black'>","40","mixed_simple_deviant","images/complex/18.png","images/complex/2.png","images/simple/14.png,images/simple/13.png,images/simple/9.png,images/simple/10.png,images/simple/5.png,images/simple/16.png,images/simple/17.png","0","null","","200","331.4750000019558","","","","background","",""
"","null","html-keyboard-response","47","198030","0.0-14.0-0.16","SS1604611082894","","null","","","","","","","","","","","","<img src=images/blank.png width =""500"" height = ""500"" style=""border:5px solid black"">","","",""
"","229.0649999922607","stimulus-presentation","48","198473","0.0-14.0-1.16","SS1604611082894","<img src='images/complex/2.png' width ='500' height = '500' style='border:5px solid black'>","40","mixed_simple_deviant","images/complex/18.png","images/complex/2.png","images/simple/14.png,images/simple/13.png,images/simple/9.png,images/simple/10.png,images/simple/5.png,images/simple/16.png,images/simple/17.png","0","null","","200","429.0649999922607","","","","background","",""
"","null","html-keyboard-response","49","199519","0.0-14.0-0.17","SS1604611082894","","null","","","","","","","","","","","","<img src=images/blank.png width =""500"" height = ""500"" style=""border:5px solid black"">","","",""
"","406.90500001073815","stimulus-presentation","50","200137","0.0-14.0-1.17","SS1604611082894","<img src='images/simple/9.png' width ='500' height = '500' style='border:5px solid black'>","40","mixed_simple_deviant","images/complex/18.png","images/complex/2.png","images/simple/14.png,images/simple/13.png,images/simple/9.png,images/simple/10.png,images/simple/5.png,images/simple/16.png,images/simple/17.png","0","null","","200","606.9050000107381","","","","deviant","",""
"","null","html-keyboard-response","51","201263","0.0-14.0-0.18","SS1604611082894","","null","","","","","","","","","","","","<img src=images/blank.png width =""500"" height = ""500"" style=""border:5px solid black"">","","",""
"","257.2550000040792","stimulus-presentation","52","201735","0.0-14.0-1.18","SS1604611082894","<img src='images/complex/2.png' width ='500' height = '500' style='border:5px solid black'>","40","mixed_simple_deviant","images/complex/18.png","images/complex/2.png","images/simple/14.png,images/simple/13.png,images/simple/9.png,images/simple/10.png,images/simple/5.png,images/simple/16.png,images/simple/17.png","0","null","","200","457.2550000040792","","","","background","",""
"","null","html-keyboard-response","53","202675","0.0-14.0-0.19","SS1604611082894","","null","","","","","","","","","","","","<img src=images/blank.png width =""500"" height = ""500"" style=""border:5px solid black"">","","",""
"","225.78999999677762","stimulus-presentation","54","203112","0.0-14.0-1.19","SS1604611082894","<img src='images/complex/2.png' width ='500' height = '500' style='border:5px solid black'>","40","mixed_simple_deviant","images/complex/18.png","images/complex/2.png","images/simple/14.png,images/simple/13.png,images/simple/9.png,images/simple/10.png,images/simple/5.png,images/simple/16.png,images/simple/17.png","0","null","","200","425.7899999967776","","","","background","",""
"","null","html-keyboard-response","55","204393","0.0-14.0-0.20","SS1604611082894","","null","","","","","","","","","","","","<img src=images/blank.png width =""500"" height = ""500"" style=""border:5px solid black"">","","",""
"","74976.69500001939","stimulus-presentation","56","279583","0.0-14.0-1.20","SS1604611082894","<img src='images/complex/2.png' width ='500' height = '500' style='border:5px solid black'>","40","mixed_simple_deviant","images/complex/18.png","images/complex/2.png","images/simple/14.png,images/simple/13.png,images/simple/9.png,images/simple/10.png,images/simple/5.png,images/simple/16.png,images/simple/17.png","0","null","","200","75176.69500001939","","","","background","",""
"","null","html-keyboard-response","57","280635","0.0-14.0-0.21","SS1604611082894","","null","","","","","","","","","","","","<img src=images/blank.png width =""500"" height = ""500"" style=""border:5px solid black"">","","",""
"","320.7249999977648","stimulus-presentation","58","281172","0.0-14.0-1.21","SS1604611082894","<img src='images/complex/2.png' width ='500' height = '500' style='border:5px solid black'>","40","mixed_simple_deviant","images/complex/18.png","images/complex/2.png","images/simple/14.png,images/simple/13.png,images/simple/9.png,images/simple/10.png,images/simple/5.png,images/simple/16.png,images/simple/17.png","0","null","","200","520.7249999977648","","","","background","",""
"","null","html-keyboard-response","59","282156","0.0-14.0-0.22","SS1604611082894","","null","","","","","","","","","","","","<img src=images/blank.png width =""500"" height = ""500"" style=""border:5px solid black"">","","",""
"","92.42000000085682","stimulus-presentation","60","282461","0.0-14.0-1.22","SS1604611082894","<img src='images/complex/2.png' width ='500' height = '500' style='border:5px solid black'>","40","mixed_simple_deviant","images/complex/18.png","images/complex/2.png","images/simple/14.png,images/simple/13.png,images/simple/9.png,images/simple/10.png,images/simple/5.png,images/simple/16.png,images/simple/17.png","0","null","","200","292.4200000008568","","","","background","",""
"","null","html-keyboard-response","61","283557","0.0-14.0-0.23","SS1604611082894","","null","","","","","","","","","","","","<img src=images/blank.png width =""500"" height = ""500"" style=""border:5px solid black"">","","",""
"","2955.260000017006","stimulus-presentation","62","286723","0.0-14.0-1.23","SS1604611082894","<img src='images/complex/18.png' width ='500' height = '500' style='border:5px solid black'>","40","mixed_simple_deviant","images/complex/18.png","images/complex/2.png","images/simple/14.png,images/simple/13.png,images/simple/9.png,images/simple/10.png,images/simple/5.png,images/simple/16.png,images/simple/17.png","0","null","","200","3155.260000017006","yes","1604.2500000039581","","target","",""
"","null","html-keyboard-response","63","287741","0.0-14.0-0.24","SS1604611082894","","null","","","","","","","","","","","","<img src=images/blank.png width =""500"" height = ""500"" style=""border:5px solid black"">","","",""
"","451.8800000078045","stimulus-presentation","64","288404","0.0-14.0-1.24","SS1604611082894","<img src='images/complex/2.png' width ='500' height = '500' style='border:5px solid black'>","40","mixed_simple_deviant","images/complex/18.png","images/complex/2.png","images/simple/14.png,images/simple/13.png,images/simple/9.png,images/simple/10.png,images/simple/5.png,images/simple/16.png,images/simple/17.png","0","null","","200","651.8800000078045","","","","background","",""
"","null","html-keyboard-response","65","289684","0.0-14.0-0.25","SS1604611082894","","null","","","","","","","","","","","","<img src=images/blank.png width =""500"" height = ""500"" style=""border:5px solid black"">","","",""
"","355.0200000172481","stimulus-presentation","66","290254","0.0-14.0-1.25","SS1604611082894","<img src='images/complex/2.png' width ='500' height = '500' style='border:5px solid black'>","40","mixed_simple_deviant","images/complex/18.png","images/complex/2.png","images/simple/14.png,images/simple/13.png,images/simple/9.png,images/simple/10.png,images/simple/5.png,images/simple/16.png,images/simple/17.png","0","null","","200","555.0200000172481","","","","background","",""
"","null","html-keyboard-response","67","291346","0.0-14.0-0.26","SS1604611082894","","null","","","","","","","","","","","","<img src=images/blank.png width =""500"" height = ""500"" style=""border:5px solid black"">","","",""
"","15130.13000000501","stimulus-presentation","68","306691","0.0-14.0-1.26","SS1604611082894","<img src='images/complex/18.png' width ='500' height = '500' style='border:5px solid black'>","40","mixed_simple_deviant","images/complex/18.png","images/complex/2.png","images/simple/14.png,images/simple/13.png,images/simple/9.png,images/simple/10.png,images/simple/5.png,images/simple/16.png,images/simple/17.png","0","null","","200","15330.13000000501","yes","637.300000002142","","target","",""
"","null","html-keyboard-response","69","307966","0.0-14.0-0.27","SS1604611082894","","null","","","","","","","","","","","","<img src=images/blank.png width =""500"" height = ""500"" style=""border:5px solid black"">","","",""
"","223.2699999876786","stimulus-presentation","70","308400","0.0-14.0-1.27","SS1604611082894","<img src='images/simple/13.png' width ='500' height = '500' style='border:5px solid black'>","40","mixed_simple_deviant","images/complex/18.png","images/complex/2.png","images/simple/14.png,images/simple/13.png,images/simple/9.png,images/simple/10.png,images/simple/5.png,images/simple/16.png,images/simple/17.png","0","null","","200","423.2699999876786","","","","deviant","",""
"","null","html-keyboard-response","71","309299","0.0-14.0-0.28","SS1604611082894","","null","","","","","","","","","","","","<img src=images/blank.png width =""500"" height = ""500"" style=""border:5px solid black"">","","",""
"","188.56999999843538","stimulus-presentation","72","309701","0.0-14.0-1.28","SS1604611082894","<img src='images/complex/18.png' width ='500' height = '500' style='border:5px solid black'>","40","mixed_simple_deviant","images/complex/18.png","images/complex/2.png","images/simple/14.png,images/simple/13.png,images/simple/9.png,images/simple/10.png,images/simple/5.png,images/simple/16.png,images/simple/17.png","0","null","","200","388.5699999984354","","","","target","",""
"","null","html-keyboard-response","73","310742","0.0-14.0-0.29","SS1604611082894","","null","","","","","","","","","","","","<img src=images/blank.png width =""500"" height = ""500"" style=""border:5px solid black"">","","",""
"","390.6799999822397","stimulus-presentation","74","311351","0.0-14.0-1.29","SS1604611082894","<img src='images/complex/2.png' width ='500' height = '500' style='border:5px solid black'>","40","mixed_simple_deviant","images/complex/18.png","images/complex/2.png","images/simple/14.png,images/simple/13.png,images/simple/9.png,images/simple/10.png,images/simple/5.png,images/simple/16.png,images/simple/17.png","0","null","","200","590.6799999822397","","","","background","",""
"","null","html-keyboard-response","75","312513","0.0-14.0-0.30","SS1604611082894","","null","","","","","","","","","","","","<img src=images/blank.png width =""500"" height = ""500"" style=""border:5px solid black"">","","",""
"","255.78000000678003","stimulus-presentation","76","312981","0.0-14.0-1.30","SS1604611082894","<img src='images/simple/10.png' width ='500' height = '500' style='border:5px solid black'>","40","mixed_simple_deviant","images/complex/18.png","images/complex/2.png","images/simple/14.png,images/simple/13.png,images/simple/9.png,images/simple/10.png,images/simple/5.png,images/simple/16.png,images/simple/17.png","0","null","","200","455.78000000678","","","","deviant","",""
"","null","html-keyboard-response","77","313952","0.0-14.0-0.31","SS1604611082894","","null","","","","","","","","","","","","<img src=images/blank.png width =""500"" height = ""500"" style=""border:5px solid black"">","","",""
"","502.06499997875653","stimulus-presentation","78","314668","0.0-14.0-1.31","SS1604611082894","<img src='images/complex/2.png' width ='500' height = '500' style='border:5px solid black'>","40","mixed_simple_deviant","images/complex/18.png","images/complex/2.png","images/simple/14.png,images/simple/13.png,images/simple/9.png,images/simple/10.png,images/simple/5.png,images/simple/16.png,images/simple/17.png","0","null","","200","702.0649999787565","","","","background","",""
"","null","html-keyboard-response","79","315743","0.0-14.0-0.32","SS1604611082894","","null","","","","","","","","","","","","<img src=images/blank.png width =""500"" height = ""500"" style=""border:5px solid black"">","","",""
"","460.6999999959953","stimulus-presentation","80","316416","0.0-14.0-1.32","SS1604611082894","<img src='images/complex/2.png' width ='500' height = '500' style='border:5px solid black'>","40","mixed_simple_deviant","images/complex/18.png","images/complex/2.png","images/simple/14.png,images/simple/13.png,images/simple/9.png,images/simple/10.png,images/simple/5.png,images/simple/16.png,images/simple/17.png","0","null","","200","660.6999999959953","","","","background","",""
"","null","html-keyboard-response","81","317362","0.0-14.0-0.33","SS1604611082894","","null","","","","","","","","","","","","<img src=images/blank.png width =""500"" height = ""500"" style=""border:5px solid black"">","","",""
"","880.8049999934155","stimulus-presentation","82","318453","0.0-14.0-1.33","SS1604611082894","<img src='images/complex/2.png' width ='500' height = '500' style='border:5px solid black'>","40","mixed_simple_deviant","images/complex/18.png","images/complex/2.png","images/simple/14.png,images/simple/13.png,images/simple/9.png,images/simple/10.png,images/simple/5.png,images/simple/16.png,images/simple/17.png","0","null","","200","1080.8049999934155","","","","background","",""
"","null","html-keyboard-response","83","319513","0.0-14.0-0.34","SS1604611082894","","null","","","","","","","","","","","","<img src=images/blank.png width =""500"" height = ""500"" style=""border:5px solid black"">","","",""
"","355.9149999928195","stimulus-presentation","84","320082","0.0-14.0-1.34","SS1604611082894","<img src='images/complex/2.png' width ='500' height = '500' style='border:5px solid black'>","40","mixed_simple_deviant","images/complex/18.png","images/complex/2.png","images/simple/14.png,images/simple/13.png,images/simple/9.png,images/simple/10.png,images/simple/5.png,images/simple/16.png,images/simple/17.png","0","null","","200","555.9149999928195","","","","background","",""
"","null","html-keyboard-response","85","320990","0.0-14.0-0.35","SS1604611082894","","null","","","","","","","","","","","","<img src=images/blank.png width =""500"" height = ""500"" style=""border:5px solid black"">","","",""
"","202.57500000298023","stimulus-presentation","86","321404","0.0-14.0-1.35","SS1604611082894","<img src='images/complex/2.png' width ='500' height = '500' style='border:5px solid black'>","40","mixed_simple_deviant","images/complex/18.png","images/complex/2.png","images/simple/14.png,images/simple/13.png,images/simple/9.png,images/simple/10.png,images/simple/5.png,images/simple/16.png,images/simple/17.png","0","null","","200","402.57500000298023","","","","background","",""
"","null","html-keyboard-response","87","322244","0.0-14.0-0.36","SS1604611082894","","null","","","","","","","","","","","","<img src=images/blank.png width =""500"" height = ""500"" style=""border:5px solid black"">","","",""
"","358.7249999982305","stimulus-presentation","88","322814","0.0-14.0-1.36","SS1604611082894","<img src='images/complex/2.png' width ='500' height = '500' style='border:5px solid black'>","40","mixed_simple_deviant","images/complex/18.png","images/complex/2.png","images/simple/14.png,images/simple/13.png,images/simple/9.png,images/simple/10.png,images/simple/5.png,images/simple/16.png,images/simple/17.png","0","null","","200","558.7249999982305","","","","background","",""
"","null","html-keyboard-response","89","323881","0.0-14.0-0.37","SS1604611082894","","null","","","","","","","","","","","","<img src=images/blank.png width =""500"" height = ""500"" style=""border:5px solid black"">","","",""
"","180.8149999997113","stimulus-presentation","90","324274","0.0-14.0-1.37","SS1604611082894","<img src='images/complex/2.png' width ='500' height = '500' style='border:5px solid black'>","40","mixed_simple_deviant","images/complex/18.png","images/complex/2.png","images/simple/14.png,images/simple/13.png,images/simple/9.png,images/simple/10.png,images/simple/5.png,images/simple/16.png,images/simple/17.png","0","null","","200","380.8149999997113","","","","background","",""
"","null","html-keyboard-response","91","325310","0.0-14.0-0.38","SS1604611082894","","null","","","","","","","","","","","","<img src=images/blank.png width =""500"" height = ""500"" style=""border:5px solid black"">","","",""
"","847.3200000007637","stimulus-presentation","92","326370","0.0-14.0-1.38","SS1604611082894","<img src='images/complex/2.png' width ='500' height = '500' style='border:5px solid black'>","40","mixed_simple_deviant","images/complex/18.png","images/complex/2.png","images/simple/14.png,images/simple/13.png,images/simple/9.png,images/simple/10.png,images/simple/5.png,images/simple/16.png,images/simple/17.png","0","null","","200","1047.3200000007637","","","","background","",""
"","null","html-keyboard-response","93","327551","0.0-14.0-0.39","SS1604611082894","","null","","","","","","","","","","","","<img src=images/blank.png width =""500"" height = ""500"" style=""border:5px solid black"">","","",""
"","8701.42999998643","stimulus-presentation","94","336466","0.0-14.0-1.39","SS1604611082894","<img src='images/complex/2.png' width ='500' height = '500' style='border:5px solid black'>","40","mixed_simple_deviant","images/complex/18.png","images/complex/2.png","images/simple/14.png,images/simple/13.png,images/simple/9.png,images/simple/10.png,images/simple/5.png,images/simple/16.png,images/simple/17.png","0","null","","200","8901.42999998643","","","","background","",""
"","null","html-keyboard-response","95","337480","0.0-14.0-0.40","SS1604611082894","","null","","","","","","","","","","","","<img src=images/blank.png width =""500"" height = ""500"" style=""border:5px solid black"">","","",""
"","234.0249999833759","stimulus-presentation","96","337925","0.0-14.0-1.40","SS1604611082894","<img src='images/complex/2.png' width ='500' height = '500' style='border:5px solid black'>","40","mixed_simple_deviant","images/complex/18.png","images/complex/2.png","images/simple/14.png,images/simple/13.png,images/simple/9.png,images/simple/10.png,images/simple/5.png,images/simple/16.png,images/simple/17.png","0","null","","200","434.0249999833759","","","","background","",""
"","null","html-keyboard-response","97","338864","0.0-14.0-0.41","SS1604611082894","","null","","","","","","","","","","","","<img src=images/blank.png width =""500"" height = ""500"" style=""border:5px solid black"">","","",""
"","265.28500000131316","stimulus-presentation","98","339348","0.0-14.0-1.41","SS1604611082894","<img src='images/complex/2.png' width ='500' height = '500' style='border:5px solid black'>","40","mixed_simple_deviant","images/complex/18.png","images/complex/2.png","images/simple/14.png,images/simple/13.png,images/simple/9.png,images/simple/10.png,images/simple/5.png,images/simple/16.png,images/simple/17.png","0","null","","200","465.28500000131316","","","","background","",""
"","null","html-keyboard-response","99","340315","0.0-14.0-0.42","SS1604611082894","","null","","","","","","","","","","","","<img src=images/blank.png width =""500"" height = ""500"" style=""border:5px solid black"">","","",""
"","241.01499997777864","stimulus-presentation","100","340767","0.0-14.0-1.42","SS1604611082894","<img src='images/complex/2.png' width ='500' height = '500' style='border:5px solid black'>","40","mixed_simple_deviant","images/complex/18.png","images/complex/2.png","images/simple/14.png,images/simple/13.png,images/simple/9.png,images/simple/10.png,images/simple/5.png,images/simple/16.png,images/simple/17.png","0","null","","200","441.01499997777864","","","","background","",""
"","null","html-keyboard-response","101","341902","0.0-14.0-0.43","SS1604611082894","","null","","","","","","","","","","","","<img src=images/blank.png width =""500"" height = ""500"" style=""border:5px solid black"">","","",""
"","522.5550000031944","stimulus-presentation","102","342636","0.0-14.0-1.43","SS1604611082894","<img src='images/simple/16.png' width ='500' height = '500' style='border:5px solid black'>","40","mixed_simple_deviant","images/complex/18.png","images/complex/2.png","images/simple/14.png,images/simple/13.png,images/simple/9.png,images/simple/10.png,images/simple/5.png,images/simple/16.png,images/simple/17.png","0","null","","200","722.5550000031944","","","","deviant","",""
"","null","html-keyboard-response","103","343814","0.0-14.0-0.44","SS1604611082894","","null","","","","","","","","","","","","<img src=images/blank.png width =""500"" height = ""500"" style=""border:5px solid black"">","","",""
"","324.9249999935273","stimulus-presentation","104","344354","0.0-14.0-1.44","SS1604611082894","<img src='images/complex/2.png' width ='500' height = '500' style='border:5px solid black'>","40","mixed_simple_deviant","images/complex/18.png","images/complex/2.png","images/simple/14.png,images/simple/13.png,images/simple/9.png,images/simple/10.png,images/simple/5.png,images/simple/16.png,images/simple/17.png","0","null","","200","524.9249999935273","","","","background","",""
"","null","html-keyboard-response","105","345586","0.0-14.0-0.45","SS1604611082894","","null","","","","","","","","","","","","<img src=images/blank.png width =""500"" height = ""500"" style=""border:5px solid black"">","","",""
"","282.66999998595566","stimulus-presentation","106","346089","0.0-14.0-1.45","SS1604611082894","<img src='images/complex/2.png' width ='500' height = '500' style='border:5px solid black'>","40","mixed_simple_deviant","images/complex/18.png","images/complex/2.png","images/simple/14.png,images/simple/13.png,images/simple/9.png,images/simple/10.png,images/simple/5.png,images/simple/16.png,images/simple/17.png","0","null","","200","482.66999998595566","","","","background","",""
"","null","html-keyboard-response","107","347144","0.0-14.0-0.46","SS1604611082894","","null","","","","","","","","","","","","<img src=images/blank.png width =""500"" height = ""500"" style=""border:5px solid black"">","","",""
"","726.6750000126194","stimulus-presentation","108","348082","0.0-14.0-1.46","SS1604611082894","<img src='images/complex/2.png' width ='500' height = '500' style='border:5px solid black'>","40","mixed_simple_deviant","images/complex/18.png","images/complex/2.png","images/simple/14.png,images/simple/13.png,images/simple/9.png,images/simple/10.png,images/simple/5.png,images/simple/16.png,images/simple/17.png","0","null","","200","926.6750000126194","","","","background","",""
"","null","html-keyboard-response","109","349314","0.0-14.0-0.47","SS1604611082894","","null","","","","","","","","","","","","<img src=images/blank.png width =""500"" height = ""500"" style=""border:5px solid black"">","","",""
"","372.2600000037346","stimulus-presentation","110","349899","0.0-14.0-1.47","SS1604611082894","<img src='images/complex/2.png' width ='500' height = '500' style='border:5px solid black'>","40","mixed_simple_deviant","images/complex/18.png","images/complex/2.png","images/simple/14.png,images/simple/13.png,images/simple/9.png,images/simple/10.png,images/simple/5.png,images/simple/16.png,images/simple/17.png","0","null","","200","572.2600000037346","","","","background","",""
"","null","html-keyboard-response","111","351140","0.0-14.0-0.48","SS1604611082894","","null","","","","","","","","","","","","<img src=images/blank.png width =""500"" height = ""500"" style=""border:5px solid black"">","","",""
"","276.880000019446","stimulus-presentation","112","351630","0.0-14.0-1.48","SS1604611082894","<img src='images/complex/2.png' width ='500' height = '500' style='border:5px solid black'>","40","mixed_simple_deviant","images/complex/18.png","images/complex/2.png","images/simple/14.png,images/simple/13.png,images/simple/9.png,images/simple/10.png,images/simple/5.png,images/simple/16.png,images/simple/17.png","0","null","","200","476.880000019446","","","","background","",""
"[{""page_index"":0,""viewing_time"":5148}]","5149","task-instructions","113","356794","0.0-15.0","SS1604611082894","","","","","","","","","","","","","","","","",""
"[{""page_index"":0,""viewing_time"":4410.354999999981},{""page_index"":1,""viewing_time"":8000.450000021374},{""page_index"":2,""viewing_time"":1528.519999992568}]","13940.570000006119","instructions","114","370748","0.0-16.0","SS1604611082894","","","","","","","","","","","","","","","","",""
"","null","html-keyboard-response","115","371806","0.0-17.0-0.0","SS1604611082894","","null","","","","","","","","","","","","<img src=images/blank.png width =""500"" height = ""500"" style=""border:5px solid black"">","","",""
"","580.4199999838602","stimulus-presentation","116","372609","0.0-17.0-1.0","SS1604611082894","<img src='images/complex/6.png' width ='500' height = '500' style='border:5px solid black'>","40","all_complex","images/complex/17.png","images/complex/7.png","images/complex/5.png,images/complex/9.png,images/complex/6.png,images/complex/10.png,images/complex/3.png,images/complex/8.png,images/complex/4.png","1","null","","200","780.4199999838602","","","","deviant","",""
"","null","html-keyboard-response","117","373860","0.0-17.0-0.1","SS1604611082894","","null","","","","","","","","","","","","<img src=images/blank.png width =""500"" height = ""500"" style=""border:5px solid black"">","","",""
"","900.885000010021","stimulus-presentation","118","374980","0.0-17.0-1.1","SS1604611082894","<img src='images/complex/7.png' width ='500' height = '500' style='border:5px solid black'>","40","all_complex","images/complex/17.png","images/complex/7.png","images/complex/5.png,images/complex/9.png,images/complex/6.png,images/complex/10.png,images/complex/3.png,images/complex/8.png,images/complex/4.png","1","null","","200","1100.885000010021","","","","background","",""
"","null","html-keyboard-response","119","375977","0.0-17.0-0.2","SS1604611082894","","null","","","","","","","","","","","","<img src=images/blank.png width =""500"" height = ""500"" style=""border:5px solid black"">","","",""
"","316.6600000113249","stimulus-presentation","120","376511","0.0-17.0-1.2","SS1604611082894","<img src='images/complex/7.png' width ='500' height = '500' style='border:5px solid black'>","40","all_complex","images/complex/17.png","images/complex/7.png","images/complex/5.png,images/complex/9.png,images/complex/6.png,images/complex/10.png,images/complex/3.png,images/complex/8.png,images/complex/4.png","1","null","","200","516.6600000113249","","","","background","",""
"","null","html-keyboard-response","121","377753","0.0-17.0-0.3","SS1604611082894","","null","","","","","","","","","","","","<img src=images/blank.png width =""500"" height = ""500"" style=""border:5px solid black"">","","",""
"","712.5700000033248","stimulus-presentation","122","378690","0.0-17.0-1.3","SS1604611082894","<img src='images/complex/10.png' width ='500' height = '500' style='border:5px solid black'>","40","all_complex","images/complex/17.png","images/complex/7.png","images/complex/5.png,images/complex/9.png,images/complex/6.png,images/complex/10.png,images/complex/3.png,images/complex/8.png,images/complex/4.png","1","null","","200","912.5700000033248","","","","deviant","",""
"","null","html-keyboard-response","123","379698","0.0-17.0-0.4","SS1604611082894","","null","","","","","","","","","","","","<img src=images/blank.png width =""500"" height = ""500"" style=""border:5px solid black"">","","",""
"","452.2100000176579","stimulus-presentation","124","380368","0.0-17.0-1.4","SS1604611082894","<img src='images/complex/17.png' width ='500' height = '500' style='border:5px solid black'>","40","all_complex","images/complex/17.png","images/complex/7.png","images/complex/5.png,images/complex/9.png,images/complex/6.png,images/complex/10.png,images/complex/3.png,images/complex/8.png,images/complex/4.png","1","null","","200","652.2100000176579","","","","target","",""
"","null","html-keyboard-response","125","381493","0.0-17.0-0.5","SS1604611082894","","null","","","","","","","","","","","","<img src=images/blank.png width =""500"" height = ""500"" style=""border:5px solid black"">","","",""
"","252.98499999917112","stimulus-presentation","126","381958","0.0-17.0-1.5","SS1604611082894","<img src='images/complex/17.png' width ='500' height = '500' style='border:5px solid black'>","40","all_complex","images/complex/17.png","images/complex/7.png","images/complex/5.png,images/complex/9.png,images/complex/6.png,images/complex/10.png,images/complex/3.png,images/complex/8.png,images/complex/4.png","1","null","","200","452.9849999991711","","","","target","",""
"","null","html-keyboard-response","127","383236","0.0-17.0-0.6","SS1604611082894","","null","","","","","","","","","","","","<img src=images/blank.png width =""500"" height = ""500"" style=""border:5px solid black"">","","",""
"","525.1249999855645","stimulus-presentation","128","383976","0.0-17.0-1.6","SS1604611082894","<img src='images/complex/7.png' width ='500' height = '500' style='border:5px solid black'>","40","all_complex","images/complex/17.png","images/complex/7.png","images/complex/5.png,images/complex/9.png,images/complex/6.png,images/complex/10.png,images/complex/3.png,images/complex/8.png,images/complex/4.png","1","null","","200","725.1249999855645","","","","background","",""
"","null","html-keyboard-response","129","385151","0.0-17.0-0.7","SS1604611082894","","null","","","","","","","","","","","","<img src=images/blank.png width =""500"" height = ""500"" style=""border:5px solid black"">","","",""
"","558.3650000044145","stimulus-presentation","130","385923","0.0-17.0-1.7","SS1604611082894","<img src='images/complex/7.png' width ='500' height = '500' style='border:5px solid black'>","40","all_complex","images/complex/17.png","images/complex/7.png","images/complex/5.png,images/complex/9.png,images/complex/6.png,images/complex/10.png,images/complex/3.png,images/complex/8.png,images/complex/4.png","1","null","","200","758.3650000044145","","","","background","",""
"","null","html-keyboard-response","131","387057","0.0-17.0-0.8","SS1604611082894","","null","","","","","","","","","","","","<img src=images/blank.png width =""500"" height = ""500"" style=""border:5px solid black"">","","",""
"","272.50999998068437","stimulus-presentation","132","387543","0.0-17.0-1.8","SS1604611082894","<img src='images/complex/7.png' width ='500' height = '500' style='border:5px solid black'>","40","all_complex","images/complex/17.png","images/complex/7.png","images/complex/5.png,images/complex/9.png,images/complex/6.png,images/complex/10.png,images/complex/3.png,images/complex/8.png,images/complex/4.png","1","null","","200","472.50999998068437","","","","background","",""
"","null","html-keyboard-response","133","388794","0.0-17.0-0.9","SS1604611082894","","null","","","","","","","","","","","","<img src=images/blank.png width =""500"" height = ""500"" style=""border:5px solid black"">","","",""
"","264.3899999966379","stimulus-presentation","134","389273","0.0-17.0-1.9","SS1604611082894","<img src='images/complex/7.png' width ='500' height = '500' style='border:5px solid black'>","40","all_complex","images/complex/17.png","images/complex/7.png","images/complex/5.png,images/complex/9.png,images/complex/6.png,images/complex/10.png,images/complex/3.png,images/complex/8.png,images/complex/4.png","1","null","","200","464.3899999966379","","","","background","",""
"","null","html-keyboard-response","135","390299","0.0-17.0-0.10","SS1604611082894","","null","","","","","","","","","","","","<img src=images/blank.png width =""500"" height = ""500"" style=""border:5px solid black"">","","",""
"","443.57999999192543","stimulus-presentation","136","390962","0.0-17.0-1.10","SS1604611082894","<img src='images/complex/4.png' width ='500' height = '500' style='border:5px solid black'>","40","all_complex","images/complex/17.png","images/complex/7.png","images/complex/5.png,images/complex/9.png,images/complex/6.png,images/complex/10.png,images/complex/3.png,images/complex/8.png,images/complex/4.png","1","null","","200","643.5799999919254","","","","deviant","",""
"","null","html-keyboard-response","137","391988","0.0-17.0-0.11","SS1604611082894","","null","","","","","","","","","","","","<img src=images/blank.png width =""500"" height = ""500"" style=""border:5px solid black"">","","",""
"","353.64499999559484","stimulus-presentation","138","392563","0.0-17.0-1.11","SS1604611082894","<img src='images/complex/7.png' width ='500' height = '500' style='border:5px solid black'>","40","all_complex","images/complex/17.png","images/complex/7.png","images/complex/5.png,images/complex/9.png,images/complex/6.png,images/complex/10.png,images/complex/3.png,images/complex/8.png,images/complex/4.png","1","null","","200","553.6449999955948","","","","background","",""
"","null","html-keyboard-response","139","393405","0.0-17.0-0.12","SS1604611082894","","null","","","","","","","","","","","","<img src=images/blank.png width =""500"" height = ""500"" style=""border:5px solid black"">","","",""
"","196.5300000156276","stimulus-presentation","140","393815","0.0-17.0-1.12","SS1604611082894","<img src='images/complex/7.png' width ='500' height = '500' style='border:5px solid black'>","40","all_complex","images/complex/17.png","images/complex/7.png","images/complex/5.png,images/complex/9.png,images/complex/6.png,images/complex/10.png,images/complex/3.png,images/complex/8.png,images/complex/4.png","1","null","","200","396.5300000156276","","","","background","",""
"","null","html-keyboard-response","141","394991","0.0-17.0-0.13","SS1604611082894","","null","","","","","","","","","","","","<img src=images/blank.png width =""500"" height = ""500"" style=""border:5px solid black"">","","",""
"","448.89500000863336","stimulus-presentation","142","395655","0.0-17.0-1.13","SS1604611082894","<img src='images/complex/17.png' width ='500' height = '500' style='border:5px solid black'>","40","all_complex","images/complex/17.png","images/complex/7.png","images/complex/5.png,images/complex/9.png,images/complex/6.png,images/complex/10.png,images/complex/3.png,images/complex/8.png,images/complex/4.png","1","null","","200","648.8950000086334","","","","target","",""
"","null","html-keyboard-response","143","396626","0.0-17.0-0.14","SS1604611082894","","null","","","","","","","","","","","","<img src=images/blank.png width =""500"" height = ""500"" style=""border:5px solid black"">","","",""
"","391.9799999857787","stimulus-presentation","144","397235","0.0-17.0-1.14","SS1604611082894","<img src='images/complex/7.png' width ='500' height = '500' style='border:5px solid black'>","40","all_complex","images/complex/17.png","images/complex/7.png","images/complex/5.png,images/complex/9.png,images/complex/6.png,images/complex/10.png,images/complex/3.png,images/complex/8.png,images/complex/4.png","1","null","","200","591.9799999857787","","","","background","",""
"","null","html-keyboard-response","145","398297","0.0-17.0-0.15","SS1604611082894","","null","","","","","","","","","","","","<img src=images/blank.png width =""500"" height = ""500"" style=""border:5px solid black"">","","",""
"","288.70499998447485","stimulus-presentation","146","398805","0.0-17.0-1.15","SS1604611082894","<img src='images/complex/7.png' width ='500' height = '500' style='border:5px solid black'>","40","all_complex","images/complex/17.png","images/complex/7.png","images/complex/5.png,images/complex/9.png,images/complex/6.png,images/complex/10.png,images/complex/3.png,images/complex/8.png,images/complex/4.png","1","null","","200","488.70499998447485","","","","background","",""
"","null","html-keyboard-response","147","399978","0.0-17.0-0.16","SS1604611082894","","null","","","","","","","","","","","","<img src=images/blank.png width =""500"" height = ""500"" style=""border:5px solid black"">","","",""
"","263.98000001790933","stimulus-presentation","148","400458","0.0-17.0-1.16","SS1604611082894","<img src='images/complex/7.png' width ='500' height = '500' style='border:5px solid black'>","40","all_complex","images/complex/17.png","images/complex/7.png","images/complex/5.png,images/complex/9.png,images/complex/6.png,images/complex/10.png,images/complex/3.png,images/complex/8.png,images/complex/4.png","1","null","","200","463.98000001790933","","","","background","",""
"","null","html-keyboard-response","149","401611","0.0-17.0-0.17","SS1604611082894","","null","","","","","","","","","","","","<img src=images/blank.png width =""500"" height = ""500"" style=""border:5px solid black"">","","",""
"","347.0699999888893","stimulus-presentation","150","402175","0.0-17.0-1.17","SS1604611082894","<img src='images/complex/7.png' width ='500' height = '500' style='border:5px solid black'>","40","all_complex","images/complex/17.png","images/complex/7.png","images/complex/5.png,images/complex/9.png,images/complex/6.png,images/complex/10.png,images/complex/3.png,images/complex/8.png,images/complex/4.png","1","null","","200","547.0699999888893","","","","background","",""
"","null","html-keyboard-response","151","403076","0.0-17.0-0.18","SS1604611082894","","null","","","","","","","","","","","","<img src=images/blank.png width =""500"" height = ""500"" style=""border:5px solid black"">","","",""
"","772.7299999969546","stimulus-presentation","152","404064","0.0-17.0-1.18","SS1604611082894","<img src='images/complex/5.png' width ='500' height = '500' style='border:5px solid black'>","40","all_complex","images/complex/17.png","images/complex/7.png","images/complex/5.png,images/complex/9.png,images/complex/6.png,images/complex/10.png,images/complex/3.png,images/complex/8.png,images/complex/4.png","1","null","","200","972.7299999969546","","","","deviant","",""
"","null","html-keyboard-response","153","405303","0.0-17.0-0.19","SS1604611082894","","null","","","","","","","","","","","","<img src=images/blank.png width =""500"" height = ""500"" style=""border:5px solid black"">","","",""
"","334.3449999811128","stimulus-presentation","154","405854","0.0-17.0-1.19","SS1604611082894","<img src='images/complex/7.png' width ='500' height = '500' style='border:5px solid black'>","40","all_complex","images/complex/17.png","images/complex/7.png","images/complex/5.png,images/complex/9.png,images/complex/6.png,images/complex/10.png,images/complex/3.png,images/complex/8.png,images/complex/4.png","1","null","","200","534.3449999811128","","","","background","",""
"","null","html-keyboard-response","155","406840","0.0-17.0-0.20","SS1604611082894","","null","","","","","","","","","","","","<img src=images/blank.png width =""500"" height = ""500"" style=""border:5px solid black"">","","",""
"","260.2350000233855","stimulus-presentation","156","407315","0.0-17.0-1.20","SS1604611082894","<img src='images/complex/17.png' width ='500' height = '500' style='border:5px solid black'>","40","all_complex","images/complex/17.png","images/complex/7.png","images/complex/5.png,images/complex/9.png,images/complex/6.png,images/complex/10.png,images/complex/3.png,images/complex/8.png,images/complex/4.png","1","null","","200","460.2350000233855","","","","target","",""
"","null","html-keyboard-response","157","408219","0.0-17.0-0.21","SS1604611082894","","null","","","","","","","","","","","","<img src=images/blank.png width =""500"" height = ""500"" style=""border:5px solid black"">","","",""
"","328.45000000088476","stimulus-presentation","158","408776","0.0-17.0-1.21","SS1604611082894","<img src='images/complex/7.png' width ='500' height = '500' style='border:5px solid black'>","40","all_complex","images/complex/17.png","images/complex/7.png","images/complex/5.png,images/complex/9.png,images/complex/6.png,images/complex/10.png,images/complex/3.png,images/complex/8.png,images/complex/4.png","1","null","","200","528.4500000008848","","","","background","",""
"","null","html-keyboard-response","159","409840","0.0-17.0-0.22","SS1604611082894","","null","","","","","","","","","","","","<img src=images/blank.png width =""500"" height = ""500"" style=""border:5px solid black"">","","",""
"","283.2150000031106","stimulus-presentation","160","410346","0.0-17.0-1.22","SS1604611082894","<img src='images/complex/17.png' width ='500' height = '500' style='border:5px solid black'>","40","all_complex","images/complex/17.png","images/complex/7.png","images/complex/5.png,images/complex/9.png,images/complex/6.png,images/complex/10.png,images/complex/3.png,images/complex/8.png,images/complex/4.png","1","null","","200","483.2150000031106","","","","target","",""
"","null","html-keyboard-response","161","411202","0.0-17.0-0.23","SS1604611082894","","null","","","","","","","","","","","","<img src=images/blank.png width =""500"" height = ""500"" style=""border:5px solid black"">","","",""
"","367.5799999909941","stimulus-presentation","162","411788","0.0-17.0-1.23","SS1604611082894","<img src='images/complex/7.png' width ='500' height = '500' style='border:5px solid black'>","40","all_complex","images/complex/17.png","images/complex/7.png","images/complex/5.png,images/complex/9.png,images/complex/6.png,images/complex/10.png,images/complex/3.png,images/complex/8.png,images/complex/4.png","1","null","","200","567.5799999909941","","","","background","",""
"","null","html-keyboard-response","163","412982","0.0-17.0-0.24","SS1604611082894","","null","","","","","","","","","","","","<img src=images/blank.png width =""500"" height = ""500"" style=""border:5px solid black"">","","",""
"","269.28500001668","stimulus-presentation","164","413467","0.0-17.0-1.24","SS1604611082894","<img src='images/complex/7.png' width ='500' height = '500' style='border:5px solid black'>","40","all_complex","images/complex/17.png","images/complex/7.png","images/complex/5.png,images/complex/9.png,images/complex/6.png,images/complex/10.png,images/complex/3.png,images/complex/8.png,images/complex/4.png","1","null","","200","469.28500001668","","","","background","",""
"","null","html-keyboard-response","165","414552","0.0-17.0-0.25","SS1604611082894","","null","","","","","","","","","","","","<img src=images/blank.png width =""500"" height = ""500"" style=""border:5px solid black"">","","",""
"","480.14499997952953","stimulus-presentation","166","415247","0.0-17.0-1.25","SS1604611082894","<img src='images/complex/8.png' width ='500' height = '500' style='border:5px solid black'>","40","all_complex","images/complex/17.png","images/complex/7.png","images/complex/5.png,images/complex/9.png,images/complex/6.png,images/complex/10.png,images/complex/3.png,images/complex/8.png,images/complex/4.png","1","null","","200","680.1449999795295","","","","deviant","",""
"","null","html-keyboard-response","167","416228","0.0-17.0-0.26","SS1604611082894","","null","","","","","","","","","","","","<img src=images/blank.png width =""500"" height = ""500"" style=""border:5px solid black"">","","",""
"","247.3900000040885","stimulus-presentation","168","416689","0.0-17.0-1.26","SS1604611082894","<img src='images/complex/7.png' width ='500' height = '500' style='border:5px solid black'>","40","all_complex","images/complex/17.png","images/complex/7.png","images/complex/5.png,images/complex/9.png,images/complex/6.png,images/complex/10.png,images/complex/3.png,images/complex/8.png,images/complex/4.png","1","null","","200","447.3900000040885","","","","background","",""
"","null","html-keyboard-response","169","417658","0.0-17.0-0.27","SS1604611082894","","null","","","","","","","","","","","","<img src=images/blank.png width =""500"" height = ""500"" style=""border:5px solid black"">","","",""
"","336.03999999468215","stimulus-presentation","170","418209","0.0-17.0-1.27","SS1604611082894","<img src='images/complex/17.png' width ='500' height = '500' style='border:5px solid black'>","40","all_complex","images/complex/17.png","images/complex/7.png","images/complex/5.png,images/complex/9.png,images/complex/6.png,images/complex/10.png,images/complex/3.png,images/complex/8.png,images/complex/4.png","1","null","","200","536.0399999946821","","","","target","",""
"","null","html-keyboard-response","171","419122","0.0-17.0-0.28","SS1604611082894","","null","","","","","","","","","","","","<img src=images/blank.png width =""500"" height = ""500"" style=""border:5px solid black"">","","",""
"","653.8750000181608","stimulus-presentation","172","419993","0.0-17.0-1.28","SS1604611082894","<img src='images/complex/9.png' width ='500' height = '500' style='border:5px solid black'>","40","all_complex","images/complex/17.png","images/complex/7.png","images/complex/5.png,images/complex/9.png,images/complex/6.png,images/complex/10.png,images/complex/3.png,images/complex/8.png,images/complex/4.png","1","null","","200","853.8750000181608","","","","deviant","",""
"","null","html-keyboard-response","173","421152","0.0-17.0-0.29","SS1604611082894","","null","","","","","","","","","","","","<img src=images/blank.png width =""500"" height = ""500"" style=""border:5px solid black"">","","",""
"","360.19500001566485","stimulus-presentation","174","421737","0.0-17.0-1.29","SS1604611082894","<img src='images/complex/7.png' width ='500' height = '500' style='border:5px solid black'>","40","all_complex","images/complex/17.png","images/complex/7.png","images/complex/5.png,images/complex/9.png,images/complex/6.png,images/complex/10.png,images/complex/3.png,images/complex/8.png,images/complex/4.png","1","null","","200","560.1950000156648","","","","background","",""
"","null","html-keyboard-response","175","422767","0.0-17.0-0.30","SS1604611082894","","null","","","","","","","","","","","","<img src=images/blank.png width =""500"" height = ""500"" style=""border:5px solid black"">","","",""
"","273.7499999930151","stimulus-presentation","176","423268","0.0-17.0-1.30","SS1604611082894","<img src='images/complex/7.png' width ='500' height = '500' style='border:5px solid black'>","40","all_complex","images/complex/17.png","images/complex/7.png","images/complex/5.png,images/complex/9.png,images/complex/6.png,images/complex/10.png,images/complex/3.png,images/complex/8.png,images/complex/4.png","1","null","","200","473.7499999930151","","","","background","",""
"","null","html-keyboard-response","177","424445","0.0-17.0-0.31","SS1604611082894","","null","","","","","","","","","","","","<img src=images/blank.png width =""500"" height = ""500"" style=""border:5px solid black"">","","",""
"","225.50000000046566","stimulus-presentation","178","424889","0.0-17.0-1.31","SS1604611082894","<img src='images/complex/7.png' width ='500' height = '500' style='border:5px solid black'>","40","all_complex","images/complex/17.png","images/complex/7.png","images/complex/5.png,images/complex/9.png,images/complex/6.png,images/complex/10.png,images/complex/3.png,images/complex/8.png,images/complex/4.png","1","null","","200","425.50000000046566","","","","background","",""
"","null","html-keyboard-response","179","426157","0.0-17.0-0.32","SS1604611082894","","null","","","","","","","","","","","","<img src=images/blank.png width =""500"" height = ""500"" style=""border:5px solid black"">","","",""
"","140.91000001644716","stimulus-presentation","180","426519","0.0-17.0-1.32","SS1604611082894","<img src='images/complex/7.png' width ='500' height = '500' style='border:5px solid black'>","40","all_complex","images/complex/17.png","images/complex/7.png","images/complex/5.png,images/complex/9.png,images/complex/6.png,images/complex/10.png,images/complex/3.png,images/complex/8.png,images/complex/4.png","1","null","","200","340.91000001644716","","","","background","",""
"","null","html-keyboard-response","181","427401","0.0-17.0-0.33","SS1604611082894","","null","","","","","","","","","","","","<img src=images/blank.png width =""500"" height = ""500"" style=""border:5px solid black"">","","",""
"","1487.98999999417","stimulus-presentation","182","429104","0.0-17.0-1.33","SS1604611082894","<img src='images/complex/7.png' width ='500' height = '500' style='border:5px solid black'>","40","all_complex","images/complex/17.png","images/complex/7.png","images/complex/5.png,images/complex/9.png,images/complex/6.png,images/complex/10.png,images/complex/3.png,images/complex/8.png,images/complex/4.png","1","null","","200","1687.98999999417","","","","background","",""
"","null","html-keyboard-response","183","430121","0.0-17.0-0.34","SS1604611082894","","null","","","","","","","","","","","","<img src=images/blank.png width =""500"" height = ""500"" style=""border:5px solid black"">","","",""
"","288.00000000046566","stimulus-presentation","184","430624","0.0-17.0-1.34","SS1604611082894","<img src='images/complex/7.png' width ='500' height = '500' style='border:5px solid black'>","40","all_complex","images/complex/17.png","images/complex/7.png","images/complex/5.png,images/complex/9.png,images/complex/6.png,images/complex/10.png,images/complex/3.png,images/complex/8.png,images/complex/4.png","1","null","","200","488.00000000046566","","","","background","",""
"","null","html-keyboard-response","185","431502","0.0-17.0-0.35","SS1604611082894","","null","","","","","","","","","","","","<img src=images/blank.png width =""500"" height = ""500"" style=""border:5px solid black"">","","",""
"","515.8299999893643","stimulus-presentation","186","432235","0.0-17.0-1.35","SS1604611082894","<img src='images/complex/7.png' width ='500' height = '500' style='border:5px solid black'>","40","all_complex","images/complex/17.png","images/complex/7.png","images/complex/5.png,images/complex/9.png,images/complex/6.png,images/complex/10.png,images/complex/3.png,images/complex/8.png,images/complex/4.png","1","null","","200","715.8299999893643","","","","background","",""
"","null","html-keyboard-response","187","433324","0.0-17.0-0.36","SS1604611082894","","null","","","","","","","","","","","","<img src=images/blank.png width =""500"" height = ""500"" style=""border:5px solid black"">","","",""
"","264.82499999110587","stimulus-presentation","188","433806","0.0-17.0-1.36","SS1604611082894","<img src='images/complex/7.png' width ='500' height = '500' style='border:5px solid black'>","40","all_complex","images/complex/17.png","images/complex/7.png","images/complex/5.png,images/complex/9.png,images/complex/6.png,images/complex/10.png,images/complex/3.png,images/complex/8.png,images/complex/4.png","1","null","","200","464.82499999110587","","","","background","",""
"","null","html-keyboard-response","189","434710","0.0-17.0-0.37","SS1604611082894","","null","","","","","","","","","","","","<img src=images/blank.png width =""500"" height = ""500"" style=""border:5px solid black"">","","",""
"","201.22000001720153","stimulus-presentation","190","435128","0.0-17.0-1.37","SS1604611082894","<img src='images/complex/3.png' width ='500' height = '500' style='border:5px solid black'>","40","all_complex","images/complex/17.png","images/complex/7.png","images/complex/5.png,images/complex/9.png,images/complex/6.png,images/complex/10.png,images/complex/3.png,images/complex/8.png,images/complex/4.png","1","null","","200","401.2200000172015","","","","deviant","",""
"","null","html-keyboard-response","191","436375","0.0-17.0-0.38","SS1604611082894","","null","","","","","","","","","","","","<img src=images/blank.png width =""500"" height = ""500"" style=""border:5px solid black"">","","",""
"","306.2800000188872","stimulus-presentation","192","436897","0.0-17.0-1.38","SS1604611082894","<img src='images/complex/7.png' width ='500' height = '500' style='border:5px solid black'>","40","all_complex","images/complex/17.png","images/complex/7.png","images/complex/5.png,images/complex/9.png,images/complex/6.png,images/complex/10.png,images/complex/3.png,images/complex/8.png,images/complex/4.png","1","null","","200","506.2800000188872","","","","background","",""
"","null","html-keyboard-response","193","437739","0.0-17.0-0.39","SS1604611082894","","null","","","","","","","","","","","","<img src=images/blank.png width =""500"" height = ""500"" style=""border:5px solid black"">","","",""
"","374.89999999525025","stimulus-presentation","194","438328","0.0-17.0-1.39","SS1604611082894","<img src='images/complex/7.png' width ='500' height = '500' style='border:5px solid black'>","40","all_complex","images/complex/17.png","images/complex/7.png","images/complex/5.png,images/complex/9.png,images/complex/6.png,images/complex/10.png,images/complex/3.png,images/complex/8.png,images/complex/4.png","1","null","","200","574.8999999952503","","","","background","",""
"","null","html-keyboard-response","195","439445","0.0-17.0-0.40","SS1604611082894","","null","","","","","","","","","","","","<img src=images/blank.png width =""500"" height = ""500"" style=""border:5px solid black"">","","",""
"","244.4099999847822","stimulus-presentation","196","439905","0.0-17.0-1.40","SS1604611082894","<img src='images/complex/7.png' width ='500' height = '500' style='border:5px solid black'>","40","all_complex","images/complex/17.png","images/complex/7.png","images/complex/5.png,images/complex/9.png,images/complex/6.png,images/complex/10.png,images/complex/3.png,images/complex/8.png,images/complex/4.png","1","null","","200","444.4099999847822","","","","background","",""
"","null","html-keyboard-response","197","441168","0.0-17.0-0.41","SS1604611082894","","null","","","","","","","","","","","","<img src=images/blank.png width =""500"" height = ""500"" style=""border:5px solid black"">","","",""
"","214.5650000020396","stimulus-presentation","198","441599","0.0-17.0-1.41","SS1604611082894","<img src='images/complex/7.png' width ='500' height = '500' style='border:5px solid black'>","40","all_complex","images/complex/17.png","images/complex/7.png","images/complex/5.png,images/complex/9.png,images/complex/6.png,images/complex/10.png,images/complex/3.png,images/complex/8.png,images/complex/4.png","1","null","","200","414.5650000020396","","","","background","",""
"","null","html-keyboard-response","199","442543","0.0-17.0-0.42","SS1604611082894","","null","","","","","","","","","","","","<img src=images/blank.png width =""500"" height = ""500"" style=""border:5px solid black"">","","",""
"","142.22000000881962","stimulus-presentation","200","442901","0.0-17.0-1.42","SS1604611082894","<img src='images/complex/7.png' width ='500' height = '500' style='border:5px solid black'>","40","all_complex","images/complex/17.png","images/complex/7.png","images/complex/5.png,images/complex/9.png,images/complex/6.png,images/complex/10.png,images/complex/3.png,images/complex/8.png,images/complex/4.png","1","null","","200","342.2200000088196","","","","background","",""
"","null","html-keyboard-response","201","443854","0.0-17.0-0.43","SS1604611082894","","null","","","","","","","","","","","","<img src=images/blank.png width =""500"" height = ""500"" style=""border:5px solid black"">","","",""
"","263.4949999919627","stimulus-presentation","202","444343","0.0-17.0-1.43","SS1604611082894","<img src='images/complex/7.png' width ='500' height = '500' style='border:5px solid black'>","40","all_complex","images/complex/17.png","images/complex/7.png","images/complex/5.png,images/complex/9.png,images/complex/6.png,images/complex/10.png,images/complex/3.png,images/complex/8.png,images/complex/4.png","1","null","","200","463.4949999919627","","","","background","",""
"","null","html-keyboard-response","203","445252","0.0-17.0-0.44","SS1604611082894","","null","","","","","","","","","","","","<img src=images/blank.png width =""500"" height = ""500"" style=""border:5px solid black"">","","",""
"","336.31499999319203","stimulus-presentation","204","445804","0.0-17.0-1.44","SS1604611082894","<img src='images/complex/17.png' width ='500' height = '500' style='border:5px solid black'>","40","all_complex","images/complex/17.png","images/complex/7.png","images/complex/5.png,images/complex/9.png,images/complex/6.png,images/complex/10.png,images/complex/3.png,images/complex/8.png,images/complex/4.png","1","null","","200","536.314999993192","","","","target","",""
"","null","html-keyboard-response","205","447085","0.0-17.0-0.45","SS1604611082894","","null","","","","","","","","","","","","<img src=images/blank.png width =""500"" height = ""500"" style=""border:5px solid black"">","","",""
"","292.90499998023733","stimulus-presentation","206","447593","0.0-17.0-1.45","SS1604611082894","<img src='images/complex/7.png' width ='500' height = '500' style='border:5px solid black'>","40","all_complex","images/complex/17.png","images/complex/7.png","images/complex/5.png,images/complex/9.png,images/complex/6.png,images/complex/10.png,images/complex/3.png,images/complex/8.png,images/complex/4.png","1","null","","200","492.90499998023733","","","","background","",""
"","null","html-keyboard-response","207","448702","0.0-17.0-0.46","SS1604611082894","","null","","","","","","","","","","","","<img src=images/blank.png width =""500"" height = ""500"" style=""border:5px solid black"">","","",""
"","198.9400000020396","stimulus-presentation","208","449123","0.0-17.0-1.46","SS1604611082894","<img src='images/complex/7.png' width ='500' height = '500' style='border:5px solid black'>","40","all_complex","images/complex/17.png","images/complex/7.png","images/complex/5.png,images/complex/9.png,images/complex/6.png,images/complex/10.png,images/complex/3.png,images/complex/8.png,images/complex/4.png","1","null","","200","398.9400000020396","","","","background","",""
"","null","html-keyboard-response","209","450286","0.0-17.0-0.47","SS1604611082894","","null","","","","","","","","","","","","<img src=images/blank.png width =""500"" height = ""500"" style=""border:5px solid black"">","","",""
"","252.67499999608845","stimulus-presentation","210","450756","0.0-17.0-1.47","SS1604611082894","<img src='images/complex/7.png' width ='500' height = '500' style='border:5px solid black'>","40","all_complex","images/complex/17.png","images/complex/7.png","images/complex/5.png,images/complex/9.png,images/complex/6.png,images/complex/10.png,images/complex/3.png,images/complex/8.png,images/complex/4.png","1","null","","200","452.67499999608845","","","","background","",""
"","null","html-keyboard-response","211","451931","0.0-17.0-0.48","SS1604611082894","","null","","","","","","","","","","","","<img src=images/blank.png width =""500"" height = ""500"" style=""border:5px solid black"">","","",""
"","227.44499999680556","stimulus-presentation","212","452375","0.0-17.0-1.48","SS1604611082894","<img src='images/complex/7.png' width ='500' height = '500' style='border:5px solid black'>","40","all_complex","images/complex/17.png","images/complex/7.png","images/complex/5.png,images/complex/9.png,images/complex/6.png,images/complex/10.png,images/complex/3.png,images/complex/8.png,images/complex/4.png","1","null","","200","427.44499999680556","","","","background","",""
"[{""page_index"":0,""viewing_time"":3053}]","3054","task-instructions","213","455442","0.0-18.0","SS1604611082894","","","","","","","","","","","","","","","","",""
"[{""page_index"":0,""viewing_time"":1772.545000014361},{""page_index"":1,""viewing_time"":8784.539999993285},{""page_index"":2,""viewing_time"":2582.894999999553}]","13140.855000005104","instructions","214","468601","0.0-19.0","SS1604611082894","","","","","","","","","","","","","","","","",""
"","null","html-keyboard-response","215","469528","0.0-20.0-0.0","SS1604611082894","","null","","","","","","","","","","","","<img src=images/blank.png width =""500"" height = ""500"" style=""border:5px solid black"">","","",""
"","856.5449999878183","stimulus-presentation","216","470609","0.0-20.0-1.0","SS1604611082894","<img src='images/simple/15.png' width ='500' height = '500' style='border:5px solid black'>","40","mixed_complex_deviant","images/simple/6.png","images/simple/15.png","images/complex/13.png,images/complex/15.png,images/complex/14.png,images/complex/12.png,images/complex/11.png,images/complex/1.png,images/complex/16.png","2","null","","200","1056.5449999878183","","","","background","",""
"","null","html-keyboard-response","217","471506","0.0-20.0-0.1","SS1604611082894","","null","","","","","","","","","","","","<img src=images/blank.png width =""500"" height = ""500"" style=""border:5px solid black"">","","",""
"","374.1250000020955","stimulus-presentation","218","472109","0.0-20.0-1.1","SS1604611082894","<img src='images/complex/14.png' width ='500' height = '500' style='border:5px solid black'>","40","mixed_complex_deviant","images/simple/6.png","images/simple/15.png","images/complex/13.png,images/complex/15.png,images/complex/14.png,images/complex/12.png,images/complex/11.png,images/complex/1.png,images/complex/16.png","2","null","","200","574.1250000020955","","","","deviant","",""
"","null","html-keyboard-response","219","473202","0.0-20.0-0.2","SS1604611082894","","null","","","","","","","","","","","","<img src=images/blank.png width =""500"" height = ""500"" style=""border:5px solid black"">","","",""
"","500.36000000545755","stimulus-presentation","220","473919","0.0-20.0-1.2","SS1604611082894","<img src='images/simple/15.png' width ='500' height = '500' style='border:5px solid black'>","40","mixed_complex_deviant","images/simple/6.png","images/simple/15.png","images/complex/13.png,images/complex/15.png,images/complex/14.png,images/complex/12.png,images/complex/11.png,images/complex/1.png,images/complex/16.png","2","null","","200","700.3600000054576","","","","background","",""
"","null","html-keyboard-response","221","474782","0.0-20.0-0.3","SS1604611082894","","null","","","","","","","","","","","","<img src=images/blank.png width =""500"" height = ""500"" style=""border:5px solid black"">","","",""
"","411.3950000028126","stimulus-presentation","222","475410","0.0-20.0-1.3","SS1604611082894","<img src='images/simple/15.png' width ='500' height = '500' style='border:5px solid black'>","40","mixed_complex_deviant","images/simple/6.png","images/simple/15.png","images/complex/13.png,images/complex/15.png,images/complex/14.png,images/complex/12.png,images/complex/11.png,images/complex/1.png,images/complex/16.png","2","null","","200","611.3950000028126","","","","background","",""
"","null","html-keyboard-response","223","476438","0.0-20.0-0.4","SS1604611082894","","null","","","","","","","","","","","","<img src=images/blank.png width =""500"" height = ""500"" style=""border:5px solid black"">","","",""
"","278.72499998193234","stimulus-presentation","224","476943","0.0-20.0-1.4","SS1604611082894","<img src='images/simple/15.png' width ='500' height = '500' style='border:5px solid black'>","40","mixed_complex_deviant","images/simple/6.png","images/simple/15.png","images/complex/13.png,images/complex/15.png,images/complex/14.png,images/complex/12.png,images/complex/11.png,images/complex/1.png,images/complex/16.png","2","null","","200","478.72499998193234","","","","background","",""
"","null","html-keyboard-response","225","478267","0.0-20.0-0.5","SS1604611082894","","null","","","","","","","","","","","","<img src=images/blank.png width =""500"" height = ""500"" style=""border:5px solid black"">","","",""
"","762.2149999951944","stimulus-presentation","226","479258","0.0-20.0-1.5","SS1604611082894","<img src='images/complex/15.png' width ='500' height = '500' style='border:5px solid black'>","40","mixed_complex_deviant","images/simple/6.png","images/simple/15.png","images/complex/13.png,images/complex/15.png,images/complex/14.png,images/complex/12.png,images/complex/11.png,images/complex/1.png,images/complex/16.png","2","null","","200","962.2149999951944","","","","deviant","",""
"","null","html-keyboard-response","227","480156","0.0-20.0-0.6","SS1604611082894","","null","","","","","","","","","","","","<img src=images/blank.png width =""500"" height = ""500"" style=""border:5px solid black"">","","",""
"","336.1350000195671","stimulus-presentation","228","480711","0.0-20.0-1.6","SS1604611082894","<img src='images/simple/15.png' width ='500' height = '500' style='border:5px solid black'>","40","mixed_complex_deviant","images/simple/6.png","images/simple/15.png","images/complex/13.png,images/complex/15.png,images/complex/14.png,images/complex/12.png,images/complex/11.png,images/complex/1.png,images/complex/16.png","2","null","","200","536.1350000195671","","","","background","",""
"","null","html-keyboard-response","229","481939","0.0-20.0-0.7","SS1604611082894","","null","","","","","","","","","","","","<img src=images/blank.png width =""500"" height = ""500"" style=""border:5px solid black"">","","",""
"","3165.130000008503","stimulus-presentation","230","485334","0.0-20.0-1.7","SS1604611082894","<img src='images/simple/6.png' width ='500' height = '500' style='border:5px solid black'>","40","mixed_complex_deviant","images/simple/6.png","images/simple/15.png","images/complex/13.png,images/complex/15.png,images/complex/14.png,images/complex/12.png,images/complex/11.png,images/complex/1.png,images/complex/16.png","2","null","","200","3365.130000008503","yes","917.090000002645","","target","",""
"","null","html-keyboard-response","231","486229","0.0-20.0-0.8","SS1604611082894","","null","","","","","","","","","","","","<img src=images/blank.png width =""500"" height = ""500"" style=""border:5px solid black"">","","",""
"","498.73500000103377","stimulus-presentation","232","486945","0.0-20.0-1.8","SS1604611082894","<img src='images/simple/15.png' width ='500' height = '500' style='border:5px solid black'>","40","mixed_complex_deviant","images/simple/6.png","images/simple/15.png","images/complex/13.png,images/complex/15.png,images/complex/14.png,images/complex/12.png,images/complex/11.png,images/complex/1.png,images/complex/16.png","2","null","","200","698.7350000010338","","","","background","",""
"","null","html-keyboard-response","233","487910","0.0-20.0-0.9","SS1604611082894","","null","","","","","","","","","","","","<img src=images/blank.png width =""500"" height = ""500"" style=""border:5px solid black"">","","",""
"","1832.8549999860115","stimulus-presentation","234","489968","0.0-20.0-1.9","SS1604611082894","<img src='images/simple/6.png' width ='500' height = '500' style='border:5px solid black'>","40","mixed_complex_deviant","images/simple/6.png","images/simple/15.png","images/complex/13.png,images/complex/15.png,images/complex/14.png,images/complex/12.png,images/complex/11.png,images/complex/1.png,images/complex/16.png","2","null","","200","2032.8549999860115","yes","580.4749999952037","","target","",""
"","null","html-keyboard-response","235","490868","0.0-20.0-0.10","SS1604611082894","","null","","","","","","","","","","","","<img src=images/blank.png width =""500"" height = ""500"" style=""border:5px solid black"">","","",""
"","813.8599999947473","stimulus-presentation","236","491908","0.0-20.0-1.10","SS1604611082894","<img src='images/complex/11.png' width ='500' height = '500' style='border:5px solid black'>","40","mixed_complex_deviant","images/simple/6.png","images/simple/15.png","images/complex/13.png,images/complex/15.png,images/complex/14.png,images/complex/12.png,images/complex/11.png,images/complex/1.png,images/complex/16.png","2","null","","200","1013.8599999947473","","","","deviant","",""
"","null","html-keyboard-response","237","492772","0.0-20.0-0.11","SS1604611082894","","null","","","","","","","","","","","","<img src=images/blank.png width =""500"" height = ""500"" style=""border:5px solid black"">","","",""
"","1942.7850000211038","stimulus-presentation","238","494940","0.0-20.0-1.11","SS1604611082894","<img src='images/simple/15.png' width ='500' height = '500' style='border:5px solid black'>","40","mixed_complex_deviant","images/simple/6.png","images/simple/15.png","images/complex/13.png,images/complex/15.png,images/complex/14.png,images/complex/12.png,images/complex/11.png,images/complex/1.png,images/complex/16.png","2","null","","200","2142.7850000211038","","","","background","",""
"","null","html-keyboard-response","239","495890","0.0-20.0-0.12","SS1604611082894","","null","","","","","","","","","","","","<img src=images/blank.png width =""500"" height = ""500"" style=""border:5px solid black"">","","",""
"","2337.359999975888","stimulus-presentation","240","498452","0.0-20.0-1.12","SS1604611082894","<img src='images/simple/6.png' width ='500' height = '500' style='border:5px solid black'>","40","mixed_complex_deviant","images/simple/6.png","images/simple/15.png","images/complex/13.png,images/complex/15.png,images/complex/14.png,images/complex/12.png,images/complex/11.png,images/complex/1.png,images/complex/16.png","2","null","","200","2537.359999975888","yes","595.5949999915902","","target","",""
"","null","html-keyboard-response","241","499577","0.0-20.0-0.13","SS1604611082894","","null","","","","","","","","","","","","<img src=images/blank.png width =""500"" height = ""500"" style=""border:5px solid black"">","","",""
"","643.4399999852758","stimulus-presentation","242","500440","0.0-20.0-1.13","SS1604611082894","<img src='images/simple/15.png' width ='500' height = '500' style='border:5px solid black'>","40","mixed_complex_deviant","images/simple/6.png","images/simple/15.png","images/complex/13.png,images/complex/15.png,images/complex/14.png,images/complex/12.png,images/complex/11.png,images/complex/1.png,images/complex/16.png","2","null","","200","843.4399999852758","","","","background","",""
"","null","html-keyboard-response","243","501623","0.0-20.0-0.14","SS1604611082894","","null","","","","","","","","","","","","<img src=images/blank.png width =""500"" height = ""500"" style=""border:5px solid black"">","","",""
"","939.8050000017975","stimulus-presentation","244","502798","0.0-20.0-1.14","SS1604611082894","<img src='images/simple/15.png' width ='500' height = '500' style='border:5px solid black'>","40","mixed_complex_deviant","images/simple/6.png","images/simple/15.png","images/complex/13.png,images/complex/15.png,images/complex/14.png,images/complex/12.png,images/complex/11.png,images/complex/1.png,images/complex/16.png","2","null","","200","1139.8050000017975","","","","background","",""
"","null","html-keyboard-response","245","504079","0.0-20.0-0.15","SS1604611082894","","null","","","","","","","","","","","","<img src=images/blank.png width =""500"" height = ""500"" style=""border:5px solid black"">","","",""
"","1436.8850000028033","stimulus-presentation","246","505743","0.0-20.0-1.15","SS1604611082894","<img src='images/simple/6.png' width ='500' height = '500' style='border:5px solid black'>","40","mixed_complex_deviant","images/simple/6.png","images/simple/15.png","images/complex/13.png,images/complex/15.png,images/complex/14.png,images/complex/12.png,images/complex/11.png,images/complex/1.png,images/complex/16.png","2","null","","200","1636.8850000028033","yes","540.659999998752","","target","",""
"","null","html-keyboard-response","247","506630","0.0-20.0-0.16","SS1604611082894","","null","","","","","","","","","","","","<img src=images/blank.png width =""500"" height = ""500"" style=""border:5px solid black"">","","",""
"","678.0300000100397","stimulus-presentation","248","507535","0.0-20.0-1.16","SS1604611082894","<img src='images/complex/1.png' width ='500' height = '500' style='border:5px solid black'>","40","mixed_complex_deviant","images/simple/6.png","images/simple/15.png","images/complex/13.png,images/complex/15.png,images/complex/14.png,images/complex/12.png,images/complex/11.png,images/complex/1.png,images/complex/16.png","2","null","","200","878.0300000100397","","","","deviant","",""
"","null","html-keyboard-response","249","508440","0.0-20.0-0.17","SS1604611082894","","null","","","","","","","","","","","","<img src=images/blank.png width =""500"" height = ""500"" style=""border:5px solid black"">","","",""
"","535.1800000062212","stimulus-presentation","250","509193","0.0-20.0-1.17","SS1604611082894","<img src='images/simple/15.png' width ='500' height = '500' style='border:5px solid black'>","40","mixed_complex_deviant","images/simple/6.png","images/simple/15.png","images/complex/13.png,images/complex/15.png,images/complex/14.png,images/complex/12.png,images/complex/11.png,images/complex/1.png,images/complex/16.png","2","null","","200","735.1800000062212","","","","background","",""
"","null","html-keyboard-response","251","510279","0.0-20.0-0.18","SS1604611082894","","null","","","","","","","","","","","","<img src=images/blank.png width =""500"" height = ""500"" style=""border:5px solid black"">","","",""
"","221.08999997726642","stimulus-presentation","252","510725","0.0-20.0-1.18","SS1604611082894","<img src='images/simple/15.png' width ='500' height = '500' style='border:5px solid black'>","40","mixed_complex_deviant","images/simple/6.png","images/simple/15.png","images/complex/13.png,images/complex/15.png,images/complex/14.png,images/complex/12.png,images/complex/11.png,images/complex/1.png,images/complex/16.png","2","null","","200","421.0899999772664","","","","background","",""
"","null","html-keyboard-response","253","511882","0.0-20.0-0.19","SS1604611082894","","null","","","","","","","","","","","","<img src=images/blank.png width =""500"" height = ""500"" style=""border:5px solid black"">","","",""
"","305.77499998616986","stimulus-presentation","254","512406","0.0-20.0-1.19","SS1604611082894","<img src='images/simple/15.png' width ='500' height = '500' style='border:5px solid black'>","40","mixed_complex_deviant","images/simple/6.png","images/simple/15.png","images/complex/13.png,images/complex/15.png,images/complex/14.png,images/complex/12.png,images/complex/11.png,images/complex/1.png,images/complex/16.png","2","null","","200","505.77499998616986","","","","background","",""
"","null","html-keyboard-response","255","513371","0.0-20.0-0.20","SS1604611082894","","null","","","","","","","","","","","","<img src=images/blank.png width =""500"" height = ""500"" style=""border:5px solid black"">","","",""
"","214.08999999403022","stimulus-presentation","256","513802","0.0-20.0-1.20","SS1604611082894","<img src='images/simple/15.png' width ='500' height = '500' style='border:5px solid black'>","40","mixed_complex_deviant","images/simple/6.png","images/simple/15.png","images/complex/13.png,images/complex/15.png,images/complex/14.png,images/complex/12.png,images/complex/11.png,images/complex/1.png,images/complex/16.png","2","null","","200","414.0899999940302","","","","background","",""
"","null","html-keyboard-response","257","515128","0.0-20.0-0.21","SS1604611082894","","null","","","","","","","","","","","","<img src=images/blank.png width =""500"" height = ""500"" style=""border:5px solid black"">","","",""
"","210.22499998798594","stimulus-presentation","258","515571","0.0-20.0-1.21","SS1604611082894","<img src='images/simple/15.png' width ='500' height = '500' style='border:5px solid black'>","40","mixed_complex_deviant","images/simple/6.png","images/simple/15.png","images/complex/13.png,images/complex/15.png,images/complex/14.png,images/complex/12.png,images/complex/11.png,images/complex/1.png,images/complex/16.png","2","null","","200","410.22499998798594","","","","background","",""
"","null","html-keyboard-response","259","516684","0.0-20.0-0.22","SS1604611082894","","null","","","","","","","","","","","","<img src=images/blank.png width =""500"" height = ""500"" style=""border:5px solid black"">","","",""
"","248.7050000054296","stimulus-presentation","260","517150","0.0-20.0-1.22","SS1604611082894","<img src='images/simple/15.png' width ='500' height = '500' style='border:5px solid black'>","40","mixed_complex_deviant","images/simple/6.png","images/simple/15.png","images/complex/13.png,images/complex/15.png,images/complex/14.png,images/complex/12.png,images/complex/11.png,images/complex/1.png,images/complex/16.png","2","null","","200","448.7050000054296","","","","background","",""
"","null","html-keyboard-response","261","518103","0.0-20.0-0.23","SS1604611082894","","null","","","","","","","","","","","","<img src=images/blank.png width =""500"" height = ""500"" style=""border:5px solid black"">","","",""
"","339.22999998321757","stimulus-presentation","262","518665","0.0-20.0-1.23","SS1604611082894","<img src='images/complex/16.png' width ='500' height = '500' style='border:5px solid black'>","40","mixed_complex_deviant","images/simple/6.png","images/simple/15.png","images/complex/13.png,images/complex/15.png,images/complex/14.png,images/complex/12.png,images/complex/11.png,images/complex/1.png,images/complex/16.png","2","null","","200","539.2299999832176","","","","deviant","",""
"","null","html-keyboard-response","263","519668","0.0-20.0-0.24","SS1604611082894","","null","","","","","","","","","","","","<img src=images/blank.png width =""500"" height = ""500"" style=""border:5px solid black"">","","",""
"","190.1250000228174","stimulus-presentation","264","520075","0.0-20.0-1.24","SS1604611082894","<img src='images/simple/15.png' width ='500' height = '500' style='border:5px solid black'>","40","mixed_complex_deviant","images/simple/6.png","images/simple/15.png","images/complex/13.png,images/complex/15.png,images/complex/14.png,images/complex/12.png,images/complex/11.png,images/complex/1.png,images/complex/16.png","2","null","","200","390.1250000228174","","","","background","",""
"","null","html-keyboard-response","265","521191","0.0-20.0-0.25","SS1604611082894","","null","","","","","","","","","","","","<img src=images/blank.png width =""500"" height = ""500"" style=""border:5px solid black"">","","",""
"","178.17999998806044","stimulus-presentation","266","521590","0.0-20.0-1.25","SS1604611082894","<img src='images/simple/15.png' width ='500' height = '500' style='border:5px solid black'>","40","mixed_complex_deviant","images/simple/6.png","images/simple/15.png","images/complex/13.png,images/complex/15.png,images/complex/14.png,images/complex/12.png,images/complex/11.png,images/complex/1.png,images/complex/16.png","2","null","","200","378.17999998806044","","","","background","",""
"","null","html-keyboard-response","267","522533","0.0-20.0-0.26","SS1604611082894","","null","","","","","","","","","","","","<img src=images/blank.png width =""500"" height = ""500"" style=""border:5px solid black"">","","",""
"","380.0599999958649","stimulus-presentation","268","523131","0.0-20.0-1.26","SS1604611082894","<img src='images/simple/15.png' width ='500' height = '500' style='border:5px solid black'>","40","mixed_complex_deviant","images/simple/6.png","images/simple/15.png","images/complex/13.png,images/complex/15.png,images/complex/14.png,images/complex/12.png,images/complex/11.png,images/complex/1.png,images/complex/16.png","2","null","","200","580.0599999958649","","","","background","",""
"","null","html-keyboard-response","269","524170","0.0-20.0-0.27","SS1604611082894","","null","","","","","","","","","","","","<img src=images/blank.png width =""500"" height = ""500"" style=""border:5px solid black"">","","",""
"","738.2899999793153","stimulus-presentation","270","525141","0.0-20.0-1.27","SS1604611082894","<img src='images/simple/15.png' width ='500' height = '500' style='border:5px solid black'>","40","mixed_complex_deviant","images/simple/6.png","images/simple/15.png","images/complex/13.png,images/complex/15.png,images/complex/14.png,images/complex/12.png,images/complex/11.png,images/complex/1.png,images/complex/16.png","2","null","","200","938.2899999793153","","","","background","",""
"","null","html-keyboard-response","271","526368","0.0-20.0-0.28","SS1604611082894","","null","","","","","","","","","","","","<img src=images/blank.png width =""500"" height = ""500"" style=""border:5px solid black"">","","",""
"","751.9449999963399","stimulus-presentation","272","527337","0.0-20.0-1.28","SS1604611082894","<img src='images/simple/15.png' width ='500' height = '500' style='border:5px solid black'>","40","mixed_complex_deviant","images/simple/6.png","images/simple/15.png","images/complex/13.png,images/complex/15.png,images/complex/14.png,images/complex/12.png,images/complex/11.png,images/complex/1.png,images/complex/16.png","2","null","","200","951.9449999963399","","","","background","",""
"","null","html-keyboard-response","273","528160","0.0-20.0-0.29","SS1604611082894","","null","","","","","","","","","","","","<img src=images/blank.png width =""500"" height = ""500"" style=""border:5px solid black"">","","",""
"","303.8200000009965","stimulus-presentation","274","528683","0.0-20.0-1.29","SS1604611082894","<img src='images/simple/15.png' width ='500' height = '500' style='border:5px solid black'>","40","mixed_complex_deviant","images/simple/6.png","images/simple/15.png","images/complex/13.png,images/complex/15.png,images/complex/14.png,images/complex/12.png,images/complex/11.png,images/complex/1.png,images/complex/16.png","2","null","","200","503.8200000009965","","","","background","",""
"","null","html-keyboard-response","275","529531","0.0-20.0-0.30","SS1604611082894","","null","","","","","","","","","","","","<img src=images/blank.png width =""500"" height = ""500"" style=""border:5px solid black"">","","",""
"","1502.1899999992456","stimulus-presentation","276","531258","0.0-20.0-1.30","SS1604611082894","<img src='images/simple/15.png' width ='500' height = '500' style='border:5px solid black'>","40","mixed_complex_deviant","images/simple/6.png","images/simple/15.png","images/complex/13.png,images/complex/15.png,images/complex/14.png,images/complex/12.png,images/complex/11.png,images/complex/1.png,images/complex/16.png","2","null","","200","1702.1899999992456","","","","background","",""
"","null","html-keyboard-response","277","532142","0.0-20.0-0.31","SS1604611082894","","null","","","","","","","","","","","","<img src=images/blank.png width =""500"" height = ""500"" style=""border:5px solid black"">","","",""
"","260.2400000032503","stimulus-presentation","278","532631","0.0-20.0-1.31","SS1604611082894","<img src='images/simple/15.png' width ='500' height = '500' style='border:5px solid black'>","40","mixed_complex_deviant","images/simple/6.png","images/simple/15.png","images/complex/13.png,images/complex/15.png,images/complex/14.png,images/complex/12.png,images/complex/11.png,images/complex/1.png,images/complex/16.png","2","null","","200","460.2400000032503","","","","background","",""
"","null","html-keyboard-response","279","533572","0.0-20.0-0.32","SS1604611082894","","null","","","","","","","","","","","","<img src=images/blank.png width =""500"" height = ""500"" style=""border:5px solid black"">","","",""
"","409.990000014659","stimulus-presentation","280","534213","0.0-20.0-1.32","SS1604611082894","<img src='images/complex/12.png' width ='500' height = '500' style='border:5px solid black'>","40","mixed_complex_deviant","images/simple/6.png","images/simple/15.png","images/complex/13.png,images/complex/15.png,images/complex/14.png,images/complex/12.png,images/complex/11.png,images/complex/1.png,images/complex/16.png","2","null","","200","609.990000014659","","","","deviant","",""
"","null","html-keyboard-response","281","535378","0.0-20.0-0.33","SS1604611082894","","null","","","","","","","","","","","","<img src=images/blank.png width =""500"" height = ""500"" style=""border:5px solid black"">","","",""
"","278.87499998905696","stimulus-presentation","282","535875","0.0-20.0-1.33","SS1604611082894","<img src='images/simple/15.png' width ='500' height = '500' style='border:5px solid black'>","40","mixed_complex_deviant","images/simple/6.png","images/simple/15.png","images/complex/13.png,images/complex/15.png,images/complex/14.png,images/complex/12.png,images/complex/11.png,images/complex/1.png,images/complex/16.png","2","null","","200","478.87499998905696","","","","background","",""
"","null","html-keyboard-response","283","536753","0.0-20.0-0.34","SS1604611082894","","null","","","","","","","","","","","","<img src=images/blank.png width =""500"" height = ""500"" style=""border:5px solid black"">","","",""
