"view_history","rt","trial_type","trial_index","time_elapsed","internal_node_id","subject","trial_stimulus","key_press","task_type","task_target_stimulus","task_background_stimulus","task_deviant_stimuli","task_order_number","block_order_number","trial_order_number","minimum_viewing_duration","trial_looking_time","trial_pressed_space_bar","trial_space_bar_rt","stimulus","trial_stimulus_type","responses","question_order"
"[{""page_index"":0,""viewing_time"":3612.6299999887124}]","3613.3200000040233","instructions","0","3668","0.0-0.0","SS1604514083455","","","","","","","","","","","","","","","","",""
"[{""page_index"":0,""viewing_time"":5709.585000004154},{""page_index"":1,""viewing_time"":5303.780000016559},{""page_index"":2,""viewing_time"":4911.254999984521},{""page_index"":3,""viewing_time"":10345.084999979008},{""page_index"":4,""viewing_time"":6247.8200000477955},{""page_index"":5,""viewing_time"":6456.53999998467},{""page_index"":6,""viewing_time"":1503.4749999758787},{""page_index"":7,""viewing_time"":4208.120000024792},{""page_index"":8,""viewing_time"":1775.4800000111572}]","46461.375000013504","instructions","1","50132","0.0-1.0","SS1604514083455","","","","","","","","","","","","","","","","",""
"[{""page_index"":0,""viewing_time"":4974.564999982249},{""page_index"":1,""viewing_time"":9256.385000015143},{""page_index"":2,""viewing_time"":1583.5899999947287}]","15814.834999968298","instructions","2","65949","0.0-2.0","SS1604514083455","","","","","","","","","","","","","","","","",""
"","3809.464999998454","practice-block","3","69962","0.0-3.0","SS1604514083455","<img src='images/practice/practice_background.jpeg' width ='500' height = '500' style='border:5px solid black'>","40","null","images/practice/practice_target.jpg","null","null","null","null","","200","4009.464999998454","","","","","",""
"","null","html-keyboard-response","4","71213","0.0-4.0","SS1604514083455","","null","","","","","","","","","","","","<img src=images/blank.png width =""500"" height = ""500"" style=""border:5px solid black"">","","",""
"","1411.4999999874271","practice-block","5","72831","0.0-5.0","SS1604514083455","<img src='images/practice/practice_background.jpeg' width ='500' height = '500' style='border:5px solid black'>","40","null","images/practice/practice_target.jpg","null","null","null","null","","200","1611.4999999874271","","","","","",""
"","null","html-keyboard-response","6","73746","0.0-6.0","SS1604514083455","","null","","","","","","","","","","","","<img src=images/blank.png width =""500"" height = ""500"" style=""border:5px solid black"">","","",""
"","1810.3899999987334","practice-block","7","75758","0.0-7.0","SS1604514083455","<img src='images/practice/practice_deviant.jpeg' width ='500' height = '500' style='border:5px solid black'>","40","null","images/practice/practice_target.jpg","null","null","null","null","","200","2010.3899999987334","","","","","",""
"","null","html-keyboard-response","8","76637","0.0-8.0","SS1604514083455","","null","","","","","","","","","","","","<img src=images/blank.png width =""500"" height = ""500"" style=""border:5px solid black"">","","",""
"","1115.1750000426546","practice-block","9","80766","0.0-9.0-0.0","SS1604514083455","<img src='images/practice/practice_target.jpg' width ='500' height = '500' style='border:5px solid black'>","40","null","images/practice/practice_target.jpg","null","null","null","null","","200","1315.1750000426546","","","","","",""
"","10206.064999976661","practice-block","10","91177","0.0-9.1-0.1","SS1604514083455","<img src='images/practice/practice_target.jpg' width ='500' height = '500' style='border:5px solid black'>","40","null","images/practice/practice_target.jpg","null","null","null","null","","200","10406.064999976661","yes","586.3999999710359","","","",""
"","null","html-keyboard-response","11","92298","0.0-10.0","SS1604514083455","","null","","","","","","","","","","","","<img src=images/blank.png width =""500"" height = ""500"" style=""border:5px solid black"">","","",""
"","771.3899999507703","practice-block","12","93277","0.0-11.0","SS1604514083455","<img src='images/practice/practice_background.jpeg' width ='500' height = '500' style='border:5px solid black'>","40","null","images/practice/practice_target.jpg","null","null","null","null","","200","971.3899999507703","","","","","",""
"[{""page_index"":0,""viewing_time"":1824}]","1824","task-instructions","13","95102","0.0-12.0","SS1604514083455","","","","","","","","","","","","","","","","",""
"[{""page_index"":0,""viewing_time"":2916.960000002291},{""page_index"":1,""viewing_time"":37851.82999999961},{""page_index"":2,""viewing_time"":1756.554999970831}]","42525.65999998478","instructions","14","137631","0.0-13.0","SS1604514083455","","","","","","","","","","","","","","","","",""
"","null","html-keyboard-response","15","138487","0.0-14.0-0.0","SS1604514083455","","null","","","","","","","","","","","","<img src=images/blank.png width =""500"" height = ""500"" style=""border:5px solid black"">","","",""
"","5664.005000027828","stimulus-presentation","16","144367","0.0-14.0-1.0","SS1604514083455","<img src='images/simple/1.png' width ='500' height = '500' style='border:5px solid black'>","40","all_simple","images/simple/11.png","images/simple/18.png","images/simple/5.png,images/simple/17.png,images/simple/14.png,images/simple/10.png,images/simple/16.png,images/simple/1.png,images/simple/8.png","0","null","","200","5864.005000027828","yes","4004.6650000149384","","deviant","",""
"","null","html-keyboard-response","17","145469","0.0-14.0-0.1","SS1604514083455","","null","","","","","","","","","","","","<img src=images/blank.png width =""500"" height = ""500"" style=""border:5px solid black"">","","",""
"","1585.9800000325777","stimulus-presentation","18","147261","0.0-14.0-1.1","SS1604514083455","<img src='images/simple/18.png' width ='500' height = '500' style='border:5px solid black'>","40","all_simple","images/simple/11.png","images/simple/18.png","images/simple/5.png,images/simple/17.png,images/simple/14.png,images/simple/10.png,images/simple/16.png,images/simple/1.png,images/simple/8.png","0","null","","200","1785.9800000325777","","","","background","",""
"","null","html-keyboard-response","19","148518","0.0-14.0-0.2","SS1604514083455","","null","","","","","","","","","","","","<img src=images/blank.png width =""500"" height = ""500"" style=""border:5px solid black"">","","",""
"","1015.2349999989383","stimulus-presentation","20","149736","0.0-14.0-1.2","SS1604514083455","<img src='images/simple/18.png' width ='500' height = '500' style='border:5px solid black'>","40","all_simple","images/simple/11.png","images/simple/18.png","images/simple/5.png,images/simple/17.png,images/simple/14.png,images/simple/10.png,images/simple/16.png,images/simple/1.png,images/simple/8.png","0","null","","200","1215.2349999989383","","","","background","",""
"","null","html-keyboard-response","21","150951","0.0-14.0-0.3","SS1604514083455","","null","","","","","","","","","","","","<img src=images/blank.png width =""500"" height = ""500"" style=""border:5px solid black"">","","",""
"","2044.9149999767542","stimulus-presentation","22","153204","0.0-14.0-1.3","SS1604514083455","<img src='images/simple/11.png' width ='500' height = '500' style='border:5px solid black'>","40","all_simple","images/simple/11.png","images/simple/18.png","images/simple/5.png,images/simple/17.png,images/simple/14.png,images/simple/10.png,images/simple/16.png,images/simple/1.png,images/simple/8.png","0","null","","200","2244.914999976754","yes","395.9649999742396","","target","",""
"","null","html-keyboard-response","23","154233","0.0-14.0-0.4","SS1604514083455","","null","","","","","","","","","","","","<img src=images/blank.png width =""500"" height = ""500"" style=""border:5px solid black"">","","",""
"","740.7550000352785","stimulus-presentation","24","155178","0.0-14.0-1.4","SS1604514083455","<img src='images/simple/18.png' width ='500' height = '500' style='border:5px solid black'>","40","all_simple","images/simple/11.png","images/simple/18.png","images/simple/5.png,images/simple/17.png,images/simple/14.png,images/simple/10.png,images/simple/16.png,images/simple/1.png,images/simple/8.png","0","null","","200","940.7550000352785","","","","background","",""
"","null","html-keyboard-response","25","156003","0.0-14.0-0.5","SS1604514083455","","null","","","","","","","","","","","","<img src=images/blank.png width =""500"" height = ""500"" style=""border:5px solid black"">","","",""
"","1722.6049999590032","stimulus-presentation","26","157931","0.0-14.0-1.5","SS1604514083455","<img src='images/simple/11.png' width ='500' height = '500' style='border:5px solid black'>","40","all_simple","images/simple/11.png","images/simple/18.png","images/simple/5.png,images/simple/17.png,images/simple/14.png,images/simple/10.png,images/simple/16.png,images/simple/1.png,images/simple/8.png","0","null","","200","1922.6049999590032","yes","783.4900000016205","","target","",""
"","null","html-keyboard-response","27","159034","0.0-14.0-0.6","SS1604514083455","","null","","","","","","","","","","","","<img src=images/blank.png width =""500"" height = ""500"" style=""border:5px solid black"">","","",""
"","368.88000002363697","stimulus-presentation","28","159609","0.0-14.0-1.6","SS1604514083455","<img src='images/simple/18.png' width ='500' height = '500' style='border:5px solid black'>","40","all_simple","images/simple/11.png","images/simple/18.png","images/simple/5.png,images/simple/17.png,images/simple/14.png,images/simple/10.png,images/simple/16.png,images/simple/1.png,images/simple/8.png","0","null","","200","568.880000023637","","","","background","",""
"","null","html-keyboard-response","29","160672","0.0-14.0-0.7","SS1604514083455","","null","","","","","","","","","","","","<img src=images/blank.png width =""500"" height = ""500"" style=""border:5px solid black"">","","",""
"","394.6499999728985","stimulus-presentation","30","161273","0.0-14.0-1.7","SS1604514083455","<img src='images/simple/18.png' width ='500' height = '500' style='border:5px solid black'>","40","all_simple","images/simple/11.png","images/simple/18.png","images/simple/5.png,images/simple/17.png,images/simple/14.png,images/simple/10.png,images/simple/16.png,images/simple/1.png,images/simple/8.png","0","null","","200","594.6499999728985","","","","background","",""
"","null","html-keyboard-response","31","162295","0.0-14.0-0.8","SS1604514083455","","null","","","","","","","","","","","","<img src=images/blank.png width =""500"" height = ""500"" style=""border:5px solid black"">","","",""
"","511.4600000088103","stimulus-presentation","32","163014","0.0-14.0-1.8","SS1604514083455","<img src='images/simple/16.png' width ='500' height = '500' style='border:5px solid black'>","40","all_simple","images/simple/11.png","images/simple/18.png","images/simple/5.png,images/simple/17.png,images/simple/14.png,images/simple/10.png,images/simple/16.png,images/simple/1.png,images/simple/8.png","0","null","","200","711.4600000088103","","","","deviant","",""
"","null","html-keyboard-response","33","164295","0.0-14.0-0.9","SS1604514083455","","null","","","","","","","","","","","","<img src=images/blank.png width =""500"" height = ""500"" style=""border:5px solid black"">","","",""
"","416.42999998293817","stimulus-presentation","34","164919","0.0-14.0-1.9","SS1604514083455","<img src='images/simple/18.png' width ='500' height = '500' style='border:5px solid black'>","40","all_simple","images/simple/11.png","images/simple/18.png","images/simple/5.png,images/simple/17.png,images/simple/14.png,images/simple/10.png,images/simple/16.png,images/simple/1.png,images/simple/8.png","0","null","","200","616.4299999829382","","","","background","",""
"","null","html-keyboard-response","35","165739","0.0-14.0-0.10","SS1604514083455","","null","","","","","","","","","","","","<img src=images/blank.png width =""500"" height = ""500"" style=""border:5px solid black"">","","",""
"","418.75499999150634","stimulus-presentation","36","166364","0.0-14.0-1.10","SS1604514083455","<img src='images/simple/18.png' width ='500' height = '500' style='border:5px solid black'>","40","all_simple","images/simple/11.png","images/simple/18.png","images/simple/5.png,images/simple/17.png,images/simple/14.png,images/simple/10.png,images/simple/16.png,images/simple/1.png,images/simple/8.png","0","null","","200","618.7549999915063","","","","background","",""
"","null","html-keyboard-response","37","167301","0.0-14.0-0.11","SS1604514083455","","null","","","","","","","","","","","","<img src=images/blank.png width =""500"" height = ""500"" style=""border:5px solid black"">","","",""
"","346.4049999602139","stimulus-presentation","38","167851","0.0-14.0-1.11","SS1604514083455","<img src='images/simple/18.png' width ='500' height = '500' style='border:5px solid black'>","40","all_simple","images/simple/11.png","images/simple/18.png","images/simple/5.png,images/simple/17.png,images/simple/14.png,images/simple/10.png,images/simple/16.png,images/simple/1.png,images/simple/8.png","0","null","","200","546.4049999602139","","","","background","",""
"","null","html-keyboard-response","39","168805","0.0-14.0-0.12","SS1604514083455","","null","","","","","","","","","","","","<img src=images/blank.png width =""500"" height = ""500"" style=""border:5px solid black"">","","",""
"","449.59000003291294","stimulus-presentation","40","169462","0.0-14.0-1.12","SS1604514083455","<img src='images/simple/18.png' width ='500' height = '500' style='border:5px solid black'>","40","all_simple","images/simple/11.png","images/simple/18.png","images/simple/5.png,images/simple/17.png,images/simple/14.png,images/simple/10.png,images/simple/16.png,images/simple/1.png,images/simple/8.png","0","null","","200","649.5900000329129","","","","background","",""
"","null","html-keyboard-response","41","170352","0.0-14.0-0.13","SS1604514083455","","null","","","","","","","","","","","","<img src=images/blank.png width =""500"" height = ""500"" style=""border:5px solid black"">","","",""
"","293.0449999985285","stimulus-presentation","42","170848","0.0-14.0-1.13","SS1604514083455","<img src='images/simple/18.png' width ='500' height = '500' style='border:5px solid black'>","40","all_simple","images/simple/11.png","images/simple/18.png","images/simple/5.png,images/simple/17.png,images/simple/14.png,images/simple/10.png,images/simple/16.png,images/simple/1.png,images/simple/8.png","0","null","","200","493.0449999985285","","","","background","",""
"","null","html-keyboard-response","43","171870","0.0-14.0-0.14","SS1604514083455","","null","","","","","","","","","","","","<img src=images/blank.png width =""500"" height = ""500"" style=""border:5px solid black"">","","",""
"","316.62999995751306","stimulus-presentation","44","172396","0.0-14.0-1.14","SS1604514083455","<img src='images/simple/18.png' width ='500' height = '500' style='border:5px solid black'>","40","all_simple","images/simple/11.png","images/simple/18.png","images/simple/5.png,images/simple/17.png,images/simple/14.png,images/simple/10.png,images/simple/16.png,images/simple/1.png,images/simple/8.png","0","null","","200","516.6299999575131","","","","background","",""
"","null","html-keyboard-response","45","173254","0.0-14.0-0.15","SS1604514083455","","null","","","","","","","","","","","","<img src=images/blank.png width =""500"" height = ""500"" style=""border:5px solid black"">","","",""
"","616.9949999894015","stimulus-presentation","46","174079","0.0-14.0-1.15","SS1604514083455","<img src='images/simple/8.png' width ='500' height = '500' style='border:5px solid black'>","40","all_simple","images/simple/11.png","images/simple/18.png","images/simple/5.png,images/simple/17.png,images/simple/14.png,images/simple/10.png,images/simple/16.png,images/simple/1.png,images/simple/8.png","0","null","","200","816.9949999894015","","","","deviant","",""
"","null","html-keyboard-response","47","175222","0.0-14.0-0.16","SS1604514083455","","null","","","","","","","","","","","","<img src=images/blank.png width =""500"" height = ""500"" style=""border:5px solid black"">","","",""
"","358.330000017304","stimulus-presentation","48","175787","0.0-14.0-1.16","SS1604514083455","<img src='images/simple/18.png' width ='500' height = '500' style='border:5px solid black'>","40","all_simple","images/simple/11.png","images/simple/18.png","images/simple/5.png,images/simple/17.png,images/simple/14.png,images/simple/10.png,images/simple/16.png,images/simple/1.png,images/simple/8.png","0","null","","200","558.330000017304","","","","background","",""
"","null","html-keyboard-response","49","176989","0.0-14.0-0.17","SS1604514083455","","null","","","","","","","","","","","","<img src=images/blank.png width =""500"" height = ""500"" style=""border:5px solid black"">","","",""
"","532.8049999661744","stimulus-presentation","50","177730","0.0-14.0-1.17","SS1604514083455","<img src='images/simple/14.png' width ='500' height = '500' style='border:5px solid black'>","40","all_simple","images/simple/11.png","images/simple/18.png","images/simple/5.png,images/simple/17.png,images/simple/14.png,images/simple/10.png,images/simple/16.png,images/simple/1.png,images/simple/8.png","0","null","","200","732.8049999661744","","","","deviant","",""
"","null","html-keyboard-response","51","178689","0.0-14.0-0.18","SS1604514083455","","null","","","","","","","","","","","","<img src=images/blank.png width =""500"" height = ""500"" style=""border:5px solid black"">","","",""
"","361.2800000119023","stimulus-presentation","52","179258","0.0-14.0-1.18","SS1604514083455","<img src='images/simple/18.png' width ='500' height = '500' style='border:5px solid black'>","40","all_simple","images/simple/11.png","images/simple/18.png","images/simple/5.png,images/simple/17.png,images/simple/14.png,images/simple/10.png,images/simple/16.png,images/simple/1.png,images/simple/8.png","0","null","","200","561.2800000119023","","","","background","",""
"","null","html-keyboard-response","53","180547","0.0-14.0-0.19","SS1604514083455","","null","","","","","","","","","","","","<img src=images/blank.png width =""500"" height = ""500"" style=""border:5px solid black"">","","",""
"","243.11999999918044","stimulus-presentation","54","180998","0.0-14.0-1.19","SS1604514083455","<img src='images/simple/18.png' width ='500' height = '500' style='border:5px solid black'>","40","all_simple","images/simple/11.png","images/simple/18.png","images/simple/5.png,images/simple/17.png,images/simple/14.png,images/simple/10.png,images/simple/16.png,images/simple/1.png,images/simple/8.png","0","null","","200","443.11999999918044","","","","background","",""
"","null","html-keyboard-response","55","182064","0.0-14.0-0.20","SS1604514083455","","null","","","","","","","","","","","","<img src=images/blank.png width =""500"" height = ""500"" style=""border:5px solid black"">","","",""
"","331.2949999817647","stimulus-presentation","56","182603","0.0-14.0-1.20","SS1604514083455","<img src='images/simple/18.png' width ='500' height = '500' style='border:5px solid black'>","40","all_simple","images/simple/11.png","images/simple/18.png","images/simple/5.png,images/simple/17.png,images/simple/14.png,images/simple/10.png,images/simple/16.png,images/simple/1.png,images/simple/8.png","0","null","","200","531.2949999817647","","","","background","",""
"","null","html-keyboard-response","57","183506","0.0-14.0-0.21","SS1604514083455","","null","","","","","","","","","","","","<img src=images/blank.png width =""500"" height = ""500"" style=""border:5px solid black"">","","",""
"","316.5150000131689","stimulus-presentation","58","184031","0.0-14.0-1.21","SS1604514083455","<img src='images/simple/18.png' width ='500' height = '500' style='border:5px solid black'>","40","all_simple","images/simple/11.png","images/simple/18.png","images/simple/5.png,images/simple/17.png,images/simple/14.png,images/simple/10.png,images/simple/16.png,images/simple/1.png,images/simple/8.png","0","null","","200","516.5150000131689","","","","background","",""
"","null","html-keyboard-response","59","184964","0.0-14.0-0.22","SS1604514083455","","null","","","","","","","","","","","","<img src=images/blank.png width =""500"" height = ""500"" style=""border:5px solid black"">","","",""
"","343.7399999820627","stimulus-presentation","60","185511","0.0-14.0-1.22","SS1604514083455","<img src='images/simple/18.png' width ='500' height = '500' style='border:5px solid black'>","40","all_simple","images/simple/11.png","images/simple/18.png","images/simple/5.png,images/simple/17.png,images/simple/14.png,images/simple/10.png,images/simple/16.png,images/simple/1.png,images/simple/8.png","0","null","","200","543.7399999820627","","","","background","",""
"","null","html-keyboard-response","61","186632","0.0-14.0-0.23","SS1604514083455","","null","","","","","","","","","","","","<img src=images/blank.png width =""500"" height = ""500"" style=""border:5px solid black"">","","",""
"","289.9749999633059","stimulus-presentation","62","187130","0.0-14.0-1.23","SS1604514083455","<img src='images/simple/18.png' width ='500' height = '500' style='border:5px solid black'>","40","all_simple","images/simple/11.png","images/simple/18.png","images/simple/5.png,images/simple/17.png,images/simple/14.png,images/simple/10.png,images/simple/16.png,images/simple/1.png,images/simple/8.png","0","null","","200","489.9749999633059","","","","background","",""
"","null","html-keyboard-response","63","187996","0.0-14.0-0.24","SS1604514083455","","null","","","","","","","","","","","","<img src=images/blank.png width =""500"" height = ""500"" style=""border:5px solid black"">","","",""
"","501.3050000416115","stimulus-presentation","64","188702","0.0-14.0-1.24","SS1604514083455","<img src='images/simple/5.png' width ='500' height = '500' style='border:5px solid black'>","40","all_simple","images/simple/11.png","images/simple/18.png","images/simple/5.png,images/simple/17.png,images/simple/14.png,images/simple/10.png,images/simple/16.png,images/simple/1.png,images/simple/8.png","0","null","","200","701.3050000416115","","","","deviant","",""
"","null","html-keyboard-response","65","189885","0.0-14.0-0.25","SS1604514083455","","null","","","","","","","","","","","","<img src=images/blank.png width =""500"" height = ""500"" style=""border:5px solid black"">","","",""
"","208.600000012666","stimulus-presentation","66","190301","0.0-14.0-1.25","SS1604514083455","<img src='images/simple/18.png' width ='500' height = '500' style='border:5px solid black'>","40","all_simple","images/simple/11.png","images/simple/18.png","images/simple/5.png,images/simple/17.png,images/simple/14.png,images/simple/10.png,images/simple/16.png,images/simple/1.png,images/simple/8.png","0","null","","200","408.600000012666","","","","background","",""
"","null","html-keyboard-response","67","191453","0.0-14.0-0.26","SS1604514083455","","null","","","","","","","","","","","","<img src=images/blank.png width =""500"" height = ""500"" style=""border:5px solid black"">","","",""
"","220.35499999765307","stimulus-presentation","68","191878","0.0-14.0-1.26","SS1604514083455","<img src='images/simple/18.png' width ='500' height = '500' style='border:5px solid black'>","40","all_simple","images/simple/11.png","images/simple/18.png","images/simple/5.png,images/simple/17.png,images/simple/14.png,images/simple/10.png,images/simple/16.png,images/simple/1.png,images/simple/8.png","0","null","","200","420.35499999765307","","","","background","",""
"","null","html-keyboard-response","69","193094","0.0-14.0-0.27","SS1604514083455","","null","","","","","","","","","","","","<img src=images/blank.png width =""500"" height = ""500"" style=""border:5px solid black"">","","",""
"","415.06999998819083","stimulus-presentation","70","193718","0.0-14.0-1.27","SS1604514083455","<img src='images/simple/18.png' width ='500' height = '500' style='border:5px solid black'>","40","all_simple","images/simple/11.png","images/simple/18.png","images/simple/5.png,images/simple/17.png,images/simple/14.png,images/simple/10.png,images/simple/16.png,images/simple/1.png,images/simple/8.png","0","null","","200","615.0699999881908","","","","background","",""
"","null","html-keyboard-response","71","194621","0.0-14.0-0.28","SS1604514083455","","null","","","","","","","","","","","","<img src=images/blank.png width =""500"" height = ""500"" style=""border:5px solid black"">","","",""
"","373.5450000385754","stimulus-presentation","72","195202","0.0-14.0-1.28","SS1604514083455","<img src='images/simple/18.png' width ='500' height = '500' style='border:5px solid black'>","40","all_simple","images/simple/11.png","images/simple/18.png","images/simple/5.png,images/simple/17.png,images/simple/14.png,images/simple/10.png,images/simple/16.png,images/simple/1.png,images/simple/8.png","0","null","","200","573.5450000385754","","","","background","",""
"","null","html-keyboard-response","73","196131","0.0-14.0-0.29","SS1604514083455","","null","","","","","","","","","","","","<img src=images/blank.png width =""500"" height = ""500"" style=""border:5px solid black"">","","",""
"","198.21500004036352","stimulus-presentation","74","196537","0.0-14.0-1.29","SS1604514083455","<img src='images/simple/18.png' width ='500' height = '500' style='border:5px solid black'>","40","all_simple","images/simple/11.png","images/simple/18.png","images/simple/5.png,images/simple/17.png,images/simple/14.png,images/simple/10.png,images/simple/16.png,images/simple/1.png,images/simple/8.png","0","null","","200","398.2150000403635","","","","background","",""
"","null","html-keyboard-response","75","197713","0.0-14.0-0.30","SS1604514083455","","null","","","","","","","","","","","","<img src=images/blank.png width =""500"" height = ""500"" style=""border:5px solid black"">","","",""
"","1497.3849999951199","stimulus-presentation","76","199418","0.0-14.0-1.30","SS1604514083455","<img src='images/simple/11.png' width ='500' height = '500' style='border:5px solid black'>","40","all_simple","images/simple/11.png","images/simple/18.png","images/simple/5.png,images/simple/17.png,images/simple/14.png,images/simple/10.png,images/simple/16.png,images/simple/1.png,images/simple/8.png","0","null","","200","1697.3849999951199","yes","736.5749999880791","","target","",""
"","null","html-keyboard-response","77","200290","0.0-14.0-0.31","SS1604514083455","","null","","","","","","","","","","","","<img src=images/blank.png width =""500"" height = ""500"" style=""border:5px solid black"">","","",""
"","577.3799999733455","stimulus-presentation","78","201075","0.0-14.0-1.31","SS1604514083455","<img src='images/simple/10.png' width ='500' height = '500' style='border:5px solid black'>","40","all_simple","images/simple/11.png","images/simple/18.png","images/simple/5.png,images/simple/17.png,images/simple/14.png,images/simple/10.png,images/simple/16.png,images/simple/1.png,images/simple/8.png","0","null","","200","777.3799999733455","","","","deviant","",""
"","null","html-keyboard-response","79","201933","0.0-14.0-0.32","SS1604514083455","","null","","","","","","","","","","","","<img src=images/blank.png width =""500"" height = ""500"" style=""border:5px solid black"">","","",""
"","1394.7449999977835","stimulus-presentation","80","203536","0.0-14.0-1.32","SS1604514083455","<img src='images/simple/11.png' width ='500' height = '500' style='border:5px solid black'>","40","all_simple","images/simple/11.png","images/simple/18.png","images/simple/5.png,images/simple/17.png,images/simple/14.png,images/simple/10.png,images/simple/16.png,images/simple/1.png,images/simple/8.png","0","null","","200","1594.7449999977835","yes","635.0999999558553","","target","",""
"","null","html-keyboard-response","81","204496","0.0-14.0-0.33","SS1604514083455","","null","","","","","","","","","","","","<img src=images/blank.png width =""500"" height = ""500"" style=""border:5px solid black"">","","",""
"","319.2799999960698","stimulus-presentation","82","205020","0.0-14.0-1.33","SS1604514083455","<img src='images/simple/18.png' width ='500' height = '500' style='border:5px solid black'>","40","all_simple","images/simple/11.png","images/simple/18.png","images/simple/5.png,images/simple/17.png,images/simple/14.png,images/simple/10.png,images/simple/16.png,images/simple/1.png,images/simple/8.png","0","null","","200","519.2799999960698","","","","background","",""
"","null","html-keyboard-response","83","205942","0.0-14.0-0.34","SS1604514083455","","null","","","","","","","","","","","","<img src=images/blank.png width =""500"" height = ""500"" style=""border:5px solid black"">","","",""
"","1214.23500002129","stimulus-presentation","84","207364","0.0-14.0-1.34","SS1604514083455","<img src='images/simple/11.png' width ='500' height = '500' style='border:5px solid black'>","40","all_simple","images/simple/11.png","images/simple/18.png","images/simple/5.png,images/simple/17.png,images/simple/14.png,images/simple/10.png,images/simple/16.png,images/simple/1.png,images/simple/8.png","0","null","","200","1414.23500002129","yes","513.2549999980256","","target","",""
"","null","html-keyboard-response","85","208308","0.0-14.0-0.35","SS1604514083455","","null","","","","","","","","","","","","<img src=images/blank.png width =""500"" height = ""500"" style=""border:5px solid black"">","","",""
"","1651.610000000801","stimulus-presentation","86","210169","0.0-14.0-1.35","SS1604514083455","<img src='images/simple/11.png' width ='500' height = '500' style='border:5px solid black'>","40","all_simple","images/simple/11.png","images/simple/18.png","images/simple/5.png,images/simple/17.png,images/simple/14.png,images/simple/10.png,images/simple/16.png,images/simple/1.png,images/simple/8.png","0","null","","200","1851.610000000801","yes","810.7350000063889","","target","",""
"","null","html-keyboard-response","87","211301","0.0-14.0-0.36","SS1604514083455","","null","","","","","","","","","","","","<img src=images/blank.png width =""500"" height = ""500"" style=""border:5px solid black"">","","",""
"","330.2350000012666","stimulus-presentation","88","211841","0.0-14.0-1.36","SS1604514083455","<img src='images/simple/18.png' width ='500' height = '500' style='border:5px solid black'>","40","all_simple","images/simple/11.png","images/simple/18.png","images/simple/5.png,images/simple/17.png,images/simple/14.png,images/simple/10.png,images/simple/16.png,images/simple/1.png,images/simple/8.png","0","null","","200","530.2350000012666","","","","background","",""
"","null","html-keyboard-response","89","212761","0.0-14.0-0.37","SS1604514083455","","null","","","","","","","","","","","","<img src=images/blank.png width =""500"" height = ""500"" style=""border:5px solid black"">","","",""
"","215.49000003142282","stimulus-presentation","90","213184","0.0-14.0-1.37","SS1604514083455","<img src='images/simple/18.png' width ='500' height = '500' style='border:5px solid black'>","40","all_simple","images/simple/11.png","images/simple/18.png","images/simple/5.png,images/simple/17.png,images/simple/14.png,images/simple/10.png,images/simple/16.png,images/simple/1.png,images/simple/8.png","0","null","","200","415.4900000314228","","","","background","",""
"","null","html-keyboard-response","91","214211","0.0-14.0-0.38","SS1604514083455","","null","","","","","","","","","","","","<img src=images/blank.png width =""500"" height = ""500"" style=""border:5px solid black"">","","",""
"","203.80499999737367","stimulus-presentation","92","214624","0.0-14.0-1.38","SS1604514083455","<img src='images/simple/18.png' width ='500' height = '500' style='border:5px solid black'>","40","all_simple","images/simple/11.png","images/simple/18.png","images/simple/5.png,images/simple/17.png,images/simple/14.png,images/simple/10.png,images/simple/16.png,images/simple/1.png,images/simple/8.png","0","null","","200","403.80499999737367","","","","background","",""
"","null","html-keyboard-response","93","215771","0.0-14.0-0.39","SS1604514083455","","null","","","","","","","","","","","","<img src=images/blank.png width =""500"" height = ""500"" style=""border:5px solid black"">","","",""
"","188.5550000006333","stimulus-presentation","94","216167","0.0-14.0-1.39","SS1604514083455","<img src='images/simple/18.png' width ='500' height = '500' style='border:5px solid black'>","40","all_simple","images/simple/11.png","images/simple/18.png","images/simple/5.png,images/simple/17.png,images/simple/14.png,images/simple/10.png,images/simple/16.png,images/simple/1.png,images/simple/8.png","0","null","","200","388.5550000006333","","","","background","",""
"","null","html-keyboard-response","95","217071","0.0-14.0-0.40","SS1604514083455","","null","","","","","","","","","","","","<img src=images/blank.png width =""500"" height = ""500"" style=""border:5px solid black"">","","",""
"","242.78500000946224","stimulus-presentation","96","217521","0.0-14.0-1.40","SS1604514083455","<img src='images/simple/18.png' width ='500' height = '500' style='border:5px solid black'>","40","all_simple","images/simple/11.png","images/simple/18.png","images/simple/5.png,images/simple/17.png,images/simple/14.png,images/simple/10.png,images/simple/16.png,images/simple/1.png,images/simple/8.png","0","null","","200","442.78500000946224","","","","background","",""
"","null","html-keyboard-response","97","218554","0.0-14.0-0.41","SS1604514083455","","null","","","","","","","","","","","","<img src=images/blank.png width =""500"" height = ""500"" style=""border:5px solid black"">","","",""
"","445.50999999046326","stimulus-presentation","98","219208","0.0-14.0-1.41","SS1604514083455","<img src='images/simple/17.png' width ='500' height = '500' style='border:5px solid black'>","40","all_simple","images/simple/11.png","images/simple/18.png","images/simple/5.png,images/simple/17.png,images/simple/14.png,images/simple/10.png,images/simple/16.png,images/simple/1.png,images/simple/8.png","0","null","","200","645.5099999904633","","","","deviant","",""
"","null","html-keyboard-response","99","220095","0.0-14.0-0.42","SS1604514083455","","null","","","","","","","","","","","","<img src=images/blank.png width =""500"" height = ""500"" style=""border:5px solid black"">","","",""
"","223.1000000028871","stimulus-presentation","100","220526","0.0-14.0-1.42","SS1604514083455","<img src='images/simple/18.png' width ='500' height = '500' style='border:5px solid black'>","40","all_simple","images/simple/11.png","images/simple/18.png","images/simple/5.png,images/simple/17.png,images/simple/14.png,images/simple/10.png,images/simple/16.png,images/simple/1.png,images/simple/8.png","0","null","","200","423.1000000028871","","","","background","",""
"","null","html-keyboard-response","101","221496","0.0-14.0-0.43","SS1604514083455","","null","","","","","","","","","","","","<img src=images/blank.png width =""500"" height = ""500"" style=""border:5px solid black"">","","",""
"","158.72499998658895","stimulus-presentation","102","221862","0.0-14.0-1.43","SS1604514083455","<img src='images/simple/18.png' width ='500' height = '500' style='border:5px solid black'>","40","all_simple","images/simple/11.png","images/simple/18.png","images/simple/5.png,images/simple/17.png,images/simple/14.png,images/simple/10.png,images/simple/16.png,images/simple/1.png,images/simple/8.png","0","null","","200","358.72499998658895","","","","background","",""
"","null","html-keyboard-response","103","222890","0.0-14.0-0.44","SS1604514083455","","null","","","","","","","","","","","","<img src=images/blank.png width =""500"" height = ""500"" style=""border:5px solid black"">","","",""
"","206.26499998616055","stimulus-presentation","104","223304","0.0-14.0-1.44","SS1604514083455","<img src='images/simple/18.png' width ='500' height = '500' style='border:5px solid black'>","40","all_simple","images/simple/11.png","images/simple/18.png","images/simple/5.png,images/simple/17.png,images/simple/14.png,images/simple/10.png,images/simple/16.png,images/simple/1.png,images/simple/8.png","0","null","","200","406.26499998616055","","","","background","",""
"","null","html-keyboard-response","105","224553","0.0-14.0-0.45","SS1604514083455","","null","","","","","","","","","","","","<img src=images/blank.png width =""500"" height = ""500"" style=""border:5px solid black"">","","",""
"","115.30000000493601","stimulus-presentation","106","224878","0.0-14.0-1.45","SS1604514083455","<img src='images/simple/18.png' width ='500' height = '500' style='border:5px solid black'>","40","all_simple","images/simple/11.png","images/simple/18.png","images/simple/5.png,images/simple/17.png,images/simple/14.png,images/simple/10.png,images/simple/16.png,images/simple/1.png,images/simple/8.png","0","null","","200","315.300000004936","","","","background","",""
"","null","html-keyboard-response","107","225699","0.0-14.0-0.46","SS1604514083455","","null","","","","","","","","","","","","<img src=images/blank.png width =""500"" height = ""500"" style=""border:5px solid black"">","","",""
"","254.92999999551103","stimulus-presentation","108","226164","0.0-14.0-1.46","SS1604514083455","<img src='images/simple/18.png' width ='500' height = '500' style='border:5px solid black'>","40","all_simple","images/simple/11.png","images/simple/18.png","images/simple/5.png,images/simple/17.png,images/simple/14.png,images/simple/10.png,images/simple/16.png,images/simple/1.png,images/simple/8.png","0","null","","200","454.929999995511","","","","background","",""
"","null","html-keyboard-response","109","227389","0.0-14.0-0.47","SS1604514083455","","null","","","","","","","","","","","","<img src=images/blank.png width =""500"" height = ""500"" style=""border:5px solid black"">","","",""
"","158.04000000935048","stimulus-presentation","110","227755","0.0-14.0-1.47","SS1604514083455","<img src='images/simple/18.png' width ='500' height = '500' style='border:5px solid black'>","40","all_simple","images/simple/11.png","images/simple/18.png","images/simple/5.png,images/simple/17.png,images/simple/14.png,images/simple/10.png,images/simple/16.png,images/simple/1.png,images/simple/8.png","0","null","","200","358.0400000093505","","","","background","",""
"","null","html-keyboard-response","111","228914","0.0-14.0-0.48","SS1604514083455","","null","","","","","","","","","","","","<img src=images/blank.png width =""500"" height = ""500"" style=""border:5px solid black"">","","",""
"","1015.6000000424683","stimulus-presentation","112","230138","0.0-14.0-1.48","SS1604514083455","<img src='images/simple/11.png' width ='500' height = '500' style='border:5px solid black'>","40","all_simple","images/simple/11.png","images/simple/18.png","images/simple/5.png,images/simple/17.png,images/simple/14.png,images/simple/10.png,images/simple/16.png,images/simple/1.png,images/simple/8.png","0","null","","200","1215.6000000424683","yes","263.21000000461936","","target","",""
"[{""page_index"":0,""viewing_time"":3401}]","3401","task-instructions","113","233542","0.0-15.0","SS1604514083455","","","","","","","","","","","","","","","","",""
"[{""page_index"":0,""viewing_time"":5844.140000001062},{""page_index"":1,""viewing_time"":6343.629999959376},{""page_index"":2,""viewing_time"":2079.4750000350177}]","14267.545000009704","instructions","114","247815","0.0-16.0","SS1604514083455","","","","","","","","","","","","","","","","",""
"","null","html-keyboard-response","115","248800","0.0-17.0-0.0","SS1604514083455","","null","","","","","","","","","","","","<img src=images/blank.png width =""500"" height = ""500"" style=""border:5px solid black"">","","",""
"","4734.004999976605","stimulus-presentation","116","253743","0.0-17.0-1.0","SS1604514083455","<img src='images/complex/10.png' width ='500' height = '500' style='border:5px solid black'>","40","mixed_simple_deviant","images/complex/1.png","images/complex/10.png","images/simple/3.png,images/simple/15.png,images/simple/4.png,images/simple/12.png,images/simple/2.png,images/simple/6.png,images/simple/13.png","1","null","","200","4934.004999976605","yes","2040.5549999559298","","background","",""
"","null","html-keyboard-response","117","254567","0.0-17.0-0.1","SS1604514083455","","null","","","","","","","","","","","","<img src=images/blank.png width =""500"" height = ""500"" style=""border:5px solid black"">","","",""
"","2785.5949999648146","stimulus-presentation","118","257562","0.0-17.0-1.1","SS1604514083455","<img src='images/simple/4.png' width ='500' height = '500' style='border:5px solid black'>","40","mixed_simple_deviant","images/complex/1.png","images/complex/10.png","images/simple/3.png,images/simple/15.png,images/simple/4.png,images/simple/12.png,images/simple/2.png,images/simple/6.png,images/simple/13.png","1","null","","200","2985.5949999648146","yes","1782.0749999955297","","deviant","",""
"","null","html-keyboard-response","119","258458","0.0-17.0-0.2","SS1604514083455","","null","","","","","","","","","","","","<img src=images/blank.png width =""500"" height = ""500"" style=""border:5px solid black"">","","",""
"","2503.2399999909103","stimulus-presentation","120","261171","0.0-17.0-1.2","SS1604514083455","<img src='images/complex/10.png' width ='500' height = '500' style='border:5px solid black'>","40","mixed_simple_deviant","images/complex/1.png","images/complex/10.png","images/simple/3.png,images/simple/15.png,images/simple/4.png,images/simple/12.png,images/simple/2.png,images/simple/6.png,images/simple/13.png","1","null","","200","2703.2399999909103","yes","1802.0200000028126","","background","",""
"","null","html-keyboard-response","121","262317","0.0-17.0-0.3","SS1604514083455","","null","","","","","","","","","","","","<img src=images/blank.png width =""500"" height = ""500"" style=""border:5px solid black"">","","",""
"","588.965000002645","stimulus-presentation","122","263114","0.0-17.0-1.3","SS1604514083455","<img src='images/complex/10.png' width ='500' height = '500' style='border:5px solid black'>","40","mixed_simple_deviant","images/complex/1.png","images/complex/10.png","images/simple/3.png,images/simple/15.png,images/simple/4.png,images/simple/12.png,images/simple/2.png,images/simple/6.png,images/simple/13.png","1","null","","200","788.965000002645","","","","background","",""
"","null","html-keyboard-response","123","264134","0.0-17.0-0.4","SS1604514083455","","null","","","","","","","","","","","","<img src=images/blank.png width =""500"" height = ""500"" style=""border:5px solid black"">","","",""
"","225.2650000154972","stimulus-presentation","124","264569","0.0-17.0-1.4","SS1604514083455","<img src='images/complex/10.png' width ='500' height = '500' style='border:5px solid black'>","40","mixed_simple_deviant","images/complex/1.png","images/complex/10.png","images/simple/3.png,images/simple/15.png,images/simple/4.png,images/simple/12.png,images/simple/2.png,images/simple/6.png,images/simple/13.png","1","null","","200","425.2650000154972","","","","background","",""
"","null","html-keyboard-response","125","265583","0.0-17.0-0.5","SS1604514083455","","null","","","","","","","","","","","","<img src=images/blank.png width =""500"" height = ""500"" style=""border:5px solid black"">","","",""
"","242.41999996593222","stimulus-presentation","126","266035","0.0-17.0-1.5","SS1604514083455","<img src='images/complex/10.png' width ='500' height = '500' style='border:5px solid black'>","40","mixed_simple_deviant","images/complex/1.png","images/complex/10.png","images/simple/3.png,images/simple/15.png,images/simple/4.png,images/simple/12.png,images/simple/2.png,images/simple/6.png,images/simple/13.png","1","null","","200","442.4199999659322","","","","background","",""
"","null","html-keyboard-response","127","267239","0.0-17.0-0.6","SS1604514083455","","null","","","","","","","","","","","","<img src=images/blank.png width =""500"" height = ""500"" style=""border:5px solid black"">","","",""
"","2227.3450000211596","stimulus-presentation","128","269672","0.0-17.0-1.6","SS1604514083455","<img src='images/complex/1.png' width ='500' height = '500' style='border:5px solid black'>","40","mixed_simple_deviant","images/complex/1.png","images/complex/10.png","images/simple/3.png,images/simple/15.png,images/simple/4.png,images/simple/12.png,images/simple/2.png,images/simple/6.png,images/simple/13.png","1","null","","200","2427.3450000211596","yes","711.2499999930151","","target","",""
"","null","html-keyboard-response","129","270832","0.0-17.0-0.7","SS1604514083455","","null","","","","","","","","","","","","<img src=images/blank.png width =""500"" height = ""500"" style=""border:5px solid black"">","","",""
"","282.0400000200607","stimulus-presentation","130","271321","0.0-17.0-1.7","SS1604514083455","<img src='images/complex/10.png' width ='500' height = '500' style='border:5px solid black'>","40","mixed_simple_deviant","images/complex/1.png","images/complex/10.png","images/simple/3.png,images/simple/15.png,images/simple/4.png,images/simple/12.png,images/simple/2.png,images/simple/6.png,images/simple/13.png","1","null","","200","482.0400000200607","","","","background","",""
"","null","html-keyboard-response","131","272352","0.0-17.0-0.8","SS1604514083455","","null","","","","","","","","","","","","<img src=images/blank.png width =""500"" height = ""500"" style=""border:5px solid black"">","","",""
"","1659.754999971483","stimulus-presentation","132","274221","0.0-17.0-1.8","SS1604514083455","<img src='images/complex/1.png' width ='500' height = '500' style='border:5px solid black'>","40","mixed_simple_deviant","images/complex/1.png","images/complex/10.png","images/simple/3.png,images/simple/15.png,images/simple/4.png,images/simple/12.png,images/simple/2.png,images/simple/6.png,images/simple/13.png","1","null","","200","1859.754999971483","yes","558.0649999901652","","target","",""
"","null","html-keyboard-response","133","275129","0.0-17.0-0.9","SS1604514083455","","null","","","","","","","","","","","","<img src=images/blank.png width =""500"" height = ""500"" style=""border:5px solid black"">","","",""
"","464.67500005383044","stimulus-presentation","134","275800","0.0-17.0-1.9","SS1604514083455","<img src='images/complex/10.png' width ='500' height = '500' style='border:5px solid black'>","40","mixed_simple_deviant","images/complex/1.png","images/complex/10.png","images/simple/3.png,images/simple/15.png,images/simple/4.png,images/simple/12.png,images/simple/2.png,images/simple/6.png,images/simple/13.png","1","null","","200","664.6750000538304","","","","background","",""
"","null","html-keyboard-response","135","276894","0.0-17.0-0.10","SS1604514083455","","null","","","","","","","","","","","","<img src=images/blank.png width =""500"" height = ""500"" style=""border:5px solid black"">","","",""
"","222.23499999381602","stimulus-presentation","136","277325","0.0-17.0-1.10","SS1604514083455","<img src='images/complex/10.png' width ='500' height = '500' style='border:5px solid black'>","40","mixed_simple_deviant","images/complex/1.png","images/complex/10.png","images/simple/3.png,images/simple/15.png,images/simple/4.png,images/simple/12.png,images/simple/2.png,images/simple/6.png,images/simple/13.png","1","null","","200","422.234999993816","","","","background","",""
"","null","html-keyboard-response","137","278378","0.0-17.0-0.11","SS1604514083455","","null","","","","","","","","","","","","<img src=images/blank.png width =""500"" height = ""500"" style=""border:5px solid black"">","","",""
"","404.1900000302121","stimulus-presentation","138","278990","0.0-17.0-1.11","SS1604514083455","<img src='images/simple/3.png' width ='500' height = '500' style='border:5px solid black'>","40","mixed_simple_deviant","images/complex/1.png","images/complex/10.png","images/simple/3.png,images/simple/15.png,images/simple/4.png,images/simple/12.png,images/simple/2.png,images/simple/6.png,images/simple/13.png","1","null","","200","604.1900000302121","","","","deviant","",""
"","null","html-keyboard-response","139","279912","0.0-17.0-0.12","SS1604514083455","","null","","","","","","","","","","","","<img src=images/blank.png width =""500"" height = ""500"" style=""border:5px solid black"">","","",""
"","275.324999995064","stimulus-presentation","140","280395","0.0-17.0-1.12","SS1604514083455","<img src='images/complex/10.png' width ='500' height = '500' style='border:5px solid black'>","40","mixed_simple_deviant","images/complex/1.png","images/complex/10.png","images/simple/3.png,images/simple/15.png,images/simple/4.png,images/simple/12.png,images/simple/2.png,images/simple/6.png,images/simple/13.png","1","null","","200","475.324999995064","","","","background","",""
"","null","html-keyboard-response","141","281463","0.0-17.0-0.13","SS1604514083455","","null","","","","","","","","","","","","<img src=images/blank.png width =""500"" height = ""500"" style=""border:5px solid black"">","","",""
"","772.5149999605492","stimulus-presentation","142","282442","0.0-17.0-1.13","SS1604514083455","<img src='images/complex/10.png' width ='500' height = '500' style='border:5px solid black'>","40","mixed_simple_deviant","images/complex/1.png","images/complex/10.png","images/simple/3.png,images/simple/15.png,images/simple/4.png,images/simple/12.png,images/simple/2.png,images/simple/6.png,images/simple/13.png","1","null","","200","972.5149999605492","","","","background","",""
"","null","html-keyboard-response","143","283556","0.0-17.0-0.14","SS1604514083455","","null","","","","","","","","","","","","<img src=images/blank.png width =""500"" height = ""500"" style=""border:5px solid black"">","","",""
"","241.1149999825284","stimulus-presentation","144","284003","0.0-17.0-1.14","SS1604514083455","<img src='images/complex/10.png' width ='500' height = '500' style='border:5px solid black'>","40","mixed_simple_deviant","images/complex/1.png","images/complex/10.png","images/simple/3.png,images/simple/15.png,images/simple/4.png,images/simple/12.png,images/simple/2.png,images/simple/6.png,images/simple/13.png","1","null","","200","441.1149999825284","","","","background","",""
"","null","html-keyboard-response","145","285121","0.0-17.0-0.15","SS1604514083455","","null","","","","","","","","","","","","<img src=images/blank.png width =""500"" height = ""500"" style=""border:5px solid black"">","","",""
"","281.0600000084378","stimulus-presentation","146","285608","0.0-17.0-1.15","SS1604514083455","<img src='images/complex/10.png' width ='500' height = '500' style='border:5px solid black'>","40","mixed_simple_deviant","images/complex/1.png","images/complex/10.png","images/simple/3.png,images/simple/15.png,images/simple/4.png,images/simple/12.png,images/simple/2.png,images/simple/6.png,images/simple/13.png","1","null","","200","481.0600000084378","","","","background","",""
"","null","html-keyboard-response","147","286805","0.0-17.0-0.16","SS1604514083455","","null","","","","","","","","","","","","<img src=images/blank.png width =""500"" height = ""500"" style=""border:5px solid black"">","","",""
"","268.1899999734014","stimulus-presentation","148","287280","0.0-17.0-1.16","SS1604514083455","<img src='images/complex/10.png' width ='500' height = '500' style='border:5px solid black'>","40","mixed_simple_deviant","images/complex/1.png","images/complex/10.png","images/simple/3.png,images/simple/15.png,images/simple/4.png,images/simple/12.png,images/simple/2.png,images/simple/6.png,images/simple/13.png","1","null","","200","468.1899999734014","","","","background","",""
"","null","html-keyboard-response","149","288180","0.0-17.0-0.17","SS1604514083455","","null","","","","","","","","","","","","<img src=images/blank.png width =""500"" height = ""500"" style=""border:5px solid black"">","","",""
"","477.7149999863468","stimulus-presentation","150","288865","0.0-17.0-1.17","SS1604514083455","<img src='images/simple/13.png' width ='500' height = '500' style='border:5px solid black'>","40","mixed_simple_deviant","images/complex/1.png","images/complex/10.png","images/simple/3.png,images/simple/15.png,images/simple/4.png,images/simple/12.png,images/simple/2.png,images/simple/6.png,images/simple/13.png","1","null","","200","677.7149999863468","","","","deviant","",""
"","null","html-keyboard-response","151","290149","0.0-17.0-0.18","SS1604514083455","","null","","","","","","","","","","","","<img src=images/blank.png width =""500"" height = ""500"" style=""border:5px solid black"">","","",""
"","283.6850000312552","stimulus-presentation","152","290639","0.0-17.0-1.18","SS1604514083455","<img src='images/complex/10.png' width ='500' height = '500' style='border:5px solid black'>","40","mixed_simple_deviant","images/complex/1.png","images/complex/10.png","images/simple/3.png,images/simple/15.png,images/simple/4.png,images/simple/12.png,images/simple/2.png,images/simple/6.png,images/simple/13.png","1","null","","200","483.6850000312552","","","","background","",""
"","null","html-keyboard-response","153","291748","0.0-17.0-0.19","SS1604514083455","","null","","","","","","","","","","","","<img src=images/blank.png width =""500"" height = ""500"" style=""border:5px solid black"">","","",""
"","262.56000000284985","stimulus-presentation","154","292217","0.0-17.0-1.19","SS1604514083455","<img src='images/complex/10.png' width ='500' height = '500' style='border:5px solid black'>","40","mixed_simple_deviant","images/complex/1.png","images/complex/10.png","images/simple/3.png,images/simple/15.png,images/simple/4.png,images/simple/12.png,images/simple/2.png,images/simple/6.png,images/simple/13.png","1","null","","200","462.56000000284985","","","","background","",""
"","null","html-keyboard-response","155","293246","0.0-17.0-0.20","SS1604514083455","","null","","","","","","","","","","","","<img src=images/blank.png width =""500"" height = ""500"" style=""border:5px solid black"">","","",""
"","1286.2399999867193","stimulus-presentation","156","294741","0.0-17.0-1.20","SS1604514083455","<img src='images/complex/1.png' width ='500' height = '500' style='border:5px solid black'>","40","mixed_simple_deviant","images/complex/1.png","images/complex/10.png","images/simple/3.png,images/simple/15.png,images/simple/4.png,images/simple/12.png,images/simple/2.png,images/simple/6.png,images/simple/13.png","1","null","","200","1486.2399999867193","yes","448.0749999638647","","target","",""
"","null","html-keyboard-response","157","295588","0.0-17.0-0.21","SS1604514083455","","null","","","","","","","","","","","","<img src=images/blank.png width =""500"" height = ""500"" style=""border:5px solid black"">","","",""
"","208.9350000023842","stimulus-presentation","158","296006","0.0-17.0-1.21","SS1604514083455","<img src='images/complex/10.png' width ='500' height = '500' style='border:5px solid black'>","40","mixed_simple_deviant","images/complex/1.png","images/complex/10.png","images/simple/3.png,images/simple/15.png,images/simple/4.png,images/simple/12.png,images/simple/2.png,images/simple/6.png,images/simple/13.png","1","null","","200","408.9350000023842","","","","background","",""
"","null","html-keyboard-response","159","297054","0.0-17.0-0.22","SS1604514083455","","null","","","","","","","","","","","","<img src=images/blank.png width =""500"" height = ""500"" style=""border:5px solid black"">","","",""
"","190.84999995538965","stimulus-presentation","160","297454","0.0-17.0-1.22","SS1604514083455","<img src='images/complex/1.png' width ='500' height = '500' style='border:5px solid black'>","40","mixed_simple_deviant","images/complex/1.png","images/complex/10.png","images/simple/3.png,images/simple/15.png,images/simple/4.png,images/simple/12.png,images/simple/2.png,images/simple/6.png,images/simple/13.png","1","null","","200","390.84999995538965","","","","target","",""
"","null","html-keyboard-response","161","298747","0.0-17.0-0.23","SS1604514083455","","null","","","","","","","","","","","","<img src=images/blank.png width =""500"" height = ""500"" style=""border:5px solid black"">","","",""
"","186.66499998653308","stimulus-presentation","162","299142","0.0-17.0-1.23","SS1604514083455","<img src='images/complex/10.png' width ='500' height = '500' style='border:5px solid black'>","40","mixed_simple_deviant","images/complex/1.png","images/complex/10.png","images/simple/3.png,images/simple/15.png,images/simple/4.png,images/simple/12.png,images/simple/2.png,images/simple/6.png,images/simple/13.png","1","null","","200","386.6649999865331","","","","background","",""
"","null","html-keyboard-response","163","300347","0.0-17.0-0.24","SS1604514083455","","null","","","","","","","","","","","","<img src=images/blank.png width =""500"" height = ""500"" style=""border:5px solid black"">","","",""
"","660.5100000160746","stimulus-presentation","164","301215","0.0-17.0-1.24","SS1604514083455","<img src='images/simple/15.png' width ='500' height = '500' style='border:5px solid black'>","40","mixed_simple_deviant","images/complex/1.png","images/complex/10.png","images/simple/3.png,images/simple/15.png,images/simple/4.png,images/simple/12.png,images/simple/2.png,images/simple/6.png,images/simple/13.png","1","null","","200","860.5100000160746","","","","deviant","",""
"","null","html-keyboard-response","165","302281","0.0-17.0-0.25","SS1604514083455","","null","","","","","","","","","","","","<img src=images/blank.png width =""500"" height = ""500"" style=""border:5px solid black"">","","",""
"","289.98499998124316","stimulus-presentation","166","302779","0.0-17.0-1.25","SS1604514083455","<img src='images/complex/10.png' width ='500' height = '500' style='border:5px solid black'>","40","mixed_simple_deviant","images/complex/1.png","images/complex/10.png","images/simple/3.png,images/simple/15.png,images/simple/4.png,images/simple/12.png,images/simple/2.png,images/simple/6.png,images/simple/13.png","1","null","","200","489.98499998124316","","","","background","",""
"","null","html-keyboard-response","167","303922","0.0-17.0-0.26","SS1604514083455","","null","","","","","","","","","","","","<img src=images/blank.png width =""500"" height = ""500"" style=""border:5px solid black"">","","",""
"","290.46499996911734","stimulus-presentation","168","304421","0.0-17.0-1.26","SS1604514083455","<img src='images/complex/1.png' width ='500' height = '500' style='border:5px solid black'>","40","mixed_simple_deviant","images/complex/1.png","images/complex/10.png","images/simple/3.png,images/simple/15.png,images/simple/4.png,images/simple/12.png,images/simple/2.png,images/simple/6.png,images/simple/13.png","1","null","","200","490.46499996911734","","","","target","",""
"","null","html-keyboard-response","169","305382","0.0-17.0-0.27","SS1604514083455","","null","","","","","","","","","","","","<img src=images/blank.png width =""500"" height = ""500"" style=""border:5px solid black"">","","",""
"","284.66499998467043","stimulus-presentation","170","305874","0.0-17.0-1.27","SS1604514083455","<img src='images/complex/10.png' width ='500' height = '500' style='border:5px solid black'>","40","mixed_simple_deviant","images/complex/1.png","images/complex/10.png","images/simple/3.png,images/simple/15.png,images/simple/4.png,images/simple/12.png,images/simple/2.png,images/simple/6.png,images/simple/13.png","1","null","","200","484.66499998467043","","","","background","",""
"","null","html-keyboard-response","171","306912","0.0-17.0-0.28","SS1604514083455","","null","","","","","","","","","","","","<img src=images/blank.png width =""500"" height = ""500"" style=""border:5px solid black"">","","",""
"","216.22500004014","stimulus-presentation","172","307339","0.0-17.0-1.28","SS1604514083455","<img src='images/complex/10.png' width ='500' height = '500' style='border:5px solid black'>","40","mixed_simple_deviant","images/complex/1.png","images/complex/10.png","images/simple/3.png,images/simple/15.png,images/simple/4.png,images/simple/12.png,images/simple/2.png,images/simple/6.png,images/simple/13.png","1","null","","200","416.22500004014","","","","background","",""
"","null","html-keyboard-response","173","308239","0.0-17.0-0.29","SS1604514083455","","null","","","","","","","","","","","","<img src=images/blank.png width =""500"" height = ""500"" style=""border:5px solid black"">","","",""
"","832.2350000380538","stimulus-presentation","174","309280","0.0-17.0-1.29","SS1604514083455","<img src='images/simple/2.png' width ='500' height = '500' style='border:5px solid black'>","40","mixed_simple_deviant","images/complex/1.png","images/complex/10.png","images/simple/3.png,images/simple/15.png,images/simple/4.png,images/simple/12.png,images/simple/2.png,images/simple/6.png,images/simple/13.png","1","null","","200","1032.2350000380538","","","","deviant","",""
"","null","html-keyboard-response","175","310165","0.0-17.0-0.30","SS1604514083455","","null","","","","","","","","","","","","<img src=images/blank.png width =""500"" height = ""500"" style=""border:5px solid black"">","","",""
"","438.26000002445653","stimulus-presentation","176","310811","0.0-17.0-1.30","SS1604514083455","<img src='images/complex/10.png' width ='500' height = '500' style='border:5px solid black'>","40","mixed_simple_deviant","images/complex/1.png","images/complex/10.png","images/simple/3.png,images/simple/15.png,images/simple/4.png,images/simple/12.png,images/simple/2.png,images/simple/6.png,images/simple/13.png","1","null","","200","638.2600000244565","","","","background","",""
"","null","html-keyboard-response","177","312042","0.0-17.0-0.31","SS1604514083455","","null","","","","","","","","","","","","<img src=images/blank.png width =""500"" height = ""500"" style=""border:5px solid black"">","","",""
"","233.37999999057502","stimulus-presentation","178","312482","0.0-17.0-1.31","SS1604514083455","<img src='images/complex/10.png' width ='500' height = '500' style='border:5px solid black'>","40","mixed_simple_deviant","images/complex/1.png","images/complex/10.png","images/simple/3.png,images/simple/15.png,images/simple/4.png,images/simple/12.png,images/simple/2.png,images/simple/6.png,images/simple/13.png","1","null","","200","433.379999990575","","","","background","",""
"","null","html-keyboard-response","179","313630","0.0-17.0-0.32","SS1604514083455","","null","","","","","","","","","","","","<img src=images/blank.png width =""500"" height = ""500"" style=""border:5px solid black"">","","",""
"","1138.1249999976717","stimulus-presentation","180","314978","0.0-17.0-1.32","SS1604514083455","<img src='images/complex/1.png' width ='500' height = '500' style='border:5px solid black'>","40","mixed_simple_deviant","images/complex/1.png","images/complex/10.png","images/simple/3.png,images/simple/15.png,images/simple/4.png,images/simple/12.png,images/simple/2.png,images/simple/6.png,images/simple/13.png","1","null","","200","1338.1249999976717","yes","330.07500000530854","","target","",""
"","null","html-keyboard-response","181","316075","0.0-17.0-0.33","SS1604514083455","","null","","","","","","","","","","","","<img src=images/blank.png width =""500"" height = ""500"" style=""border:5px solid black"">","","",""
"","232.9750000499189","stimulus-presentation","182","316515","0.0-17.0-1.33","SS1604514083455","<img src='images/complex/10.png' width ='500' height = '500' style='border:5px solid black'>","40","mixed_simple_deviant","images/complex/1.png","images/complex/10.png","images/simple/3.png,images/simple/15.png,images/simple/4.png,images/simple/12.png,images/simple/2.png,images/simple/6.png,images/simple/13.png","1","null","","200","432.9750000499189","","","","background","",""
"","null","html-keyboard-response","183","317815","0.0-17.0-0.34","SS1604514083455","","null","","","","","","","","","","","","<img src=images/blank.png width =""500"" height = ""500"" style=""border:5px solid black"">","","",""
"","166.4650000166148","stimulus-presentation","184","318190","0.0-17.0-1.34","SS1604514083455","<img src='images/complex/10.png' width ='500' height = '500' style='border:5px solid black'>","40","mixed_simple_deviant","images/complex/1.png","images/complex/10.png","images/simple/3.png,images/simple/15.png,images/simple/4.png,images/simple/12.png,images/simple/2.png,images/simple/6.png,images/simple/13.png","1","null","","200","366.4650000166148","","","","background","",""
"","null","html-keyboard-response","185","319382","0.0-17.0-0.35","SS1604514083455","","null","","","","","","","","","","","","<img src=images/blank.png width =""500"" height = ""500"" style=""border:5px solid black"">","","",""
"","349.50000001117587","stimulus-presentation","186","319940","0.0-17.0-1.35","SS1604514083455","<img src='images/complex/10.png' width ='500' height = '500' style='border:5px solid black'>","40","mixed_simple_deviant","images/complex/1.png","images/complex/10.png","images/simple/3.png,images/simple/15.png,images/simple/4.png,images/simple/12.png,images/simple/2.png,images/simple/6.png,images/simple/13.png","1","null","","200","549.5000000111759","","","","background","",""
"","null","html-keyboard-response","187","321114","0.0-17.0-0.36","SS1604514083455","","null","","","","","","","","","","","","<img src=images/blank.png width =""500"" height = ""500"" style=""border:5px solid black"">","","",""
"","1303.6800000118092","stimulus-presentation","188","322627","0.0-17.0-1.36","SS1604514083455","<img src='images/complex/10.png' width ='500' height = '500' style='border:5px solid black'>","40","mixed_simple_deviant","images/complex/1.png","images/complex/10.png","images/simple/3.png,images/simple/15.png,images/simple/4.png,images/simple/12.png,images/simple/2.png,images/simple/6.png,images/simple/13.png","1","null","","200","1503.6800000118092","","","","background","",""
"","null","html-keyboard-response","189","323749","0.0-17.0-0.37","SS1604514083455","","null","","","","","","","","","","","","<img src=images/blank.png width =""500"" height = ""500"" style=""border:5px solid black"">","","",""
"","721.2699999799952","stimulus-presentation","190","324679","0.0-17.0-1.37","SS1604514083455","<img src='images/simple/12.png' width ='500' height = '500' style='border:5px solid black'>","40","mixed_simple_deviant","images/complex/1.png","images/complex/10.png","images/simple/3.png,images/simple/15.png,images/simple/4.png,images/simple/12.png,images/simple/2.png,images/simple/6.png,images/simple/13.png","1","null","","200","921.2699999799952","","","","deviant","",""
"","null","html-keyboard-response","191","325677","0.0-17.0-0.38","SS1604514083455","","null","","","","","","","","","","","","<img src=images/blank.png width =""500"" height = ""500"" style=""border:5px solid black"">","","",""
"","770.6449999823235","stimulus-presentation","192","326656","0.0-17.0-1.38","SS1604514083455","<img src='images/complex/10.png' width ='500' height = '500' style='border:5px solid black'>","40","mixed_simple_deviant","images/complex/1.png","images/complex/10.png","images/simple/3.png,images/simple/15.png,images/simple/4.png,images/simple/12.png,images/simple/2.png,images/simple/6.png,images/simple/13.png","1","null","","200","970.6449999823235","","","","background","",""
"","null","html-keyboard-response","193","327774","0.0-17.0-0.39","SS1604514083455","","null","","","","","","","","","","","","<img src=images/blank.png width =""500"" height = ""500"" style=""border:5px solid black"">","","",""
"","245.87500002235174","stimulus-presentation","194","328229","0.0-17.0-1.39","SS1604514083455","<img src='images/complex/10.png' width ='500' height = '500' style='border:5px solid black'>","40","mixed_simple_deviant","images/complex/1.png","images/complex/10.png","images/simple/3.png,images/simple/15.png,images/simple/4.png,images/simple/12.png,images/simple/2.png,images/simple/6.png,images/simple/13.png","1","null","","200","445.87500002235174","","","","background","",""
"","null","html-keyboard-response","195","329291","0.0-17.0-0.40","SS1604514083455","","null","","","","","","","","","","","","<img src=images/blank.png width =""500"" height = ""500"" style=""border:5px solid black"">","","",""
"","255.42500003939494","stimulus-presentation","196","329754","0.0-17.0-1.40","SS1604514083455","<img src='images/complex/10.png' width ='500' height = '500' style='border:5px solid black'>","40","mixed_simple_deviant","images/complex/1.png","images/complex/10.png","images/simple/3.png,images/simple/15.png,images/simple/4.png,images/simple/12.png,images/simple/2.png,images/simple/6.png,images/simple/13.png","1","null","","200","455.42500003939494","","","","background","",""
"","null","html-keyboard-response","197","331041","0.0-17.0-0.41","SS1604514083455","","null","","","","","","","","","","","","<img src=images/blank.png width =""500"" height = ""500"" style=""border:5px solid black"">","","",""
"","292.3850000370294","stimulus-presentation","198","331543","0.0-17.0-1.41","SS1604514083455","<img src='images/complex/10.png' width ='500' height = '500' style='border:5px solid black'>","40","mixed_simple_deviant","images/complex/1.png","images/complex/10.png","images/simple/3.png,images/simple/15.png,images/simple/4.png,images/simple/12.png,images/simple/2.png,images/simple/6.png,images/simple/13.png","1","null","","200","492.3850000370294","","","","background","",""
"","null","html-keyboard-response","199","332558","0.0-17.0-0.42","SS1604514083455","","null","","","","","","","","","","","","<img src=images/blank.png width =""500"" height = ""500"" style=""border:5px solid black"">","","",""
"","497.73000000277534","stimulus-presentation","200","333265","0.0-17.0-1.42","SS1604514083455","<img src='images/simple/6.png' width ='500' height = '500' style='border:5px solid black'>","40","mixed_simple_deviant","images/complex/1.png","images/complex/10.png","images/simple/3.png,images/simple/15.png,images/simple/4.png,images/simple/12.png,images/simple/2.png,images/simple/6.png,images/simple/13.png","1","null","","200","697.7300000027753","","","","deviant","",""
"","null","html-keyboard-response","201","334425","0.0-17.0-0.43","SS1604514083455","","null","","","","","","","","","","","","<img src=images/blank.png width =""500"" height = ""500"" style=""border:5px solid black"">","","",""
"","311.5749999997206","stimulus-presentation","202","334946","0.0-17.0-1.43","SS1604514083455","<img src='images/complex/10.png' width ='500' height = '500' style='border:5px solid black'>","40","mixed_simple_deviant","images/complex/1.png","images/complex/10.png","images/simple/3.png,images/simple/15.png,images/simple/4.png,images/simple/12.png,images/simple/2.png,images/simple/6.png,images/simple/13.png","1","null","","200","511.5749999997206","","","","background","",""
"","null","html-keyboard-response","203","335825","0.0-17.0-0.44","SS1604514083455","","null","","","","","","","","","","","","<img src=images/blank.png width =""500"" height = ""500"" style=""border:5px solid black"">","","",""
"","304.3000000179745","stimulus-presentation","204","336338","0.0-17.0-1.44","SS1604514083455","<img src='images/complex/10.png' width ='500' height = '500' style='border:5px solid black'>","40","mixed_simple_deviant","images/complex/1.png","images/complex/10.png","images/simple/3.png,images/simple/15.png,images/simple/4.png,images/simple/12.png,images/simple/2.png,images/simple/6.png,images/simple/13.png","1","null","","200","504.3000000179745","","","","background","",""
"","null","html-keyboard-response","205","337551","0.0-17.0-0.45","SS1604514083455","","null","","","","","","","","","","","","<img src=images/blank.png width =""500"" height = ""500"" style=""border:5px solid black"">","","",""
"","274.48500000173226","stimulus-presentation","206","338033","0.0-17.0-1.45","SS1604514083455","<img src='images/complex/10.png' width ='500' height = '500' style='border:5px solid black'>","40","mixed_simple_deviant","images/complex/1.png","images/complex/10.png","images/simple/3.png,images/simple/15.png,images/simple/4.png,images/simple/12.png,images/simple/2.png,images/simple/6.png,images/simple/13.png","1","null","","200","474.48500000173226","","","","background","",""
"","null","html-keyboard-response","207","339132","0.0-17.0-0.46","SS1604514083455","","null","","","","","","","","","","","","<img src=images/blank.png width =""500"" height = ""500"" style=""border:5px solid black"">","","",""
"","226.16500000003725","stimulus-presentation","208","339568","0.0-17.0-1.46","SS1604514083455","<img src='images/complex/10.png' width ='500' height = '500' style='border:5px solid black'>","40","mixed_simple_deviant","images/complex/1.png","images/complex/10.png","images/simple/3.png,images/simple/15.png,images/simple/4.png,images/simple/12.png,images/simple/2.png,images/simple/6.png,images/simple/13.png","1","null","","200","426.16500000003725","","","","background","",""
"","null","html-keyboard-response","209","340681","0.0-17.0-0.47","SS1604514083455","","null","","","","","","","","","","","","<img src=images/blank.png width =""500"" height = ""500"" style=""border:5px solid black"">","","",""
"","1924.109999963548","stimulus-presentation","210","342816","0.0-17.0-1.47","SS1604514083455","<img src='images/complex/1.png' width ='500' height = '500' style='border:5px solid black'>","40","mixed_simple_deviant","images/complex/1.png","images/complex/10.png","images/simple/3.png,images/simple/15.png,images/simple/4.png,images/simple/12.png,images/simple/2.png,images/simple/6.png,images/simple/13.png","1","null","","200","2124.109999963548","yes","487.554999999702","","target","",""
"","null","html-keyboard-response","211","344101","0.0-17.0-0.48","SS1604514083455","","null","","","","","","","","","","","","<img src=images/blank.png width =""500"" height = ""500"" style=""border:5px solid black"">","","",""
"","247.67999997129664","stimulus-presentation","212","344557","0.0-17.0-1.48","SS1604514083455","<img src='images/complex/10.png' width ='500' height = '500' style='border:5px solid black'>","40","mixed_simple_deviant","images/complex/1.png","images/complex/10.png","images/simple/3.png,images/simple/15.png,images/simple/4.png,images/simple/12.png,images/simple/2.png,images/simple/6.png,images/simple/13.png","1","null","","200","447.67999997129664","","","","background","",""
"[{""page_index"":0,""viewing_time"":2104}]","2104","task-instructions","213","346666","0.0-18.0","SS1604514083455","","","","","","","","","","","","","","","","",""
"[{""page_index"":0,""viewing_time"":1287.6999999862164},{""page_index"":1,""viewing_time"":4992.800000007264},{""page_index"":2,""viewing_time"":1734.9149999790825}]","8015.724999946542","instructions","214","354690","0.0-19.0","SS1604514083455","","","","","","","","","","","","","","","","",""
"","null","html-keyboard-response","215","355522","0.0-20.0-0.0","SS1604514083455","","null","","","","","","","","","","","","<img src=images/blank.png width =""500"" height = ""500"" style=""border:5px solid black"">","","",""
"","2808.4099999978207","stimulus-presentation","216","358543","0.0-20.0-1.0","SS1604514083455","<img src='images/complex/7.png' width ='500' height = '500' style='border:5px solid black'>","40","all_complex","images/complex/13.png","images/complex/5.png","images/complex/7.png,images/complex/6.png,images/complex/12.png,images/complex/18.png,images/complex/9.png,images/complex/8.png,images/complex/15.png","2","null","","200","3008.4099999978207","","","","deviant","",""
"","null","html-keyboard-response","217","359486","0.0-20.0-0.1","SS1604514083455","","null","","","","","","","","","","","","<img src=images/blank.png width =""500"" height = ""500"" style=""border:5px solid black"">","","",""
"","334.56499996827915","stimulus-presentation","218","360029","0.0-20.0-1.1","SS1604514083455","<img src='images/complex/5.png' width ='500' height = '500' style='border:5px solid black'>","40","all_complex","images/complex/13.png","images/complex/5.png","images/complex/7.png,images/complex/6.png,images/complex/12.png,images/complex/18.png,images/complex/9.png,images/complex/8.png,images/complex/15.png","2","null","","200","534.5649999682792","","","","background","",""
"","null","html-keyboard-response","219","360968","0.0-20.0-0.2","SS1604514083455","","null","","","","","","","","","","","","<img src=images/blank.png width =""500"" height = ""500"" style=""border:5px solid black"">","","",""
"","418.0400000186637","stimulus-presentation","220","361596","0.0-20.0-1.2","SS1604514083455","<img src='images/complex/5.png' width ='500' height = '500' style='border:5px solid black'>","40","all_complex","images/complex/13.png","images/complex/5.png","images/complex/7.png,images/complex/6.png,images/complex/12.png,images/complex/18.png,images/complex/9.png,images/complex/8.png,images/complex/15.png","2","null","","200","618.0400000186637","","","","background","",""
"","null","html-keyboard-response","221","362703","0.0-20.0-0.3","SS1604514083455","","null","","","","","","","","","","","","<img src=images/blank.png width =""500"" height = ""500"" style=""border:5px solid black"">","","",""
"","435.10000000242144","stimulus-presentation","222","363346","0.0-20.0-1.3","SS1604514083455","<img src='images/complex/6.png' width ='500' height = '500' style='border:5px solid black'>","40","all_complex","images/complex/13.png","images/complex/5.png","images/complex/7.png,images/complex/6.png,images/complex/12.png,images/complex/18.png,images/complex/9.png,images/complex/8.png,images/complex/15.png","2","null","","200","635.1000000024214","","","","deviant","",""
"","null","html-keyboard-response","223","364203","0.0-20.0-0.4","SS1604514083455","","null","","","","","","","","","","","","<img src=images/blank.png width =""500"" height = ""500"" style=""border:5px solid black"">","","",""
"","380.35500003024936","stimulus-presentation","224","364792","0.0-20.0-1.4","SS1604514083455","<img src='images/complex/5.png' width ='500' height = '500' style='border:5px solid black'>","40","all_complex","images/complex/13.png","images/complex/5.png","images/complex/7.png,images/complex/6.png,images/complex/12.png,images/complex/18.png,images/complex/9.png,images/complex/8.png,images/complex/15.png","2","null","","200","580.3550000302494","","","","background","",""
"","null","html-keyboard-response","225","365837","0.0-20.0-0.5","SS1604514083455","","null","","","","","","","","","","","","<img src=images/blank.png width =""500"" height = ""500"" style=""border:5px solid black"">","","",""
"","1888.509999960661","stimulus-presentation","226","367933","0.0-20.0-1.5","SS1604514083455","<img src='images/complex/13.png' width ='500' height = '500' style='border:5px solid black'>","40","all_complex","images/complex/13.png","images/complex/5.png","images/complex/7.png,images/complex/6.png,images/complex/12.png,images/complex/18.png,images/complex/9.png,images/complex/8.png,images/complex/15.png","2","null","","200","2088.509999960661","yes","545.6649999832734","","target","",""
"","null","html-keyboard-response","227","368854","0.0-20.0-0.6","SS1604514083455","","null","","","","","","","","","","","","<img src=images/blank.png width =""500"" height = ""500"" style=""border:5px solid black"">","","",""
"","304.9950000131503","stimulus-presentation","228","369367","0.0-20.0-1.6","SS1604514083455","<img src='images/complex/5.png' width ='500' height = '500' style='border:5px solid black'>","40","all_complex","images/complex/13.png","images/complex/5.png","images/complex/7.png,images/complex/6.png,images/complex/12.png,images/complex/18.png,images/complex/9.png,images/complex/8.png,images/complex/15.png","2","null","","200","504.9950000131503","","","","background","",""
"","null","html-keyboard-response","229","370495","0.0-20.0-0.7","SS1604514083455","","null","","","","","","","","","","","","<img src=images/blank.png width =""500"" height = ""500"" style=""border:5px solid black"">","","",""
"","197.310000017751","stimulus-presentation","230","370901","0.0-20.0-1.7","SS1604514083455","<img src='images/complex/5.png' width ='500' height = '500' style='border:5px solid black'>","40","all_complex","images/complex/13.png","images/complex/5.png","images/complex/7.png,images/complex/6.png,images/complex/12.png,images/complex/18.png,images/complex/9.png,images/complex/8.png,images/complex/15.png","2","null","","200","397.310000017751","","","","background","",""
"","null","html-keyboard-response","231","371712","0.0-20.0-0.8","SS1604514083455","","null","","","","","","","","","","","","<img src=images/blank.png width =""500"" height = ""500"" style=""border:5px solid black"">","","",""
"","275.59000003384426","stimulus-presentation","232","372197","0.0-20.0-1.8","SS1604514083455","<img src='images/complex/5.png' width ='500' height = '500' style='border:5px solid black'>","40","all_complex","images/complex/13.png","images/complex/5.png","images/complex/7.png,images/complex/6.png,images/complex/12.png,images/complex/18.png,images/complex/9.png,images/complex/8.png,images/complex/15.png","2","null","","200","475.59000003384426","","","","background","",""
"","null","html-keyboard-response","233","373429","0.0-20.0-0.9","SS1604514083455","","null","","","","","","","","","","","","<img src=images/blank.png width =""500"" height = ""500"" style=""border:5px solid black"">","","",""
"","488.5449999710545","stimulus-presentation","234","374128","0.0-20.0-1.9","SS1604514083455","<img src='images/complex/18.png' width ='500' height = '500' style='border:5px solid black'>","40","all_complex","images/complex/13.png","images/complex/5.png","images/complex/7.png,images/complex/6.png,images/complex/12.png,images/complex/18.png,images/complex/9.png,images/complex/8.png,images/complex/15.png","2","null","","200","688.5449999710545","","","","deviant","",""
"","null","html-keyboard-response","235","375179","0.0-20.0-0.10","SS1604514083455","","null","","","","","","","","","","","","<img src=images/blank.png width =""500"" height = ""500"" style=""border:5px solid black"">","","",""
"","152.37500000512227","stimulus-presentation","236","375540","0.0-20.0-1.10","SS1604514083455","<img src='images/complex/5.png' width ='500' height = '500' style='border:5px solid black'>","40","all_complex","images/complex/13.png","images/complex/5.png","images/complex/7.png,images/complex/6.png,images/complex/12.png,images/complex/18.png,images/complex/9.png,images/complex/8.png,images/complex/15.png","2","null","","200","352.3750000051223","","","","background","",""
"","null","html-keyboard-response","237","376603","0.0-20.0-0.11","SS1604514083455","","null","","","","","","","","","","","","<img src=images/blank.png width =""500"" height = ""500"" style=""border:5px solid black"">","","",""
"","188.5599999804981","stimulus-presentation","238","377001","0.0-20.0-1.11","SS1604514083455","<img src='images/complex/5.png' width ='500' height = '500' style='border:5px solid black'>","40","all_complex","images/complex/13.png","images/complex/5.png","images/complex/7.png,images/complex/6.png,images/complex/12.png,images/complex/18.png,images/complex/9.png,images/complex/8.png,images/complex/15.png","2","null","","200","388.5599999804981","","","","background","",""
"","null","html-keyboard-response","239","378201","0.0-20.0-0.12","SS1604514083455","","null","","","","","","","","","","","","<img src=images/blank.png width =""500"" height = ""500"" style=""border:5px solid black"">","","",""
"","1645.0850000255741","stimulus-presentation","240","380058","0.0-20.0-1.12","SS1604514083455","<img src='images/complex/13.png' width ='500' height = '500' style='border:5px solid black'>","40","all_complex","images/complex/13.png","images/complex/5.png","images/complex/7.png,images/complex/6.png,images/complex/12.png,images/complex/18.png,images/complex/9.png,images/complex/8.png,images/complex/15.png","2","null","","200","1845.0850000255741","yes","396.92000002833083","","target","",""
"","null","html-keyboard-response","241","381272","0.0-20.0-0.13","SS1604514083455","","null","","","","","","","","","","","","<img src=images/blank.png width =""500"" height = ""500"" style=""border:5px solid black"">","","",""
"","350.00499995658174","stimulus-presentation","242","381830","0.0-20.0-1.13","SS1604514083455","<img src='images/complex/5.png' width ='500' height = '500' style='border:5px solid black'>","40","all_complex","images/complex/13.png","images/complex/5.png","images/complex/7.png,images/complex/6.png,images/complex/12.png,images/complex/18.png,images/complex/9.png,images/complex/8.png,images/complex/15.png","2","null","","200","550.0049999565817","","","","background","",""
"","null","html-keyboard-response","243","382919","0.0-20.0-0.14","SS1604514083455","","null","","","","","","","","","","","","<img src=images/blank.png width =""500"" height = ""500"" style=""border:5px solid black"">","","",""
"","954.1149999713525","stimulus-presentation","244","384084","0.0-20.0-1.14","SS1604514083455","<img src='images/complex/13.png' width ='500' height = '500' style='border:5px solid black'>","40","all_complex","images/complex/13.png","images/complex/5.png","images/complex/7.png,images/complex/6.png,images/complex/12.png,images/complex/18.png,images/complex/9.png,images/complex/8.png,images/complex/15.png","2","null","","200","1154.1149999713525","yes","309.1549999662675","","target","",""
"","null","html-keyboard-response","245","385007","0.0-20.0-0.15","SS1604514083455","","null","","","","","","","","","","","","<img src=images/blank.png width =""500"" height = ""500"" style=""border:5px solid black"">","","",""
"","203.55500001460314","stimulus-presentation","246","385423","0.0-20.0-1.15","SS1604514083455","<img src='images/complex/5.png' width ='500' height = '500' style='border:5px solid black'>","40","all_complex","images/complex/13.png","images/complex/5.png","images/complex/7.png,images/complex/6.png,images/complex/12.png,images/complex/18.png,images/complex/9.png,images/complex/8.png,images/complex/15.png","2","null","","200","403.55500001460314","","","","background","",""
"","null","html-keyboard-response","247","386322","0.0-20.0-0.16","SS1604514083455","","null","","","","","","","","","","","","<img src=images/blank.png width =""500"" height = ""500"" style=""border:5px solid black"">","","",""
"","186.71999999787658","stimulus-presentation","248","386717","0.0-20.0-1.16","SS1604514083455","<img src='images/complex/5.png' width ='500' height = '500' style='border:5px solid black'>","40","all_complex","images/complex/13.png","images/complex/5.png","images/complex/7.png,images/complex/6.png,images/complex/12.png,images/complex/18.png,images/complex/9.png,images/complex/8.png,images/complex/15.png","2","null","","200","386.7199999978766","","","","background","",""
"","null","html-keyboard-response","249","387747","0.0-20.0-0.17","SS1604514083455","","null","","","","","","","","","","","","<img src=images/blank.png width =""500"" height = ""500"" style=""border:5px solid black"">","","",""
"","812.8900000010617","stimulus-presentation","250","388769","0.0-20.0-1.17","SS1604514083455","<img src='images/complex/13.png' width ='500' height = '500' style='border:5px solid black'>","40","all_complex","images/complex/13.png","images/complex/5.png","images/complex/7.png,images/complex/6.png,images/complex/12.png,images/complex/18.png,images/complex/9.png,images/complex/8.png,images/complex/15.png","2","null","","200","1012.8900000010617","yes","285.2500000153668","","target","",""
"","null","html-keyboard-response","251","389689","0.0-20.0-0.18","SS1604514083455","","null","","","","","","","","","","","","<img src=images/blank.png width =""500"" height = ""500"" style=""border:5px solid black"">","","",""
"","348.7650000024587","stimulus-presentation","252","390246","0.0-20.0-1.18","SS1604514083455","<img src='images/complex/5.png' width ='500' height = '500' style='border:5px solid black'>","40","all_complex","images/complex/13.png","images/complex/5.png","images/complex/7.png,images/complex/6.png,images/complex/12.png,images/complex/18.png,images/complex/9.png,images/complex/8.png,images/complex/15.png","2","null","","200","548.7650000024587","","","","background","",""
"","null","html-keyboard-response","253","391114","0.0-20.0-0.19","SS1604514083455","","null","","","","","","","","","","","","<img src=images/blank.png width =""500"" height = ""500"" style=""border:5px solid black"">","","",""
"","265.0199999916367","stimulus-presentation","254","391588","0.0-20.0-1.19","SS1604514083455","<img src='images/complex/5.png' width ='500' height = '500' style='border:5px solid black'>","40","all_complex","images/complex/13.png","images/complex/5.png","images/complex/7.png,images/complex/6.png,images/complex/12.png,images/complex/18.png,images/complex/9.png,images/complex/8.png,images/complex/15.png","2","null","","200","465.0199999916367","","","","background","",""
"","null","html-keyboard-response","255","392838","0.0-20.0-0.20","SS1604514083455","","null","","","","","","","","","","","","<img src=images/blank.png width =""500"" height = ""500"" style=""border:5px solid black"">","","",""
"","1245.6900000106543","stimulus-presentation","256","394289","0.0-20.0-1.20","SS1604514083455","<img src='images/complex/13.png' width ='500' height = '500' style='border:5px solid black'>","40","all_complex","images/complex/13.png","images/complex/5.png","images/complex/7.png,images/complex/6.png,images/complex/12.png,images/complex/18.png,images/complex/9.png,images/complex/8.png,images/complex/15.png","2","null","","200","1445.6900000106543","yes","730.7900000014342","","target","",""
"","null","html-keyboard-response","257","395371","0.0-20.0-0.21","SS1604514083455","","null","","","","","","","","","","","","<img src=images/blank.png width =""500"" height = ""500"" style=""border:5px solid black"">","","",""
"","255.57000003755093","stimulus-presentation","258","395837","0.0-20.0-1.21","SS1604514083455","<img src='images/complex/5.png' width ='500' height = '500' style='border:5px solid black'>","40","all_complex","images/complex/13.png","images/complex/5.png","images/complex/7.png,images/complex/6.png,images/complex/12.png,images/complex/18.png,images/complex/9.png,images/complex/8.png,images/complex/15.png","2","null","","200","455.5700000375509","","","","background","",""
"","null","html-keyboard-response","259","396707","0.0-20.0-0.22","SS1604514083455","","null","","","","","","","","","","","","<img src=images/blank.png width =""500"" height = ""500"" style=""border:5px solid black"">","","",""
"","468.1400000117719","stimulus-presentation","260","397383","0.0-20.0-1.22","SS1604514083455","<img src='images/complex/9.png' width ='500' height = '500' style='border:5px solid black'>","40","all_complex","images/complex/13.png","images/complex/5.png","images/complex/7.png,images/complex/6.png,images/complex/12.png,images/complex/18.png,images/complex/9.png,images/complex/8.png,images/complex/15.png","2","null","","200","668.1400000117719","","","","deviant","",""
"","null","html-keyboard-response","261","398340","0.0-20.0-0.23","SS1604514083455","","null","","","","","","","","","","","","<img src=images/blank.png width =""500"" height = ""500"" style=""border:5px solid black"">","","",""
"","300.46499997843057","stimulus-presentation","262","398849","0.0-20.0-1.23","SS1604514083455","<img src='images/complex/5.png' width ='500' height = '500' style='border:5px solid black'>","40","all_complex","images/complex/13.png","images/complex/5.png","images/complex/7.png,images/complex/6.png,images/complex/12.png,images/complex/18.png,images/complex/9.png,images/complex/8.png,images/complex/15.png","2","null","","200","500.46499997843057","","","","background","",""
"","null","html-keyboard-response","263","399766","0.0-20.0-0.24","SS1604514083455","","null","","","","","","","","","","","","<img src=images/blank.png width =""500"" height = ""500"" style=""border:5px solid black"">","","",""
"","252.86000000778586","stimulus-presentation","264","400227","0.0-20.0-1.24","SS1604514083455","<img src='images/complex/5.png' width ='500' height = '500' style='border:5px solid black'>","40","all_complex","images/complex/13.png","images/complex/5.png","images/complex/7.png,images/complex/6.png,images/complex/12.png,images/complex/18.png,images/complex/9.png,images/complex/8.png,images/complex/15.png","2","null","","200","452.86000000778586","","","","background","",""
"","null","html-keyboard-response","265","401079","0.0-20.0-0.25","SS1604514083455","","null","","","","","","","","","","","","<img src=images/blank.png width =""500"" height = ""500"" style=""border:5px solid black"">","","",""
"","212.26499998010695","stimulus-presentation","266","401503","0.0-20.0-1.25","SS1604514083455","<img src='images/complex/5.png' width ='500' height = '500' style='border:5px solid black'>","40","all_complex","images/complex/13.png","images/complex/5.png","images/complex/7.png,images/complex/6.png,images/complex/12.png,images/complex/18.png,images/complex/9.png,images/complex/8.png,images/complex/15.png","2","null","","200","412.26499998010695","","","","background","",""
"","null","html-keyboard-response","267","402805","0.0-20.0-0.26","SS1604514083455","","null","","","","","","","","","","","","<img src=images/blank.png width =""500"" height = ""500"" style=""border:5px solid black"">","","",""
"","183.2799999974668","stimulus-presentation","268","403199","0.0-20.0-1.26","SS1604514083455","<img src='images/complex/5.png' width ='500' height = '500' style='border:5px solid black'>","40","all_complex","images/complex/13.png","images/complex/5.png","images/complex/7.png,images/complex/6.png,images/complex/12.png,images/complex/18.png,images/complex/9.png,images/complex/8.png,images/complex/15.png","2","null","","200","383.2799999974668","","","","background","",""
"","null","html-keyboard-response","269","404415","0.0-20.0-0.27","SS1604514083455","","null","","","","","","","","","","","","<img src=images/blank.png width =""500"" height = ""500"" style=""border:5px solid black"">","","",""
"","214.2749999766238","stimulus-presentation","270","404839","0.0-20.0-1.27","SS1604514083455","<img src='images/complex/5.png' width ='500' height = '500' style='border:5px solid black'>","40","all_complex","images/complex/13.png","images/complex/5.png","images/complex/7.png,images/complex/6.png,images/complex/12.png,images/complex/18.png,images/complex/9.png,images/complex/8.png,images/complex/15.png","2","null","","200","414.2749999766238","","","","background","",""
"","null","html-keyboard-response","271","405925","0.0-20.0-0.28","SS1604514083455","","null","","","","","","","","","","","","<img src=images/blank.png width =""500"" height = ""500"" style=""border:5px solid black"">","","",""
"","202.83999998355284","stimulus-presentation","272","406336","0.0-20.0-1.28","SS1604514083455","<img src='images/complex/5.png' width ='500' height = '500' style='border:5px solid black'>","40","all_complex","images/complex/13.png","images/complex/5.png","images/complex/7.png,images/complex/6.png,images/complex/12.png,images/complex/18.png,images/complex/9.png,images/complex/8.png,images/complex/15.png","2","null","","200","402.83999998355284","","","","background","",""
"","null","html-keyboard-response","273","407324","0.0-20.0-0.29","SS1604514083455","","null","","","","","","","","","","","","<img src=images/blank.png width =""500"" height = ""500"" style=""border:5px solid black"">","","",""
"","508.3750000339933","stimulus-presentation","274","408044","0.0-20.0-1.29","SS1604514083455","<img src='images/complex/12.png' width ='500' height = '500' style='border:5px solid black'>","40","all_complex","images/complex/13.png","images/complex/5.png","images/complex/7.png,images/complex/6.png,images/complex/12.png,images/complex/18.png,images/complex/9.png,images/complex/8.png,images/complex/15.png","2","null","","200","708.3750000339933","","","","deviant","",""
"","null","html-keyboard-response","275","409102","0.0-20.0-0.30","SS1604514083455","","null","","","","","","","","","","","","<img src=images/blank.png width =""500"" height = ""500"" style=""border:5px solid black"">","","",""
"","320.80499996664","stimulus-presentation","276","409629","0.0-20.0-1.30","SS1604514083455","<img src='images/complex/5.png' width ='500' height = '500' style='border:5px solid black'>","40","all_complex","images/complex/13.png","images/complex/5.png","images/complex/7.png,images/complex/6.png,images/complex/12.png,images/complex/18.png,images/complex/9.png,images/complex/8.png,images/complex/15.png","2","null","","200","520.80499996664","","","","background","",""
"","null","html-keyboard-response","277","410691","0.0-20.0-0.31","SS1604514083455","","null","","","","","","","","","","","","<img src=images/blank.png width =""500"" height = ""500"" style=""border:5px solid black"">","","",""
"","241.05000001145527","stimulus-presentation","278","411145","0.0-20.0-1.31","SS1604514083455","<img src='images/complex/5.png' width ='500' height = '500' style='border:5px solid black'>","40","all_complex","images/complex/13.png","images/complex/5.png","images/complex/7.png,images/complex/6.png,images/complex/12.png,images/complex/18.png,images/complex/9.png,images/complex/8.png,images/complex/15.png","2","null","","200","441.05000001145527","","","","background","",""
"","null","html-keyboard-response","279","412375","0.0-20.0-0.32","SS1604514083455","","null","","","","","","","","","","","","<img src=images/blank.png width =""500"" height = ""500"" style=""border:5px solid black"">","","",""
"","266.4100000401959","stimulus-presentation","280","412849","0.0-20.0-1.32","SS1604514083455","<img src='images/complex/5.png' width ='500' height = '500' style='border:5px solid black'>","40","all_complex","images/complex/13.png","images/complex/5.png","images/complex/7.png,images/complex/6.png,images/complex/12.png,images/complex/18.png,images/complex/9.png,images/complex/8.png,images/complex/15.png","2","null","","200","466.4100000401959","","","","background","",""
"","null","html-keyboard-response","281","413992","0.0-20.0-0.33","SS1604514083455","","null","","","","","","","","","","","","<img src=images/blank.png width =""500"" height = ""500"" style=""border:5px solid black"">","","",""
"","883.3950000116602","stimulus-presentation","282","415083","0.0-20.0-1.33","SS1604514083455","<img src='images/complex/15.png' width ='500' height = '500' style='border:5px solid black'>","40","all_complex","images/complex/13.png","images/complex/5.png","images/complex/7.png,images/complex/6.png,images/complex/12.png,images/complex/18.png,images/complex/9.png,images/complex/8.png,images/complex/15.png","2","null","","200","1083.3950000116602","","","","deviant","",""
"","null","html-keyboard-response","283","416250","0.0-20.0-0.34","SS1604514083455","","null","","","","","","","","","","","","<img src=images/blank.png width =""500"" height = ""500"" style=""border:5px solid black"">","","",""
"","404.42999999504536","stimulus-presentation","284","416863","0.0-20.0-1.34","SS1604514083455","<img src='images/complex/5.png' width ='500' height = '500' style='border:5px solid black'>","40","all_complex","images/complex/13.png","images/complex/5.png","images/complex/7.png,images/complex/6.png,images/complex/12.png,images/complex/18.png,images/complex/9.png,images/complex/8.png,images/complex/15.png","2","null","","200","604.4299999950454","","","","background","",""
