"view_history","rt","trial_type","trial_index","time_elapsed","internal_node_id","subject","trial_stimulus","key_press","task_type","task_target_stimulus","task_background_stimulus","task_deviant_stimuli","task_order_number","block_order_number","trial_order_number","minimum_viewing_duration","trial_looking_time","trial_pressed_space_bar","trial_space_bar_rt","stimulus","trial_stimulus_type","responses","question_order"
"[{""page_index"":0,""viewing_time"":2134.4800000078976}]","2135.0199999287724","instructions","0","2169","0.0-0.0","SS1604612749436","","","","","","","","","","","","","","","","",""
"[{""page_index"":0,""viewing_time"":2993.470000103116},{""page_index"":1,""viewing_time"":3967.6949998829514},{""page_index"":2,""viewing_time"":3216.885000001639},{""page_index"":3,""viewing_time"":10815.265000099316},{""page_index"":4,""viewing_time"":4814.74499986507},{""page_index"":5,""viewing_time"":1732.480000006035},{""page_index"":6,""viewing_time"":870.1649999711663},{""page_index"":7,""viewing_time"":4694.580000126734},{""page_index"":8,""viewing_time"":1036.5699999965727}]","34142.23499991931","instructions","1","36314","0.0-1.0","SS1604612749436","","","","","","","","","","","","","","","","",""
"[{""page_index"":0,""viewing_time"":2269.49999993667},{""page_index"":1,""viewing_time"":8842.345000011846},{""page_index"":2,""viewing_time"":1139.5950000733137}]","12251.685000024736","instructions","2","48567","0.0-2.0","SS1604612749436","","","","","","","","","","","","","","","","",""
"","872.0949999988079","practice-block","3","49643","0.0-3.0","SS1604612749436","<img src='images/practice/practice_background.jpeg' width ='500' height = '500' style='border:5px solid black'>","40","null","images/practice/practice_target.jpg","null","null","null","null","","200","1072.094999998808","","","","","",""
"","null","html-keyboard-response","4","50843","0.0-4.0","SS1604612749436","","null","","","","","","","","","","","","<img src=images/blank.png width =""500"" height = ""500"" style=""border:5px solid black"">","","",""
"","124.53000014647841","practice-block","5","51172","0.0-5.0","SS1604612749436","<img src='images/practice/practice_background.jpeg' width ='500' height = '500' style='border:5px solid black'>","40","null","images/practice/practice_target.jpg","null","null","null","null","","200","324.5300001464784","","","","","",""
"","null","html-keyboard-response","6","52158","0.0-6.0","SS1604612749436","","null","","","","","","","","","","","","<img src=images/blank.png width =""500"" height = ""500"" style=""border:5px solid black"">","","",""
"","117.52000008709729","practice-block","7","52478","0.0-7.0","SS1604612749436","<img src='images/practice/practice_deviant.jpeg' width ='500' height = '500' style='border:5px solid black'>","40","null","images/practice/practice_target.jpg","null","null","null","null","","200","317.5200000870973","","","","","",""
"","null","html-keyboard-response","8","53574","0.0-8.0","SS1604612749436","","null","","","","","","","","","","","","<img src=images/blank.png width =""500"" height = ""500"" style=""border:5px solid black"">","","",""
"","6088.080000132322","practice-block","9","59867","0.0-9.0-0.0","SS1604612749436","<img src='images/practice/practice_target.jpg' width ='500' height = '500' style='border:5px solid black'>","40","null","images/practice/practice_target.jpg","null","null","null","null","","200","6288.080000132322","yes","206.62500010803342","","","",""
"","null","html-keyboard-response","10","60856","0.0-10.0","SS1604612749436","","null","","","","","","","","","","","","<img src=images/blank.png width =""500"" height = ""500"" style=""border:5px solid black"">","","",""
"","104.80500012636185","practice-block","11","61165","0.0-11.0","SS1604612749436","<img src='images/practice/practice_background.jpeg' width ='500' height = '500' style='border:5px solid black'>","40","null","images/practice/practice_target.jpg","null","null","null","null","","200","304.80500012636185","","","","","",""
"[{""page_index"":0,""viewing_time"":1816}]","1816","task-instructions","12","62982","0.0-12.0","SS1604612749436","","","","","","","","","","","","","","","","",""
"[{""page_index"":0,""viewing_time"":3815.574999898672},{""page_index"":1,""viewing_time"":6510.130000067875},{""page_index"":2,""viewing_time"":2242.915000068024}]","12568.909999914467","instructions","13","75553","0.0-13.0","SS1604612749436","","","","","","","","","","","","","","","","",""
"","null","html-keyboard-response","14","76398","0.0-14.0-0.0","SS1604612749436","","null","","","","","","","","","","","","<img src=images/blank.png width =""500"" height = ""500"" style=""border:5px solid black"">","","",""
"","846.929999999702","stimulus-presentation","15","77450","0.0-14.0-1.0","SS1604612749436","<img src='images/simple/3.png' width ='500' height = '500' style='border:5px solid black'>","40","all_simple","images/simple/18.png","images/simple/3.png","images/simple/11.png,images/simple/1.png,images/simple/7.png,images/simple/10.png,images/simple/6.png,images/simple/4.png,images/simple/5.png","0","null","","200","1046.929999999702","","","","background","",""
"","null","html-keyboard-response","16","78591","0.0-14.0-0.1","SS1604612749436","","null","","","","","","","","","","","","<img src=images/blank.png width =""500"" height = ""500"" style=""border:5px solid black"">","","",""
"","66.76999991759658","stimulus-presentation","17","78860","0.0-14.0-1.1","SS1604612749436","<img src='images/simple/18.png' width ='500' height = '500' style='border:5px solid black'>","40","all_simple","images/simple/18.png","images/simple/3.png","images/simple/11.png,images/simple/1.png,images/simple/7.png,images/simple/10.png,images/simple/6.png,images/simple/4.png,images/simple/5.png","0","null","","200","266.7699999175966","","","","target","",""
"","null","html-keyboard-response","18","79694","0.0-14.0-0.2","SS1604612749436","","null","","","","","","","","","","","","<img src=images/blank.png width =""500"" height = ""500"" style=""border:5px solid black"">","","",""
"","217.66500012017787","stimulus-presentation","19","80114","0.0-14.0-1.2","SS1604612749436","<img src='images/simple/1.png' width ='500' height = '500' style='border:5px solid black'>","40","all_simple","images/simple/18.png","images/simple/3.png","images/simple/11.png,images/simple/1.png,images/simple/7.png,images/simple/10.png,images/simple/6.png,images/simple/4.png,images/simple/5.png","0","null","","200","417.66500012017787","","","","deviant","",""
"","null","html-keyboard-response","20","80958","0.0-14.0-0.3","SS1604612749436","","null","","","","","","","","","","","","<img src=images/blank.png width =""500"" height = ""500"" style=""border:5px solid black"">","","",""
"","95.34999984316528","stimulus-presentation","21","81255","0.0-14.0-1.3","SS1604612749436","<img src='images/simple/3.png' width ='500' height = '500' style='border:5px solid black'>","40","all_simple","images/simple/18.png","images/simple/3.png","images/simple/11.png,images/simple/1.png,images/simple/7.png,images/simple/10.png,images/simple/6.png,images/simple/4.png,images/simple/5.png","0","null","","200","295.3499998431653","","","","background","",""
"","null","html-keyboard-response","22","82453","0.0-14.0-0.4","SS1604612749436","","null","","","","","","","","","","","","<img src=images/blank.png width =""500"" height = ""500"" style=""border:5px solid black"">","","",""
"","111.49500007741153","stimulus-presentation","23","82770","0.0-14.0-1.4","SS1604612749436","<img src='images/simple/3.png' width ='500' height = '500' style='border:5px solid black'>","40","all_simple","images/simple/18.png","images/simple/3.png","images/simple/11.png,images/simple/1.png,images/simple/7.png,images/simple/10.png,images/simple/6.png,images/simple/4.png,images/simple/5.png","0","null","","200","311.49500007741153","","","","background","",""
"","null","html-keyboard-response","24","83751","0.0-14.0-0.5","SS1604612749436","","null","","","","","","","","","","","","<img src=images/blank.png width =""500"" height = ""500"" style=""border:5px solid black"">","","",""
"","104.99999998137355","stimulus-presentation","25","84060","0.0-14.0-1.5","SS1604612749436","<img src='images/simple/3.png' width ='500' height = '500' style='border:5px solid black'>","40","all_simple","images/simple/18.png","images/simple/3.png","images/simple/11.png,images/simple/1.png,images/simple/7.png,images/simple/10.png,images/simple/6.png,images/simple/4.png,images/simple/5.png","0","null","","200","304.99999998137355","","","","background","",""
"","null","html-keyboard-response","26","85064","0.0-14.0-0.6","SS1604612749436","","null","","","","","","","","","","","","<img src=images/blank.png width =""500"" height = ""500"" style=""border:5px solid black"">","","",""
"","117.36000003293157","stimulus-presentation","27","85384","0.0-14.0-1.6","SS1604612749436","<img src='images/simple/3.png' width ='500' height = '500' style='border:5px solid black'>","40","all_simple","images/simple/18.png","images/simple/3.png","images/simple/11.png,images/simple/1.png,images/simple/7.png,images/simple/10.png,images/simple/6.png,images/simple/4.png,images/simple/5.png","0","null","","200","317.36000003293157","","","","background","",""
"","null","html-keyboard-response","28","86633","0.0-14.0-0.7","SS1604612749436","","null","","","","","","","","","","","","<img src=images/blank.png width =""500"" height = ""500"" style=""border:5px solid black"">","","",""
"","121.64999986998737","stimulus-presentation","29","86958","0.0-14.0-1.7","SS1604612749436","<img src='images/simple/3.png' width ='500' height = '500' style='border:5px solid black'>","40","all_simple","images/simple/18.png","images/simple/3.png","images/simple/11.png,images/simple/1.png,images/simple/7.png,images/simple/10.png,images/simple/6.png,images/simple/4.png,images/simple/5.png","0","null","","200","321.64999986998737","","","","background","",""
"","null","html-keyboard-response","30","87979","0.0-14.0-0.8","SS1604612749436","","null","","","","","","","","","","","","<img src=images/blank.png width =""500"" height = ""500"" style=""border:5px solid black"">","","",""
"","362.91000014171004","stimulus-presentation","31","88546","0.0-14.0-1.8","SS1604612749436","<img src='images/simple/6.png' width ='500' height = '500' style='border:5px solid black'>","40","all_simple","images/simple/18.png","images/simple/3.png","images/simple/11.png,images/simple/1.png,images/simple/7.png,images/simple/10.png,images/simple/6.png,images/simple/4.png,images/simple/5.png","0","null","","200","562.91000014171","","","","deviant","",""
"","null","html-keyboard-response","32","89603","0.0-14.0-0.9","SS1604612749436","","null","","","","","","","","","","","","<img src=images/blank.png width =""500"" height = ""500"" style=""border:5px solid black"">","","",""
"","1019.4449999835342","stimulus-presentation","33","90826","0.0-14.0-1.9","SS1604612749436","<img src='images/simple/18.png' width ='500' height = '500' style='border:5px solid black'>","40","all_simple","images/simple/18.png","images/simple/3.png","images/simple/11.png,images/simple/1.png,images/simple/7.png,images/simple/10.png,images/simple/6.png,images/simple/4.png,images/simple/5.png","0","null","","200","1219.4449999835342","yes","206.99999993667006","","target","",""
"","null","html-keyboard-response","34","92125","0.0-14.0-0.10","SS1604612749436","","null","","","","","","","","","","","","<img src=images/blank.png width =""500"" height = ""500"" style=""border:5px solid black"">","","",""
"","97.54500002600253","stimulus-presentation","35","92425","0.0-14.0-1.10","SS1604612749436","<img src='images/simple/3.png' width ='500' height = '500' style='border:5px solid black'>","40","all_simple","images/simple/18.png","images/simple/3.png","images/simple/11.png,images/simple/1.png,images/simple/7.png,images/simple/10.png,images/simple/6.png,images/simple/4.png,images/simple/5.png","0","null","","200","297.5450000260025","","","","background","",""
"","null","html-keyboard-response","36","93386","0.0-14.0-0.11","SS1604612749436","","null","","","","","","","","","","","","<img src=images/blank.png width =""500"" height = ""500"" style=""border:5px solid black"">","","",""
"","96.23500006273389","stimulus-presentation","37","93685","0.0-14.0-1.11","SS1604612749436","<img src='images/simple/3.png' width ='500' height = '500' style='border:5px solid black'>","40","all_simple","images/simple/18.png","images/simple/3.png","images/simple/11.png,images/simple/1.png,images/simple/7.png,images/simple/10.png,images/simple/6.png,images/simple/4.png,images/simple/5.png","0","null","","200","296.2350000627339","","","","background","",""
"","null","html-keyboard-response","38","94785","0.0-14.0-0.12","SS1604612749436","","null","","","","","","","","","","","","<img src=images/blank.png width =""500"" height = ""500"" style=""border:5px solid black"">","","",""
"","120.99500000476837","stimulus-presentation","39","95109","0.0-14.0-1.12","SS1604612749436","<img src='images/simple/3.png' width ='500' height = '500' style='border:5px solid black'>","40","all_simple","images/simple/18.png","images/simple/3.png","images/simple/11.png,images/simple/1.png,images/simple/7.png,images/simple/10.png,images/simple/6.png,images/simple/4.png,images/simple/5.png","0","null","","200","320.9950000047684","","","","background","",""
"","null","html-keyboard-response","40","96206","0.0-14.0-0.13","SS1604612749436","","null","","","","","","","","","","","","<img src=images/blank.png width =""500"" height = ""500"" style=""border:5px solid black"">","","",""
"","112.26499988697469","stimulus-presentation","41","96520","0.0-14.0-1.13","SS1604612749436","<img src='images/simple/3.png' width ='500' height = '500' style='border:5px solid black'>","40","all_simple","images/simple/18.png","images/simple/3.png","images/simple/11.png,images/simple/1.png,images/simple/7.png,images/simple/10.png,images/simple/6.png,images/simple/4.png,images/simple/5.png","0","null","","200","312.2649998869747","","","","background","",""
"","null","html-keyboard-response","42","97701","0.0-14.0-0.14","SS1604612749436","","null","","","","","","","","","","","","<img src=images/blank.png width =""500"" height = ""500"" style=""border:5px solid black"">","","",""
"","86.6499999538064","stimulus-presentation","43","97990","0.0-14.0-1.14","SS1604612749436","<img src='images/simple/3.png' width ='500' height = '500' style='border:5px solid black'>","40","all_simple","images/simple/18.png","images/simple/3.png","images/simple/11.png,images/simple/1.png,images/simple/7.png,images/simple/10.png,images/simple/6.png,images/simple/4.png,images/simple/5.png","0","null","","200","286.6499999538064","","","","background","",""
"","null","html-keyboard-response","44","99184","0.0-14.0-0.15","SS1604612749436","","null","","","","","","","","","","","","<img src=images/blank.png width =""500"" height = ""500"" style=""border:5px solid black"">","","",""
"","97.79999987222254","stimulus-presentation","45","99486","0.0-14.0-1.15","SS1604612749436","<img src='images/simple/3.png' width ='500' height = '500' style='border:5px solid black'>","40","all_simple","images/simple/18.png","images/simple/3.png","images/simple/11.png,images/simple/1.png,images/simple/7.png,images/simple/10.png,images/simple/6.png,images/simple/4.png,images/simple/5.png","0","null","","200","297.79999987222254","","","","background","",""
"","null","html-keyboard-response","46","100768","0.0-14.0-0.16","SS1604612749436","","null","","","","","","","","","","","","<img src=images/blank.png width =""500"" height = ""500"" style=""border:5px solid black"">","","",""
"","112.47500008903444","stimulus-presentation","47","101083","0.0-14.0-1.16","SS1604612749436","<img src='images/simple/7.png' width ='500' height = '500' style='border:5px solid black'>","40","all_simple","images/simple/18.png","images/simple/3.png","images/simple/11.png,images/simple/1.png,images/simple/7.png,images/simple/10.png,images/simple/6.png,images/simple/4.png,images/simple/5.png","0","null","","200","312.47500008903444","","","","deviant","",""
"","null","html-keyboard-response","48","102161","0.0-14.0-0.17","SS1604612749436","","null","","","","","","","","","","","","<img src=images/blank.png width =""500"" height = ""500"" style=""border:5px solid black"">","","",""
"","120.63000001944602","stimulus-presentation","49","102485","0.0-14.0-1.17","SS1604612749436","<img src='images/simple/3.png' width ='500' height = '500' style='border:5px solid black'>","40","all_simple","images/simple/18.png","images/simple/3.png","images/simple/11.png,images/simple/1.png,images/simple/7.png,images/simple/10.png,images/simple/6.png,images/simple/4.png,images/simple/5.png","0","null","","200","320.630000019446","","","","background","",""
"","null","html-keyboard-response","50","103535","0.0-14.0-0.18","SS1604612749436","","null","","","","","","","","","","","","<img src=images/blank.png width =""500"" height = ""500"" style=""border:5px solid black"">","","",""
"","179.72499993629754","stimulus-presentation","51","103918","0.0-14.0-1.18","SS1604612749436","<img src='images/simple/3.png' width ='500' height = '500' style='border:5px solid black'>","40","all_simple","images/simple/18.png","images/simple/3.png","images/simple/11.png,images/simple/1.png,images/simple/7.png,images/simple/10.png,images/simple/6.png,images/simple/4.png,images/simple/5.png","0","null","","200","379.72499993629754","","","","background","",""
"","null","html-keyboard-response","52","104772","0.0-14.0-0.19","SS1604612749436","","null","","","","","","","","","","","","<img src=images/blank.png width =""500"" height = ""500"" style=""border:5px solid black"">","","",""
"","340.8049999270588","stimulus-presentation","53","105316","0.0-14.0-1.19","SS1604612749436","<img src='images/simple/3.png' width ='500' height = '500' style='border:5px solid black'>","40","all_simple","images/simple/18.png","images/simple/3.png","images/simple/11.png,images/simple/1.png,images/simple/7.png,images/simple/10.png,images/simple/6.png,images/simple/4.png,images/simple/5.png","0","null","","200","540.8049999270588","","","","background","",""
"","null","html-keyboard-response","54","106399","0.0-14.0-0.20","SS1604612749436","","null","","","","","","","","","","","","<img src=images/blank.png width =""500"" height = ""500"" style=""border:5px solid black"">","","",""
"","123.08000004850328","stimulus-presentation","55","106725","0.0-14.0-1.20","SS1604612749436","<img src='images/simple/3.png' width ='500' height = '500' style='border:5px solid black'>","40","all_simple","images/simple/18.png","images/simple/3.png","images/simple/11.png,images/simple/1.png,images/simple/7.png,images/simple/10.png,images/simple/6.png,images/simple/4.png,images/simple/5.png","0","null","","200","323.0800000485033","","","","background","",""
"","null","html-keyboard-response","56","107941","0.0-14.0-0.21","SS1604612749436","","null","","","","","","","","","","","","<img src=images/blank.png width =""500"" height = ""500"" style=""border:5px solid black"">","","",""
"","5280.934999929741","stimulus-presentation","57","113426","0.0-14.0-1.21","SS1604612749436","<img src='images/simple/18.png' width ='500' height = '500' style='border:5px solid black'>","40","all_simple","images/simple/18.png","images/simple/3.png","images/simple/11.png,images/simple/1.png,images/simple/7.png,images/simple/10.png,images/simple/6.png,images/simple/4.png,images/simple/5.png","0","null","","200","5480.934999929741","yes","206.0050000436604","","target","",""
"","null","html-keyboard-response","58","114252","0.0-14.0-0.22","SS1604612749436","","null","","","","","","","","","","","","<img src=images/blank.png width =""500"" height = ""500"" style=""border:5px solid black"">","","",""
"","443.459999980405","stimulus-presentation","59","114901","0.0-14.0-1.22","SS1604612749436","<img src='images/simple/5.png' width ='500' height = '500' style='border:5px solid black'>","40","all_simple","images/simple/18.png","images/simple/3.png","images/simple/11.png,images/simple/1.png,images/simple/7.png,images/simple/10.png,images/simple/6.png,images/simple/4.png,images/simple/5.png","0","null","","200","643.459999980405","","","","deviant","",""
"","null","html-keyboard-response","60","115921","0.0-14.0-0.23","SS1604612749436","","null","","","","","","","","","","","","<img src=images/blank.png width =""500"" height = ""500"" style=""border:5px solid black"">","","",""
"","117.34499991871417","stimulus-presentation","61","116242","0.0-14.0-1.23","SS1604612749436","<img src='images/simple/3.png' width ='500' height = '500' style='border:5px solid black'>","40","all_simple","images/simple/18.png","images/simple/3.png","images/simple/11.png,images/simple/1.png,images/simple/7.png,images/simple/10.png,images/simple/6.png,images/simple/4.png,images/simple/5.png","0","null","","200","317.34499991871417","","","","background","",""
"","null","html-keyboard-response","62","117303","0.0-14.0-0.24","SS1604612749436","","null","","","","","","","","","","","","<img src=images/blank.png width =""500"" height = ""500"" style=""border:5px solid black"">","","",""
"","362.07500007003546","stimulus-presentation","63","117869","0.0-14.0-1.24","SS1604612749436","<img src='images/simple/3.png' width ='500' height = '500' style='border:5px solid black'>","40","all_simple","images/simple/18.png","images/simple/3.png","images/simple/11.png,images/simple/1.png,images/simple/7.png,images/simple/10.png,images/simple/6.png,images/simple/4.png,images/simple/5.png","0","null","","200","562.0750000700355","","","","background","",""
"","null","html-keyboard-response","64","118713","0.0-14.0-0.25","SS1604612749436","","null","","","","","","","","","","","","<img src=images/blank.png width =""500"" height = ""500"" style=""border:5px solid black"">","","",""
"","117.0200000051409","stimulus-presentation","65","119033","0.0-14.0-1.25","SS1604612749436","<img src='images/simple/3.png' width ='500' height = '500' style='border:5px solid black'>","40","all_simple","images/simple/18.png","images/simple/3.png","images/simple/11.png,images/simple/1.png,images/simple/7.png,images/simple/10.png,images/simple/6.png,images/simple/4.png,images/simple/5.png","0","null","","200","317.0200000051409","","","","background","",""
"","null","html-keyboard-response","66","120268","0.0-14.0-0.26","SS1604612749436","","null","","","","","","","","","","","","<img src=images/blank.png width =""500"" height = ""500"" style=""border:5px solid black"">","","",""
"","207.01500005088747","stimulus-presentation","67","120679","0.0-14.0-1.26","SS1604612749436","<img src='images/simple/3.png' width ='500' height = '500' style='border:5px solid black'>","40","all_simple","images/simple/18.png","images/simple/3.png","images/simple/11.png,images/simple/1.png,images/simple/7.png,images/simple/10.png,images/simple/6.png,images/simple/4.png,images/simple/5.png","0","null","","200","407.01500005088747","","","","background","",""
"","null","html-keyboard-response","68","121644","0.0-14.0-0.27","SS1604612749436","","null","","","","","","","","","","","","<img src=images/blank.png width =""500"" height = ""500"" style=""border:5px solid black"">","","",""
"","98.49500004202127","stimulus-presentation","69","121948","0.0-14.0-1.27","SS1604612749436","<img src='images/simple/3.png' width ='500' height = '500' style='border:5px solid black'>","40","all_simple","images/simple/18.png","images/simple/3.png","images/simple/11.png,images/simple/1.png,images/simple/7.png,images/simple/10.png,images/simple/6.png,images/simple/4.png,images/simple/5.png","0","null","","200","298.4950000420213","","","","background","",""
"","null","html-keyboard-response","70","122845","0.0-14.0-0.28","SS1604612749436","","null","","","","","","","","","","","","<img src=images/blank.png width =""500"" height = ""500"" style=""border:5px solid black"">","","",""
"","129.1350000537932","stimulus-presentation","71","123178","0.0-14.0-1.28","SS1604612749436","<img src='images/simple/10.png' width ='500' height = '500' style='border:5px solid black'>","40","all_simple","images/simple/18.png","images/simple/3.png","images/simple/11.png,images/simple/1.png,images/simple/7.png,images/simple/10.png,images/simple/6.png,images/simple/4.png,images/simple/5.png","0","null","","200","329.1350000537932","","","","deviant","",""
"","null","html-keyboard-response","72","124385","0.0-14.0-0.29","SS1604612749436","","null","","","","","","","","","","","","<img src=images/blank.png width =""500"" height = ""500"" style=""border:5px solid black"">","","",""
"","85.13999986462295","stimulus-presentation","73","124673","0.0-14.0-1.29","SS1604612749436","<img src='images/simple/18.png' width ='500' height = '500' style='border:5px solid black'>","40","all_simple","images/simple/18.png","images/simple/3.png","images/simple/11.png,images/simple/1.png,images/simple/7.png,images/simple/10.png,images/simple/6.png,images/simple/4.png,images/simple/5.png","0","null","","200","285.13999986462295","","","","target","",""
"","null","html-keyboard-response","74","125616","0.0-14.0-0.30","SS1604612749436","","null","","","","","","","","","","","","<img src=images/blank.png width =""500"" height = ""500"" style=""border:5px solid black"">","","",""
"","38.130000000819564","stimulus-presentation","75","125858","0.0-14.0-1.30","SS1604612749436","<img src='images/simple/18.png' width ='500' height = '500' style='border:5px solid black'>","40","all_simple","images/simple/18.png","images/simple/3.png","images/simple/11.png,images/simple/1.png,images/simple/7.png,images/simple/10.png,images/simple/6.png,images/simple/4.png,images/simple/5.png","0","null","","200","238.13000000081956","","","","target","",""
"","null","html-keyboard-response","76","126968","0.0-14.0-0.31","SS1604612749436","","null","","","","","","","","","","","","<img src=images/blank.png width =""500"" height = ""500"" style=""border:5px solid black"">","","",""
"","92.21499995328486","stimulus-presentation","77","127263","0.0-14.0-1.31","SS1604612749436","<img src='images/simple/3.png' width ='500' height = '500' style='border:5px solid black'>","40","all_simple","images/simple/18.png","images/simple/3.png","images/simple/11.png,images/simple/1.png,images/simple/7.png,images/simple/10.png,images/simple/6.png,images/simple/4.png,images/simple/5.png","0","null","","200","292.21499995328486","","","","background","",""
"","null","html-keyboard-response","78","128302","0.0-14.0-0.32","SS1604612749436","","null","","","","","","","","","","","","<img src=images/blank.png width =""500"" height = ""500"" style=""border:5px solid black"">","","",""
"","5.06999995559454","stimulus-presentation","79","128512","0.0-14.0-1.32","SS1604612749436","<img src='images/simple/3.png' width ='500' height = '500' style='border:5px solid black'>","40","all_simple","images/simple/18.png","images/simple/3.png","images/simple/11.png,images/simple/1.png,images/simple/7.png,images/simple/10.png,images/simple/6.png,images/simple/4.png,images/simple/5.png","0","null","","200","205.06999995559454","","","","background","",""
"","null","html-keyboard-response","80","129681","0.0-14.0-0.33","SS1604612749436","","null","","","","","","","","","","","","<img src=images/blank.png width =""500"" height = ""500"" style=""border:5px solid black"">","","",""
"","90.8699999563396","stimulus-presentation","81","129975","0.0-14.0-1.33","SS1604612749436","<img src='images/simple/3.png' width ='500' height = '500' style='border:5px solid black'>","40","all_simple","images/simple/18.png","images/simple/3.png","images/simple/11.png,images/simple/1.png,images/simple/7.png,images/simple/10.png,images/simple/6.png,images/simple/4.png,images/simple/5.png","0","null","","200","290.8699999563396","","","","background","",""
"","null","html-keyboard-response","82","130914","0.0-14.0-0.34","SS1604612749436","","null","","","","","","","","","","","","<img src=images/blank.png width =""500"" height = ""500"" style=""border:5px solid black"">","","",""
"","941.7050001211464","stimulus-presentation","83","132062","0.0-14.0-1.34","SS1604612749436","<img src='images/simple/18.png' width ='500' height = '500' style='border:5px solid black'>","40","all_simple","images/simple/18.png","images/simple/3.png","images/simple/11.png,images/simple/1.png,images/simple/7.png,images/simple/10.png,images/simple/6.png,images/simple/4.png,images/simple/5.png","0","null","","200","1141.7050001211464","yes","206.52000000700355","","target","",""
"","null","html-keyboard-response","84","133172","0.0-14.0-0.35","SS1604612749436","","null","","","","","","","","","","","","<img src=images/blank.png width =""500"" height = ""500"" style=""border:5px solid black"">","","",""
"","177.24999994970858","stimulus-presentation","85","133553","0.0-14.0-1.35","SS1604612749436","<img src='images/simple/4.png' width ='500' height = '500' style='border:5px solid black'>","40","all_simple","images/simple/18.png","images/simple/3.png","images/simple/11.png,images/simple/1.png,images/simple/7.png,images/simple/10.png,images/simple/6.png,images/simple/4.png,images/simple/5.png","0","null","","200","377.2499999497086","","","","deviant","",""
"","null","html-keyboard-response","86","134675","0.0-14.0-0.36","SS1604612749436","","null","","","","","","","","","","","","<img src=images/blank.png width =""500"" height = ""500"" style=""border:5px solid black"">","","",""
"","400.81000002101064","stimulus-presentation","87","135281","0.0-14.0-1.36","SS1604612749436","<img src='images/simple/3.png' width ='500' height = '500' style='border:5px solid black'>","40","all_simple","images/simple/18.png","images/simple/3.png","images/simple/11.png,images/simple/1.png,images/simple/7.png,images/simple/10.png,images/simple/6.png,images/simple/4.png,images/simple/5.png","0","null","","200","600.8100000210106","yes","132.74000003002584","","background","",""
"","null","html-keyboard-response","88","136343","0.0-14.0-0.37","SS1604612749436","","null","","","","","","","","","","","","<img src=images/blank.png width =""500"" height = ""500"" style=""border:5px solid black"">","","",""
"","152.16000005602837","stimulus-presentation","89","136700","0.0-14.0-1.37","SS1604612749436","<img src='images/simple/3.png' width ='500' height = '500' style='border:5px solid black'>","40","all_simple","images/simple/18.png","images/simple/3.png","images/simple/11.png,images/simple/1.png,images/simple/7.png,images/simple/10.png,images/simple/6.png,images/simple/4.png,images/simple/5.png","0","null","","200","352.16000005602837","","","","background","",""
"","null","html-keyboard-response","90","137658","0.0-14.0-0.38","SS1604612749436","","null","","","","","","","","","","","","<img src=images/blank.png width =""500"" height = ""500"" style=""border:5px solid black"">","","",""
"","118.28500009141862","stimulus-presentation","91","137980","0.0-14.0-1.38","SS1604612749436","<img src='images/simple/3.png' width ='500' height = '500' style='border:5px solid black'>","40","all_simple","images/simple/18.png","images/simple/3.png","images/simple/11.png,images/simple/1.png,images/simple/7.png,images/simple/10.png,images/simple/6.png,images/simple/4.png,images/simple/5.png","0","null","","200","318.2850000914186","","","","background","",""
"","null","html-keyboard-response","92","138982","0.0-14.0-0.39","SS1604612749436","","null","","","","","","","","","","","","<img src=images/blank.png width =""500"" height = ""500"" style=""border:5px solid black"">","","",""
"","67.69499997608364","stimulus-presentation","93","139254","0.0-14.0-1.39","SS1604612749436","<img src='images/simple/3.png' width ='500' height = '500' style='border:5px solid black'>","40","all_simple","images/simple/18.png","images/simple/3.png","images/simple/11.png,images/simple/1.png,images/simple/7.png,images/simple/10.png,images/simple/6.png,images/simple/4.png,images/simple/5.png","0","null","","200","267.69499997608364","","","","background","",""
"","null","html-keyboard-response","94","140434","0.0-14.0-0.40","SS1604612749436","","null","","","","","","","","","","","","<img src=images/blank.png width =""500"" height = ""500"" style=""border:5px solid black"">","","",""
"","137.7699999138713","stimulus-presentation","95","140775","0.0-14.0-1.40","SS1604612749436","<img src='images/simple/3.png' width ='500' height = '500' style='border:5px solid black'>","40","all_simple","images/simple/18.png","images/simple/3.png","images/simple/11.png,images/simple/1.png,images/simple/7.png,images/simple/10.png,images/simple/6.png,images/simple/4.png,images/simple/5.png","0","null","","200","337.7699999138713","","","","background","",""
"","null","html-keyboard-response","96","142019","0.0-14.0-0.41","SS1604612749436","","null","","","","","","","","","","","","<img src=images/blank.png width =""500"" height = ""500"" style=""border:5px solid black"">","","",""
"","199.73500003106892","stimulus-presentation","97","142423","0.0-14.0-1.41","SS1604612749436","<img src='images/simple/3.png' width ='500' height = '500' style='border:5px solid black'>","40","all_simple","images/simple/18.png","images/simple/3.png","images/simple/11.png,images/simple/1.png,images/simple/7.png,images/simple/10.png,images/simple/6.png,images/simple/4.png,images/simple/5.png","0","null","","200","399.7350000310689","","","","background","",""
"","null","html-keyboard-response","98","143377","0.0-14.0-0.42","SS1604612749436","","null","","","","","","","","","","","","<img src=images/blank.png width =""500"" height = ""500"" style=""border:5px solid black"">","","",""
"","123.5599999781698","stimulus-presentation","99","143704","0.0-14.0-1.42","SS1604612749436","<img src='images/simple/3.png' width ='500' height = '500' style='border:5px solid black'>","40","all_simple","images/simple/18.png","images/simple/3.png","images/simple/11.png,images/simple/1.png,images/simple/7.png,images/simple/10.png,images/simple/6.png,images/simple/4.png,images/simple/5.png","0","null","","200","323.5599999781698","","","","background","",""
"","null","html-keyboard-response","100","144969","0.0-14.0-0.43","SS1604612749436","","null","","","","","","","","","","","","<img src=images/blank.png width =""500"" height = ""500"" style=""border:5px solid black"">","","",""
"","560.8149999752641","stimulus-presentation","101","145734","0.0-14.0-1.43","SS1604612749436","<img src='images/simple/18.png' width ='500' height = '500' style='border:5px solid black'>","40","all_simple","images/simple/18.png","images/simple/3.png","images/simple/11.png,images/simple/1.png,images/simple/7.png,images/simple/10.png,images/simple/6.png,images/simple/4.png,images/simple/5.png","0","null","","200","760.8149999752641","yes","158.1099999602884","","target","",""
"","null","html-keyboard-response","102","146745","0.0-14.0-0.44","SS1604612749436","","null","","","","","","","","","","","","<img src=images/blank.png width =""500"" height = ""500"" style=""border:5px solid black"">","","",""
"","150.4049999639392","stimulus-presentation","103","147100","0.0-14.0-1.44","SS1604612749436","<img src='images/simple/11.png' width ='500' height = '500' style='border:5px solid black'>","40","all_simple","images/simple/18.png","images/simple/3.png","images/simple/11.png,images/simple/1.png,images/simple/7.png,images/simple/10.png,images/simple/6.png,images/simple/4.png,images/simple/5.png","0","null","","200","350.4049999639392","","","","deviant","",""
"","null","html-keyboard-response","104","148021","0.0-14.0-0.45","SS1604612749436","","null","","","","","","","","","","","","<img src=images/blank.png width =""500"" height = ""500"" style=""border:5px solid black"">","","",""
"","139.350000070408","stimulus-presentation","105","148364","0.0-14.0-1.45","SS1604612749436","<img src='images/simple/3.png' width ='500' height = '500' style='border:5px solid black'>","40","all_simple","images/simple/18.png","images/simple/3.png","images/simple/11.png,images/simple/1.png,images/simple/7.png,images/simple/10.png,images/simple/6.png,images/simple/4.png,images/simple/5.png","0","null","","200","339.350000070408","","","","background","",""
"","null","html-keyboard-response","106","149237","0.0-14.0-0.46","SS1604612749436","","null","","","","","","","","","","","","<img src=images/blank.png width =""500"" height = ""500"" style=""border:5px solid black"">","","",""
"","154.57000001333654","stimulus-presentation","107","149596","0.0-14.0-1.46","SS1604612749436","<img src='images/simple/3.png' width ='500' height = '500' style='border:5px solid black'>","40","all_simple","images/simple/18.png","images/simple/3.png","images/simple/11.png,images/simple/1.png,images/simple/7.png,images/simple/10.png,images/simple/6.png,images/simple/4.png,images/simple/5.png","0","null","","200","354.57000001333654","","","","background","",""
"","null","html-keyboard-response","108","150409","0.0-14.0-0.47","SS1604612749436","","null","","","","","","","","","","","","<img src=images/blank.png width =""500"" height = ""500"" style=""border:5px solid black"">","","",""
"","115.9300000872463","stimulus-presentation","109","150730","0.0-14.0-1.47","SS1604612749436","<img src='images/simple/3.png' width ='500' height = '500' style='border:5px solid black'>","40","all_simple","images/simple/18.png","images/simple/3.png","images/simple/11.png,images/simple/1.png,images/simple/7.png,images/simple/10.png,images/simple/6.png,images/simple/4.png,images/simple/5.png","0","null","","200","315.9300000872463","","","","background","",""
"","null","html-keyboard-response","110","151798","0.0-14.0-0.48","SS1604612749436","","null","","","","","","","","","","","","<img src=images/blank.png width =""500"" height = ""500"" style=""border:5px solid black"">","","",""
"","153.94999994896352","stimulus-presentation","111","152157","0.0-14.0-1.48","SS1604612749436","<img src='images/simple/3.png' width ='500' height = '500' style='border:5px solid black'>","40","all_simple","images/simple/18.png","images/simple/3.png","images/simple/11.png,images/simple/1.png,images/simple/7.png,images/simple/10.png,images/simple/6.png,images/simple/4.png,images/simple/5.png","0","null","","200","353.9499999489635","","","","background","",""
"[{""page_index"":0,""viewing_time"":9333}]","9333","task-instructions","112","161493","0.0-15.0","SS1604612749436","","","","","","","","","","","","","","","","",""
"[{""page_index"":0,""viewing_time"":2629.925000015646},{""page_index"":1,""viewing_time"":2714.264999842271},{""page_index"":2,""viewing_time"":1102.4900001939386}]","6446.944999974221","instructions","113","167944","0.0-16.0","SS1604612749436","","","","","","","","","","","","","","","","",""
"","null","html-keyboard-response","114","169092","0.0-17.0-0.0","SS1604612749436","","null","","","","","","","","","","","","<img src=images/blank.png width =""500"" height = ""500"" style=""border:5px solid black"">","","",""
"","403.12000014819205","stimulus-presentation","115","169701","0.0-17.0-1.0","SS1604612749436","<img src='images/simple/16.png' width ='500' height = '500' style='border:5px solid black'>","40","mixed_simple_deviant","images/complex/11.png","images/complex/12.png","images/simple/12.png,images/simple/16.png,images/simple/2.png,images/simple/13.png,images/simple/14.png,images/simple/9.png,images/simple/15.png","1","null","","200","603.120000148192","","","","deviant","",""
"","null","html-keyboard-response","116","170852","0.0-17.0-0.1","SS1604612749436","","null","","","","","","","","","","","","<img src=images/blank.png width =""500"" height = ""500"" style=""border:5px solid black"">","","",""
"","219.21500004827976","stimulus-presentation","117","171276","0.0-17.0-1.1","SS1604612749436","<img src='images/complex/12.png' width ='500' height = '500' style='border:5px solid black'>","40","mixed_simple_deviant","images/complex/11.png","images/complex/12.png","images/simple/12.png,images/simple/16.png,images/simple/2.png,images/simple/13.png,images/simple/14.png,images/simple/9.png,images/simple/15.png","1","null","","200","419.21500004827976","","","","background","",""
"","null","html-keyboard-response","118","172248","0.0-17.0-0.2","SS1604612749436","","null","","","","","","","","","","","","<img src=images/blank.png width =""500"" height = ""500"" style=""border:5px solid black"">","","",""
"","322.2350000869483","stimulus-presentation","119","172775","0.0-17.0-1.2","SS1604612749436","<img src='images/complex/12.png' width ='500' height = '500' style='border:5px solid black'>","40","mixed_simple_deviant","images/complex/11.png","images/complex/12.png","images/simple/12.png,images/simple/16.png,images/simple/2.png,images/simple/13.png,images/simple/14.png,images/simple/9.png,images/simple/15.png","1","null","","200","522.2350000869483","","","","background","",""
"","null","html-keyboard-response","120","173776","0.0-17.0-0.3","SS1604612749436","","null","","","","","","","","","","","","<img src=images/blank.png width =""500"" height = ""500"" style=""border:5px solid black"">","","",""
"","123.9950000308454","stimulus-presentation","121","174103","0.0-17.0-1.3","SS1604612749436","<img src='images/complex/12.png' width ='500' height = '500' style='border:5px solid black'>","40","mixed_simple_deviant","images/complex/11.png","images/complex/12.png","images/simple/12.png,images/simple/16.png,images/simple/2.png,images/simple/13.png,images/simple/14.png,images/simple/9.png,images/simple/15.png","1","null","","200","323.9950000308454","","","","background","",""
"","null","html-keyboard-response","122","175068","0.0-17.0-0.4","SS1604612749436","","null","","","","","","","","","","","","<img src=images/blank.png width =""500"" height = ""500"" style=""border:5px solid black"">","","",""
"","761.7799998261034","stimulus-presentation","123","176036","0.0-17.0-1.4","SS1604612749436","<img src='images/complex/11.png' width ='500' height = '500' style='border:5px solid black'>","40","mixed_simple_deviant","images/complex/11.png","images/complex/12.png","images/simple/12.png,images/simple/16.png,images/simple/2.png,images/simple/13.png,images/simple/14.png,images/simple/9.png,images/simple/15.png","1","null","","200","961.7799998261034","yes","274.97499994933605","","target","",""
"","null","html-keyboard-response","124","177262","0.0-17.0-0.5","SS1604612749436","","null","","","","","","","","","","","","<img src=images/blank.png width =""500"" height = ""500"" style=""border:5px solid black"">","","",""
"","153.54500012472272","stimulus-presentation","125","177621","0.0-17.0-1.5","SS1604612749436","<img src='images/complex/12.png' width ='500' height = '500' style='border:5px solid black'>","40","mixed_simple_deviant","images/complex/11.png","images/complex/12.png","images/simple/12.png,images/simple/16.png,images/simple/2.png,images/simple/13.png,images/simple/14.png,images/simple/9.png,images/simple/15.png","1","null","","200","353.5450001247227","","","","background","",""
"","null","html-keyboard-response","126","178772","0.0-17.0-0.6","SS1604612749436","","null","","","","","","","","","","","","<img src=images/blank.png width =""500"" height = ""500"" style=""border:5px solid black"">","","",""
"","141.43000007607043","stimulus-presentation","127","179118","0.0-17.0-1.6","SS1604612749436","<img src='images/simple/2.png' width ='500' height = '500' style='border:5px solid black'>","40","mixed_simple_deviant","images/complex/11.png","images/complex/12.png","images/simple/12.png,images/simple/16.png,images/simple/2.png,images/simple/13.png,images/simple/14.png,images/simple/9.png,images/simple/15.png","1","null","","200","341.4300000760704","","","","deviant","",""
"","null","html-keyboard-response","128","179929","0.0-17.0-0.7","SS1604612749436","","null","","","","","","","","","","","","<img src=images/blank.png width =""500"" height = ""500"" style=""border:5px solid black"">","","",""
"","130.4900001268834","stimulus-presentation","129","180264","0.0-17.0-1.7","SS1604612749436","<img src='images/complex/12.png' width ='500' height = '500' style='border:5px solid black'>","40","mixed_simple_deviant","images/complex/11.png","images/complex/12.png","images/simple/12.png,images/simple/16.png,images/simple/2.png,images/simple/13.png,images/simple/14.png,images/simple/9.png,images/simple/15.png","1","null","","200","330.4900001268834","","","","background","",""
"","null","html-keyboard-response","130","181125","0.0-17.0-0.8","SS1604612749436","","null","","","","","","","","","","","","<img src=images/blank.png width =""500"" height = ""500"" style=""border:5px solid black"">","","",""
"","134.59499995224178","stimulus-presentation","131","181464","0.0-17.0-1.8","SS1604612749436","<img src='images/complex/12.png' width ='500' height = '500' style='border:5px solid black'>","40","mixed_simple_deviant","images/complex/11.png","images/complex/12.png","images/simple/12.png,images/simple/16.png,images/simple/2.png,images/simple/13.png,images/simple/14.png,images/simple/9.png,images/simple/15.png","1","null","","200","334.5949999522418","","","","background","",""
"","null","html-keyboard-response","132","182507","0.0-17.0-0.9","SS1604612749436","","null","","","","","","","","","","","","<img src=images/blank.png width =""500"" height = ""500"" style=""border:5px solid black"">","","",""
"","80.80499991774559","stimulus-presentation","133","182793","0.0-17.0-1.9","SS1604612749436","<img src='images/complex/12.png' width ='500' height = '500' style='border:5px solid black'>","40","mixed_simple_deviant","images/complex/11.png","images/complex/12.png","images/simple/12.png,images/simple/16.png,images/simple/2.png,images/simple/13.png,images/simple/14.png,images/simple/9.png,images/simple/15.png","1","null","","200","280.8049999177456","","","","background","",""
"","null","html-keyboard-response","134","183791","0.0-17.0-0.10","SS1604612749436","","null","","","","","","","","","","","","<img src=images/blank.png width =""500"" height = ""500"" style=""border:5px solid black"">","","",""
"","66.43499992787838","stimulus-presentation","135","184061","0.0-17.0-1.10","SS1604612749436","<img src='images/complex/12.png' width ='500' height = '500' style='border:5px solid black'>","40","mixed_simple_deviant","images/complex/11.png","images/complex/12.png","images/simple/12.png,images/simple/16.png,images/simple/2.png,images/simple/13.png,images/simple/14.png,images/simple/9.png,images/simple/15.png","1","null","","200","266.4349999278784","","","","background","",""
"","null","html-keyboard-response","136","184898","0.0-17.0-0.11","SS1604612749436","","null","","","","","","","","","","","","<img src=images/blank.png width =""500"" height = ""500"" style=""border:5px solid black"">","","",""
"","100.68500018678606","stimulus-presentation","137","185202","0.0-17.0-1.11","SS1604612749436","<img src='images/complex/12.png' width ='500' height = '500' style='border:5px solid black'>","40","mixed_simple_deviant","images/complex/11.png","images/complex/12.png","images/simple/12.png,images/simple/16.png,images/simple/2.png,images/simple/13.png,images/simple/14.png,images/simple/9.png,images/simple/15.png","1","null","","200","300.68500018678606","","","","background","",""
"","null","html-keyboard-response","138","186314","0.0-17.0-0.12","SS1604612749436","","null","","","","","","","","","","","","<img src=images/blank.png width =""500"" height = ""500"" style=""border:5px solid black"">","","",""
"","174.91000005975366","stimulus-presentation","139","186694","0.0-17.0-1.12","SS1604612749436","<img src='images/simple/14.png' width ='500' height = '500' style='border:5px solid black'>","40","mixed_simple_deviant","images/complex/11.png","images/complex/12.png","images/simple/12.png,images/simple/16.png,images/simple/2.png,images/simple/13.png,images/simple/14.png,images/simple/9.png,images/simple/15.png","1","null","","200","374.91000005975366","","","","deviant","",""
"","null","html-keyboard-response","140","187905","0.0-17.0-0.13","SS1604612749436","","null","","","","","","","","","","","","<img src=images/blank.png width =""500"" height = ""500"" style=""border:5px solid black"">","","",""
"","126.04500004090369","stimulus-presentation","141","188236","0.0-17.0-1.13","SS1604612749436","<img src='images/complex/12.png' width ='500' height = '500' style='border:5px solid black'>","40","mixed_simple_deviant","images/complex/11.png","images/complex/12.png","images/simple/12.png,images/simple/16.png,images/simple/2.png,images/simple/13.png,images/simple/14.png,images/simple/9.png,images/simple/15.png","1","null","","200","326.0450000409037","","","","background","",""
"","null","html-keyboard-response","142","189048","0.0-17.0-0.14","SS1604612749436","","null","","","","","","","","","","","","<img src=images/blank.png width =""500"" height = ""500"" style=""border:5px solid black"">","","",""
"","895.1799999922514","stimulus-presentation","143","190149","0.0-17.0-1.14","SS1604612749436","<img src='images/complex/11.png' width ='500' height = '500' style='border:5px solid black'>","40","mixed_simple_deviant","images/complex/11.png","images/complex/12.png","images/simple/12.png,images/simple/16.png,images/simple/2.png,images/simple/13.png,images/simple/14.png,images/simple/9.png,images/simple/15.png","1","null","","200","1095.1799999922514","yes","472.9149998165667","","target","",""
"","null","html-keyboard-response","144","191420","0.0-17.0-0.15","SS1604612749436","","null","","","","","","","","","","","","<img src=images/blank.png width =""500"" height = ""500"" style=""border:5px solid black"">","","",""
"","106.89499997533858","stimulus-presentation","145","191736","0.0-17.0-1.15","SS1604612749436","<img src='images/complex/12.png' width ='500' height = '500' style='border:5px solid black'>","40","mixed_simple_deviant","images/complex/11.png","images/complex/12.png","images/simple/12.png,images/simple/16.png,images/simple/2.png,images/simple/13.png,images/simple/14.png,images/simple/9.png,images/simple/15.png","1","null","","200","306.8949999753386","","","","background","",""
"","null","html-keyboard-response","146","192765","0.0-17.0-0.16","SS1604612749436","","null","","","","","","","","","","","","<img src=images/blank.png width =""500"" height = ""500"" style=""border:5px solid black"">","","",""
"","619.840000057593","stimulus-presentation","147","193590","0.0-17.0-1.16","SS1604612749436","<img src='images/complex/11.png' width ='500' height = '500' style='border:5px solid black'>","40","mixed_simple_deviant","images/complex/11.png","images/complex/12.png","images/simple/12.png,images/simple/16.png,images/simple/2.png,images/simple/13.png,images/simple/14.png,images/simple/9.png,images/simple/15.png","1","null","","200","819.840000057593","yes","178.49500011652708","","target","",""
"","null","html-keyboard-response","148","194728","0.0-17.0-0.17","SS1604612749436","","null","","","","","","","","","","","","<img src=images/blank.png width =""500"" height = ""500"" style=""border:5px solid black"">","","",""
"","143.97500013001263","stimulus-presentation","149","195078","0.0-17.0-1.17","SS1604612749436","<img src='images/complex/12.png' width ='500' height = '500' style='border:5px solid black'>","40","mixed_simple_deviant","images/complex/11.png","images/complex/12.png","images/simple/12.png,images/simple/16.png,images/simple/2.png,images/simple/13.png,images/simple/14.png,images/simple/9.png,images/simple/15.png","1","null","","200","343.97500013001263","","","","background","",""
"","null","html-keyboard-response","150","196240","0.0-17.0-0.18","SS1604612749436","","null","","","","","","","","","","","","<img src=images/blank.png width =""500"" height = ""500"" style=""border:5px solid black"">","","",""
"","217.7699999883771","stimulus-presentation","151","196661","0.0-17.0-1.18","SS1604612749436","<img src='images/complex/12.png' width ='500' height = '500' style='border:5px solid black'>","40","mixed_simple_deviant","images/complex/11.png","images/complex/12.png","images/simple/12.png,images/simple/16.png,images/simple/2.png,images/simple/13.png,images/simple/14.png,images/simple/9.png,images/simple/15.png","1","null","","200","417.7699999883771","","","","background","",""
"","null","html-keyboard-response","152","197802","0.0-17.0-0.19","SS1604612749436","","null","","","","","","","","","","","","<img src=images/blank.png width =""500"" height = ""500"" style=""border:5px solid black"">","","",""
"","139.5799999590963","stimulus-presentation","153","198146","0.0-17.0-1.19","SS1604612749436","<img src='images/complex/12.png' width ='500' height = '500' style='border:5px solid black'>","40","mixed_simple_deviant","images/complex/11.png","images/complex/12.png","images/simple/12.png,images/simple/16.png,images/simple/2.png,images/simple/13.png,images/simple/14.png,images/simple/9.png,images/simple/15.png","1","null","","200","339.5799999590963","","","","background","",""
"","null","html-keyboard-response","154","199185","0.0-17.0-0.20","SS1604612749436","","null","","","","","","","","","","","","<img src=images/blank.png width =""500"" height = ""500"" style=""border:5px solid black"">","","",""
"","211.9750001002103","stimulus-presentation","155","199602","0.0-17.0-1.20","SS1604612749436","<img src='images/complex/12.png' width ='500' height = '500' style='border:5px solid black'>","40","mixed_simple_deviant","images/complex/11.png","images/complex/12.png","images/simple/12.png,images/simple/16.png,images/simple/2.png,images/simple/13.png,images/simple/14.png,images/simple/9.png,images/simple/15.png","1","null","","200","411.9750001002103","","","","background","",""
"","null","html-keyboard-response","156","200507","0.0-17.0-0.21","SS1604612749436","","null","","","","","","","","","","","","<img src=images/blank.png width =""500"" height = ""500"" style=""border:5px solid black"">","","",""
"","148.02500000223517","stimulus-presentation","157","200861","0.0-17.0-1.21","SS1604612749436","<img src='images/simple/15.png' width ='500' height = '500' style='border:5px solid black'>","40","mixed_simple_deviant","images/complex/11.png","images/complex/12.png","images/simple/12.png,images/simple/16.png,images/simple/2.png,images/simple/13.png,images/simple/14.png,images/simple/9.png,images/simple/15.png","1","null","","200","348.0250000022352","","","","deviant","",""
"","null","html-keyboard-response","158","202015","0.0-17.0-0.22","SS1604612749436","","null","","","","","","","","","","","","<img src=images/blank.png width =""500"" height = ""500"" style=""border:5px solid black"">","","",""
"","178.92499989829957","stimulus-presentation","159","202399","0.0-17.0-1.22","SS1604612749436","<img src='images/complex/12.png' width ='500' height = '500' style='border:5px solid black'>","40","mixed_simple_deviant","images/complex/11.png","images/complex/12.png","images/simple/12.png,images/simple/16.png,images/simple/2.png,images/simple/13.png,images/simple/14.png,images/simple/9.png,images/simple/15.png","1","null","","200","378.9249998982996","","","","background","",""
"","null","html-keyboard-response","160","203672","0.0-17.0-0.23","SS1604612749436","","null","","","","","","","","","","","","<img src=images/blank.png width =""500"" height = ""500"" style=""border:5px solid black"">","","",""
"","166.25000000931323","stimulus-presentation","161","204043","0.0-17.0-1.23","SS1604612749436","<img src='images/complex/12.png' width ='500' height = '500' style='border:5px solid black'>","40","mixed_simple_deviant","images/complex/11.png","images/complex/12.png","images/simple/12.png,images/simple/16.png,images/simple/2.png,images/simple/13.png,images/simple/14.png,images/simple/9.png,images/simple/15.png","1","null","","200","366.2500000093132","","","","background","",""
"","null","html-keyboard-response","162","205176","0.0-17.0-0.24","SS1604612749436","","null","","","","","","","","","","","","<img src=images/blank.png width =""500"" height = ""500"" style=""border:5px solid black"">","","",""
"","226.92000004462898","stimulus-presentation","163","205608","0.0-17.0-1.24","SS1604612749436","<img src='images/complex/12.png' width ='500' height = '500' style='border:5px solid black'>","40","mixed_simple_deviant","images/complex/11.png","images/complex/12.png","images/simple/12.png,images/simple/16.png,images/simple/2.png,images/simple/13.png,images/simple/14.png,images/simple/9.png,images/simple/15.png","1","null","","200","426.920000044629","","","","background","",""
"","null","html-keyboard-response","164","206757","0.0-17.0-0.25","SS1604612749436","","null","","","","","","","","","","","","<img src=images/blank.png width =""500"" height = ""500"" style=""border:5px solid black"">","","",""
"","200.7049999665469","stimulus-presentation","165","207163","0.0-17.0-1.25","SS1604612749436","<img src='images/complex/12.png' width ='500' height = '500' style='border:5px solid black'>","40","mixed_simple_deviant","images/complex/11.png","images/complex/12.png","images/simple/12.png,images/simple/16.png,images/simple/2.png,images/simple/13.png,images/simple/14.png,images/simple/9.png,images/simple/15.png","1","null","","200","400.7049999665469","","","","background","",""
"","null","html-keyboard-response","166","208261","0.0-17.0-0.26","SS1604612749436","","null","","","","","","","","","","","","<img src=images/blank.png width =""500"" height = ""500"" style=""border:5px solid black"">","","",""
"","113.98499994538724","stimulus-presentation","167","208581","0.0-17.0-1.26","SS1604612749436","<img src='images/complex/12.png' width ='500' height = '500' style='border:5px solid black'>","40","mixed_simple_deviant","images/complex/11.png","images/complex/12.png","images/simple/12.png,images/simple/16.png,images/simple/2.png,images/simple/13.png,images/simple/14.png,images/simple/9.png,images/simple/15.png","1","null","","200","313.98499994538724","","","","background","",""
"","null","html-keyboard-response","168","209625","0.0-17.0-0.27","SS1604612749436","","null","","","","","","","","","","","","<img src=images/blank.png width =""500"" height = ""500"" style=""border:5px solid black"">","","",""
"","70.89500012807548","stimulus-presentation","169","209902","0.0-17.0-1.27","SS1604612749436","<img src='images/complex/11.png' width ='500' height = '500' style='border:5px solid black'>","40","mixed_simple_deviant","images/complex/11.png","images/complex/12.png","images/simple/12.png,images/simple/16.png,images/simple/2.png,images/simple/13.png,images/simple/14.png,images/simple/9.png,images/simple/15.png","1","null","","200","270.8950001280755","","","","target","",""
"","null","html-keyboard-response","170","210876","0.0-17.0-0.28","SS1604612749436","","null","","","","","","","","","","","","<img src=images/blank.png width =""500"" height = ""500"" style=""border:5px solid black"">","","",""
"","514.5749999210238","stimulus-presentation","171","211596","0.0-17.0-1.28","SS1604612749436","<img src='images/complex/12.png' width ='500' height = '500' style='border:5px solid black'>","40","mixed_simple_deviant","images/complex/11.png","images/complex/12.png","images/simple/12.png,images/simple/16.png,images/simple/2.png,images/simple/13.png,images/simple/14.png,images/simple/9.png,images/simple/15.png","1","null","","200","714.5749999210238","","","","background","",""
"","null","html-keyboard-response","172","212554","0.0-17.0-0.29","SS1604612749436","","null","","","","","","","","","","","","<img src=images/blank.png width =""500"" height = ""500"" style=""border:5px solid black"">","","",""
"","119.79499994777143","stimulus-presentation","173","212879","0.0-17.0-1.29","SS1604612749436","<img src='images/complex/12.png' width ='500' height = '500' style='border:5px solid black'>","40","mixed_simple_deviant","images/complex/11.png","images/complex/12.png","images/simple/12.png,images/simple/16.png,images/simple/2.png,images/simple/13.png,images/simple/14.png,images/simple/9.png,images/simple/15.png","1","null","","200","319.79499994777143","","","","background","",""
"","null","html-keyboard-response","174","214168","0.0-17.0-0.30","SS1604612749436","","null","","","","","","","","","","","","<img src=images/blank.png width =""500"" height = ""500"" style=""border:5px solid black"">","","",""
"","12739.959999918938","stimulus-presentation","175","227114","0.0-17.0-1.30","SS1604612749436","<img src='images/simple/9.png' width ='500' height = '500' style='border:5px solid black'>","40","mixed_simple_deviant","images/complex/11.png","images/complex/12.png","images/simple/12.png,images/simple/16.png,images/simple/2.png,images/simple/13.png,images/simple/14.png,images/simple/9.png,images/simple/15.png","1","null","","200","12939.959999918938","","","","deviant","",""
"","null","html-keyboard-response","176","228023","0.0-17.0-0.31","SS1604612749436","","null","","","","","","","","","","","","<img src=images/blank.png width =""500"" height = ""500"" style=""border:5px solid black"">","","",""
"","236.15500004962087","stimulus-presentation","177","228464","0.0-17.0-1.31","SS1604612749436","<img src='images/complex/12.png' width ='500' height = '500' style='border:5px solid black'>","40","mixed_simple_deviant","images/complex/11.png","images/complex/12.png","images/simple/12.png,images/simple/16.png,images/simple/2.png,images/simple/13.png,images/simple/14.png,images/simple/9.png,images/simple/15.png","1","null","","200","436.15500004962087","","","","background","",""
"","null","html-keyboard-response","178","229559","0.0-17.0-0.32","SS1604612749436","","null","","","","","","","","","","","","<img src=images/blank.png width =""500"" height = ""500"" style=""border:5px solid black"">","","",""
"","88.2300001103431","stimulus-presentation","179","229852","0.0-17.0-1.32","SS1604612749436","<img src='images/complex/12.png' width ='500' height = '500' style='border:5px solid black'>","40","mixed_simple_deviant","images/complex/11.png","images/complex/12.png","images/simple/12.png,images/simple/16.png,images/simple/2.png,images/simple/13.png,images/simple/14.png,images/simple/9.png,images/simple/15.png","1","null","","200","288.2300001103431","","","","background","",""
"","null","html-keyboard-response","180","230924","0.0-17.0-0.33","SS1604612749436","","null","","","","","","","","","","","","<img src=images/blank.png width =""500"" height = ""500"" style=""border:5px solid black"">","","",""
"","110.83499994128942","stimulus-presentation","181","231243","0.0-17.0-1.33","SS1604612749436","<img src='images/complex/12.png' width ='500' height = '500' style='border:5px solid black'>","40","mixed_simple_deviant","images/complex/11.png","images/complex/12.png","images/simple/12.png,images/simple/16.png,images/simple/2.png,images/simple/13.png,images/simple/14.png,images/simple/9.png,images/simple/15.png","1","null","","200","310.8349999412894","","","","background","",""
"","null","html-keyboard-response","182","232425","0.0-17.0-0.34","SS1604612749436","","null","","","","","","","","","","","","<img src=images/blank.png width =""500"" height = ""500"" style=""border:5px solid black"">","","",""
"","69.42499987781048","stimulus-presentation","183","232701","0.0-17.0-1.34","SS1604612749436","<img src='images/complex/12.png' width ='500' height = '500' style='border:5px solid black'>","40","mixed_simple_deviant","images/complex/11.png","images/complex/12.png","images/simple/12.png,images/simple/16.png,images/simple/2.png,images/simple/13.png,images/simple/14.png,images/simple/9.png,images/simple/15.png","1","null","","200","269.4249998778105","","","","background","",""
"","null","html-keyboard-response","184","233597","0.0-17.0-0.35","SS1604612749436","","null","","","","","","","","","","","","<img src=images/blank.png width =""500"" height = ""500"" style=""border:5px solid black"">","","",""
"","126.40000018291175","stimulus-presentation","185","233928","0.0-17.0-1.35","SS1604612749436","<img src='images/complex/11.png' width ='500' height = '500' style='border:5px solid black'>","40","mixed_simple_deviant","images/complex/11.png","images/complex/12.png","images/simple/12.png,images/simple/16.png,images/simple/2.png,images/simple/13.png,images/simple/14.png,images/simple/9.png,images/simple/15.png","1","null","","200","326.40000018291175","","","","target","",""
"","null","html-keyboard-response","186","234900","0.0-17.0-0.36","SS1604612749436","","null","","","","","","","","","","","","<img src=images/blank.png width =""500"" height = ""500"" style=""border:5px solid black"">","","",""
"","174.1549998987466","stimulus-presentation","187","235280","0.0-17.0-1.36","SS1604612749436","<img src='images/complex/12.png' width ='500' height = '500' style='border:5px solid black'>","40","mixed_simple_deviant","images/complex/11.png","images/complex/12.png","images/simple/12.png,images/simple/16.png,images/simple/2.png,images/simple/13.png,images/simple/14.png,images/simple/9.png,images/simple/15.png","1","null","","200","374.1549998987466","","","","background","",""
"","null","html-keyboard-response","188","236321","0.0-17.0-0.37","SS1604612749436","","null","","","","","","","","","","","","<img src=images/blank.png width =""500"" height = ""500"" style=""border:5px solid black"">","","",""
"","972.2499998752028","stimulus-presentation","189","237499","0.0-17.0-1.37","SS1604612749436","<img src='images/complex/11.png' width ='500' height = '500' style='border:5px solid black'>","40","mixed_simple_deviant","images/complex/11.png","images/complex/12.png","images/simple/12.png,images/simple/16.png,images/simple/2.png,images/simple/13.png,images/simple/14.png,images/simple/9.png,images/simple/15.png","1","null","","200","1172.2499998752028","yes","259.51999984681606","","target","",""
"","null","html-keyboard-response","190","238529","0.0-17.0-0.38","SS1604612749436","","null","","","","","","","","","","","","<img src=images/blank.png width =""500"" height = ""500"" style=""border:5px solid black"">","","",""
"","193.35500011220574","stimulus-presentation","191","238929","0.0-17.0-1.38","SS1604612749436","<img src='images/simple/13.png' width ='500' height = '500' style='border:5px solid black'>","40","mixed_simple_deviant","images/complex/11.png","images/complex/12.png","images/simple/12.png,images/simple/16.png,images/simple/2.png,images/simple/13.png,images/simple/14.png,images/simple/9.png,images/simple/15.png","1","null","","200","393.35500011220574","","","","deviant","",""
"","null","html-keyboard-response","192","239957","0.0-17.0-0.39","SS1604612749436","","null","","","","","","","","","","","","<img src=images/blank.png width =""500"" height = ""500"" style=""border:5px solid black"">","","",""
"","143.97999993525445","stimulus-presentation","193","240308","0.0-17.0-1.39","SS1604612749436","<img src='images/complex/12.png' width ='500' height = '500' style='border:5px solid black'>","40","mixed_simple_deviant","images/complex/11.png","images/complex/12.png","images/simple/12.png,images/simple/16.png,images/simple/2.png,images/simple/13.png,images/simple/14.png,images/simple/9.png,images/simple/15.png","1","null","","200","343.97999993525445","","","","background","",""
"","null","html-keyboard-response","194","241415","0.0-17.0-0.40","SS1604612749436","","null","","","","","","","","","","","","<img src=images/blank.png width =""500"" height = ""500"" style=""border:5px solid black"">","","",""
"","105.23499990813434","stimulus-presentation","195","241726","0.0-17.0-1.40","SS1604612749436","<img src='images/simple/12.png' width ='500' height = '500' style='border:5px solid black'>","40","mixed_simple_deviant","images/complex/11.png","images/complex/12.png","images/simple/12.png,images/simple/16.png,images/simple/2.png,images/simple/13.png,images/simple/14.png,images/simple/9.png,images/simple/15.png","1","null","","200","305.23499990813434","","","","deviant","",""
"","null","html-keyboard-response","196","242559","0.0-17.0-0.41","SS1604612749436","","null","","","","","","","","","","","","<img src=images/blank.png width =""500"" height = ""500"" style=""border:5px solid black"">","","",""
"","581.2649999279529","stimulus-presentation","197","243347","0.0-17.0-1.41","SS1604612749436","<img src='images/complex/11.png' width ='500' height = '500' style='border:5px solid black'>","40","mixed_simple_deviant","images/complex/11.png","images/complex/12.png","images/simple/12.png,images/simple/16.png,images/simple/2.png,images/simple/13.png,images/simple/14.png,images/simple/9.png,images/simple/15.png","1","null","","200","781.2649999279529","yes","166.9099999126047","","target","",""
"","null","html-keyboard-response","198","244488","0.0-17.0-0.42","SS1604612749436","","null","","","","","","","","","","","","<img src=images/blank.png width =""500"" height = ""500"" style=""border:5px solid black"">","","",""
"","157.88000007160008","stimulus-presentation","199","244851","0.0-17.0-1.42","SS1604612749436","<img src='images/complex/12.png' width ='500' height = '500' style='border:5px solid black'>","40","mixed_simple_deviant","images/complex/11.png","images/complex/12.png","images/simple/12.png,images/simple/16.png,images/simple/2.png,images/simple/13.png,images/simple/14.png,images/simple/9.png,images/simple/15.png","1","null","","200","357.8800000716001","","","","background","",""
"","null","html-keyboard-response","200","245779","0.0-17.0-0.43","SS1604612749436","","null","","","","","","","","","","","","<img src=images/blank.png width =""500"" height = ""500"" style=""border:5px solid black"">","","",""
"","192.63999979011714","stimulus-presentation","201","246176","0.0-17.0-1.43","SS1604612749436","<img src='images/complex/12.png' width ='500' height = '500' style='border:5px solid black'>","40","mixed_simple_deviant","images/complex/11.png","images/complex/12.png","images/simple/12.png,images/simple/16.png,images/simple/2.png,images/simple/13.png,images/simple/14.png,images/simple/9.png,images/simple/15.png","1","null","","200","392.63999979011714","","","","background","",""
"","null","html-keyboard-response","202","246994","0.0-17.0-0.44","SS1604612749436","","null","","","","","","","","","","","","<img src=images/blank.png width =""500"" height = ""500"" style=""border:5px solid black"">","","",""
"","164.68500019982457","stimulus-presentation","203","247367","0.0-17.0-1.44","SS1604612749436","<img src='images/complex/12.png' width ='500' height = '500' style='border:5px solid black'>","40","mixed_simple_deviant","images/complex/11.png","images/complex/12.png","images/simple/12.png,images/simple/16.png,images/simple/2.png,images/simple/13.png,images/simple/14.png,images/simple/9.png,images/simple/15.png","1","null","","200","364.6850001998246","","","","background","",""
"","null","html-keyboard-response","204","248248","0.0-17.0-0.45","SS1604612749436","","null","","","","","","","","","","","","<img src=images/blank.png width =""500"" height = ""500"" style=""border:5px solid black"">","","",""
"","150.17500007525086","stimulus-presentation","205","248617","0.0-17.0-1.45","SS1604612749436","<img src='images/complex/12.png' width ='500' height = '500' style='border:5px solid black'>","40","mixed_simple_deviant","images/complex/11.png","images/complex/12.png","images/simple/12.png,images/simple/16.png,images/simple/2.png,images/simple/13.png,images/simple/14.png,images/simple/9.png,images/simple/15.png","1","null","","200","350.17500007525086","","","","background","",""
"","null","html-keyboard-response","206","249652","0.0-17.0-0.46","SS1604612749436","","null","","","","","","","","","","","","<img src=images/blank.png width =""500"" height = ""500"" style=""border:5px solid black"">","","",""
"","420.7549998536706","stimulus-presentation","207","250291","0.0-17.0-1.46","SS1604612749436","<img src='images/complex/12.png' width ='500' height = '500' style='border:5px solid black'>","40","mixed_simple_deviant","images/complex/11.png","images/complex/12.png","images/simple/12.png,images/simple/16.png,images/simple/2.png,images/simple/13.png,images/simple/14.png,images/simple/9.png,images/simple/15.png","1","null","","200","620.7549998536706","","","","background","",""
"","null","html-keyboard-response","208","251537","0.0-17.0-0.47","SS1604612749436","","null","","","","","","","","","","","","<img src=images/blank.png width =""500"" height = ""500"" style=""border:5px solid black"">","","",""
"","901.5299999155104","stimulus-presentation","209","252649","0.0-17.0-1.47","SS1604612749436","<img src='images/complex/12.png' width ='500' height = '500' style='border:5px solid black'>","40","mixed_simple_deviant","images/complex/11.png","images/complex/12.png","images/simple/12.png,images/simple/16.png,images/simple/2.png,images/simple/13.png,images/simple/14.png,images/simple/9.png,images/simple/15.png","1","null","","200","1101.5299999155104","","","","background","",""
"","null","html-keyboard-response","210","253816","0.0-17.0-0.48","SS1604612749436","","null","","","","","","","","","","","","<img src=images/blank.png width =""500"" height = ""500"" style=""border:5px solid black"">","","",""
"","154.89500015974045","stimulus-presentation","211","254179","0.0-17.0-1.48","SS1604612749436","<img src='images/complex/12.png' width ='500' height = '500' style='border:5px solid black'>","40","mixed_simple_deviant","images/complex/11.png","images/complex/12.png","images/simple/12.png,images/simple/16.png,images/simple/2.png,images/simple/13.png,images/simple/14.png,images/simple/9.png,images/simple/15.png","1","null","","200","354.89500015974045","","","","background","",""
"[{""page_index"":0,""viewing_time"":6115}]","6115","task-instructions","212","260298","0.0-18.0","SS1604612749436","","","","","","","","","","","","","","","","",""
"[{""page_index"":0,""viewing_time"":1991.480000084266},{""page_index"":1,""viewing_time"":3427.7999999467283},{""page_index"":2,""viewing_time"":1215.0250000413507}]","6634.644999867305","instructions","213","266936","0.0-19.0","SS1604612749436","","","","","","","","","","","","","","","","",""
"","null","html-keyboard-response","214","268146","0.0-20.0-0.0","SS1604612749436","","null","","","","","","","","","","","","<img src=images/blank.png width =""500"" height = ""500"" style=""border:5px solid black"">","","",""
"","689.5149999763817","stimulus-presentation","215","269043","0.0-20.0-1.0","SS1604612749436","<img src='images/complex/14.png' width ='500' height = '500' style='border:5px solid black'>","40","all_complex","images/complex/8.png","images/complex/14.png","images/complex/4.png,images/complex/18.png,images/complex/1.png,images/complex/9.png,images/complex/10.png,images/complex/13.png,images/complex/15.png","2","null","","200","889.5149999763817","","","","background","",""
"","null","html-keyboard-response","216","269924","0.0-20.0-0.1","SS1604612749436","","null","","","","","","","","","","","","<img src=images/blank.png width =""500"" height = ""500"" style=""border:5px solid black"">","","",""
"","295.33000010997057","stimulus-presentation","217","270428","0.0-20.0-1.1","SS1604612749436","<img src='images/complex/18.png' width ='500' height = '500' style='border:5px solid black'>","40","all_complex","images/complex/8.png","images/complex/14.png","images/complex/4.png,images/complex/18.png,images/complex/1.png,images/complex/9.png,images/complex/10.png,images/complex/13.png,images/complex/15.png","2","null","","200","495.33000010997057","","","","deviant","",""
"","null","html-keyboard-response","218","271684","0.0-20.0-0.2","SS1604612749436","","null","","","","","","","","","","","","<img src=images/blank.png width =""500"" height = ""500"" style=""border:5px solid black"">","","",""
"","1113.10000019148","stimulus-presentation","219","273002","0.0-20.0-1.2","SS1604612749436","<img src='images/complex/14.png' width ='500' height = '500' style='border:5px solid black'>","40","all_complex","images/complex/8.png","images/complex/14.png","images/complex/4.png,images/complex/18.png,images/complex/1.png,images/complex/9.png,images/complex/10.png,images/complex/13.png,images/complex/15.png","2","null","","200","1313.10000019148","","","","background","",""
"","null","html-keyboard-response","220","274019","0.0-20.0-0.3","SS1604612749436","","null","","","","","","","","","","","","<img src=images/blank.png width =""500"" height = ""500"" style=""border:5px solid black"">","","",""
"","186.52999983169138","stimulus-presentation","221","274412","0.0-20.0-1.3","SS1604612749436","<img src='images/complex/14.png' width ='500' height = '500' style='border:5px solid black'>","40","all_complex","images/complex/8.png","images/complex/14.png","images/complex/4.png,images/complex/18.png,images/complex/1.png,images/complex/9.png,images/complex/10.png,images/complex/13.png,images/complex/15.png","2","null","","200","386.5299998316914","","","","background","",""
"","null","html-keyboard-response","222","275589","0.0-20.0-0.4","SS1604612749436","","null","","","","","","","","","","","","<img src=images/blank.png width =""500"" height = ""500"" style=""border:5px solid black"">","","",""
"","1210.770000005141","stimulus-presentation","223","277005","0.0-20.0-1.4","SS1604612749436","<img src='images/complex/8.png' width ='500' height = '500' style='border:5px solid black'>","40","all_complex","images/complex/8.png","images/complex/14.png","images/complex/4.png,images/complex/18.png,images/complex/1.png,images/complex/9.png,images/complex/10.png,images/complex/13.png,images/complex/15.png","2","null","","200","1410.770000005141","yes","573.3600000385195","","target","",""
"","null","html-keyboard-response","224","278242","0.0-20.0-0.5","SS1604612749436","","null","","","","","","","","","","","","<img src=images/blank.png width =""500"" height = ""500"" style=""border:5px solid black"">","","",""
"","238.37999999523163","stimulus-presentation","225","278687","0.0-20.0-1.5","SS1604612749436","<img src='images/complex/4.png' width ='500' height = '500' style='border:5px solid black'>","40","all_complex","images/complex/8.png","images/complex/14.png","images/complex/4.png,images/complex/18.png,images/complex/1.png,images/complex/9.png,images/complex/10.png,images/complex/13.png,images/complex/15.png","2","null","","200","438.3799999952316","","","","deviant","",""
"","null","html-keyboard-response","226","279951","0.0-20.0-0.6","SS1604612749436","","null","","","","","","","","","","","","<img src=images/blank.png width =""500"" height = ""500"" style=""border:5px solid black"">","","",""
"","1589.234999846667","stimulus-presentation","227","281748","0.0-20.0-1.6","SS1604612749436","<img src='images/complex/8.png' width ='500' height = '500' style='border:5px solid black'>","40","all_complex","images/complex/8.png","images/complex/14.png","images/complex/4.png,images/complex/18.png,images/complex/1.png,images/complex/9.png,images/complex/10.png,images/complex/13.png,images/complex/15.png","2","null","","200","1789.234999846667","yes","700.8899999782443","","target","",""
"","null","html-keyboard-response","228","282975","0.0-20.0-0.7","SS1604612749436","","null","","","","","","","","","","","","<img src=images/blank.png width =""500"" height = ""500"" style=""border:5px solid black"">","","",""
"","248.69500007480383","stimulus-presentation","229","283435","0.0-20.0-1.7","SS1604612749436","<img src='images/complex/14.png' width ='500' height = '500' style='border:5px solid black'>","40","all_complex","images/complex/8.png","images/complex/14.png","images/complex/4.png,images/complex/18.png,images/complex/1.png,images/complex/9.png,images/complex/10.png,images/complex/13.png,images/complex/15.png","2","null","","200","448.69500007480383","","","","background","",""
"","null","html-keyboard-response","230","284311","0.0-20.0-0.8","SS1604612749436","","null","","","","","","","","","","","","<img src=images/blank.png width =""500"" height = ""500"" style=""border:5px solid black"">","","",""
"","160.97999992780387","stimulus-presentation","231","284679","0.0-20.0-1.8","SS1604612749436","<img src='images/complex/14.png' width ='500' height = '500' style='border:5px solid black'>","40","all_complex","images/complex/8.png","images/complex/14.png","images/complex/4.png,images/complex/18.png,images/complex/1.png,images/complex/9.png,images/complex/10.png,images/complex/13.png,images/complex/15.png","2","null","","200","360.9799999278039","","","","background","",""
"","null","html-keyboard-response","232","285562","0.0-20.0-0.9","SS1604612749436","","null","","","","","","","","","","","","<img src=images/blank.png width =""500"" height = ""500"" style=""border:5px solid black"">","","",""
"","160.1100000552833","stimulus-presentation","233","285928","0.0-20.0-1.9","SS1604612749436","<img src='images/complex/14.png' width ='500' height = '500' style='border:5px solid black'>","40","all_complex","images/complex/8.png","images/complex/14.png","images/complex/4.png,images/complex/18.png,images/complex/1.png,images/complex/9.png,images/complex/10.png,images/complex/13.png,images/complex/15.png","2","null","","200","360.1100000552833","","","","background","",""
"","null","html-keyboard-response","234","287057","0.0-20.0-0.10","SS1604612749436","","null","","","","","","","","","","","","<img src=images/blank.png width =""500"" height = ""500"" style=""border:5px solid black"">","","",""
"","107.55000007338822","stimulus-presentation","235","287371","0.0-20.0-1.10","SS1604612749436","<img src='images/complex/14.png' width ='500' height = '500' style='border:5px solid black'>","40","all_complex","images/complex/8.png","images/complex/14.png","images/complex/4.png,images/complex/18.png,images/complex/1.png,images/complex/9.png,images/complex/10.png,images/complex/13.png,images/complex/15.png","2","null","","200","307.5500000733882","","","","background","",""
"","null","html-keyboard-response","236","288368","0.0-20.0-0.11","SS1604612749436","","null","","","","","","","","","","","","<img src=images/blank.png width =""500"" height = ""500"" style=""border:5px solid black"">","","",""
"","192.98999989405274","stimulus-presentation","237","288767","0.0-20.0-1.11","SS1604612749436","<img src='images/complex/14.png' width ='500' height = '500' style='border:5px solid black'>","40","all_complex","images/complex/8.png","images/complex/14.png","images/complex/4.png,images/complex/18.png,images/complex/1.png,images/complex/9.png,images/complex/10.png,images/complex/13.png,images/complex/15.png","2","null","","200","392.98999989405274","","","","background","",""
"","null","html-keyboard-response","238","290057","0.0-20.0-0.12","SS1604612749436","","null","","","","","","","","","","","","<img src=images/blank.png width =""500"" height = ""500"" style=""border:5px solid black"">","","",""
"","206.4650000538677","stimulus-presentation","239","290469","0.0-20.0-1.12","SS1604612749436","<img src='images/complex/1.png' width ='500' height = '500' style='border:5px solid black'>","40","all_complex","images/complex/8.png","images/complex/14.png","images/complex/4.png,images/complex/18.png,images/complex/1.png,images/complex/9.png,images/complex/10.png,images/complex/13.png,images/complex/15.png","2","null","","200","406.4650000538677","","","","deviant","",""
"","null","html-keyboard-response","240","291621","0.0-20.0-0.13","SS1604612749436","","null","","","","","","","","","","","","<img src=images/blank.png width =""500"" height = ""500"" style=""border:5px solid black"">","","",""
"","174.10499998368323","stimulus-presentation","241","292002","0.0-20.0-1.13","SS1604612749436","<img src='images/complex/14.png' width ='500' height = '500' style='border:5px solid black'>","40","all_complex","images/complex/8.png","images/complex/14.png","images/complex/4.png,images/complex/18.png,images/complex/1.png,images/complex/9.png,images/complex/10.png,images/complex/13.png,images/complex/15.png","2","null","","200","374.10499998368323","","","","background","",""
"","null","html-keyboard-response","242","293052","0.0-20.0-0.14","SS1604612749436","","null","","","","","","","","","","","","<img src=images/blank.png width =""500"" height = ""500"" style=""border:5px solid black"">","","",""
"","328.47499987110496","stimulus-presentation","243","293586","0.0-20.0-1.14","SS1604612749436","<img src='images/complex/13.png' width ='500' height = '500' style='border:5px solid black'>","40","all_complex","images/complex/8.png","images/complex/14.png","images/complex/4.png,images/complex/18.png,images/complex/1.png,images/complex/9.png,images/complex/10.png,images/complex/13.png,images/complex/15.png","2","null","","200","528.474999871105","","","","deviant","",""
"","null","html-keyboard-response","244","294685","0.0-20.0-0.15","SS1604612749436","","null","","","","","","","","","","","","<img src=images/blank.png width =""500"" height = ""500"" style=""border:5px solid black"">","","",""
"","322.6749999448657","stimulus-presentation","245","295213","0.0-20.0-1.15","SS1604612749436","<img src='images/complex/14.png' width ='500' height = '500' style='border:5px solid black'>","40","all_complex","images/complex/8.png","images/complex/14.png","images/complex/4.png,images/complex/18.png,images/complex/1.png,images/complex/9.png,images/complex/10.png,images/complex/13.png,images/complex/15.png","2","null","","200","522.6749999448657","","","","background","",""
"","null","html-keyboard-response","246","296189","0.0-20.0-0.16","SS1604612749436","","null","","","","","","","","","","","","<img src=images/blank.png width =""500"" height = ""500"" style=""border:5px solid black"">","","",""
"","177.52499994821846","stimulus-presentation","247","296574","0.0-20.0-1.16","SS1604612749436","<img src='images/complex/14.png' width ='500' height = '500' style='border:5px solid black'>","40","all_complex","images/complex/8.png","images/complex/14.png","images/complex/4.png,images/complex/18.png,images/complex/1.png,images/complex/9.png,images/complex/10.png,images/complex/13.png,images/complex/15.png","2","null","","200","377.52499994821846","","","","background","",""
"","null","html-keyboard-response","248","297791","0.0-20.0-0.17","SS1604612749436","","null","","","","","","","","","","","","<img src=images/blank.png width =""500"" height = ""500"" style=""border:5px solid black"">","","",""
"","146.21499995701015","stimulus-presentation","249","298143","0.0-20.0-1.17","SS1604612749436","<img src='images/complex/14.png' width ='500' height = '500' style='border:5px solid black'>","40","all_complex","images/complex/8.png","images/complex/14.png","images/complex/4.png,images/complex/18.png,images/complex/1.png,images/complex/9.png,images/complex/10.png,images/complex/13.png,images/complex/15.png","2","null","","200","346.21499995701015","","","","background","",""
"","null","html-keyboard-response","250","299232","0.0-20.0-0.18","SS1604612749436","","null","","","","","","","","","","","","<img src=images/blank.png width =""500"" height = ""500"" style=""border:5px solid black"">","","",""
"","162.7050000242889","stimulus-presentation","251","299601","0.0-20.0-1.18","SS1604612749436","<img src='images/complex/14.png' width ='500' height = '500' style='border:5px solid black'>","40","all_complex","images/complex/8.png","images/complex/14.png","images/complex/4.png,images/complex/18.png,images/complex/1.png,images/complex/9.png,images/complex/10.png,images/complex/13.png,images/complex/15.png","2","null","","200","362.7050000242889","","","","background","",""
"","null","html-keyboard-response","252","300462","0.0-20.0-0.19","SS1604612749436","","null","","","","","","","","","","","","<img src=images/blank.png width =""500"" height = ""500"" style=""border:5px solid black"">","","",""
"","1465.444999979809","stimulus-presentation","253","302140","0.0-20.0-1.19","SS1604612749436","<img src='images/complex/8.png' width ='500' height = '500' style='border:5px solid black'>","40","all_complex","images/complex/8.png","images/complex/14.png","images/complex/4.png,images/complex/18.png,images/complex/1.png,images/complex/9.png,images/complex/10.png,images/complex/13.png,images/complex/15.png","2","null","","200","1665.444999979809","yes","763.8449999503791","","target","",""
"","null","html-keyboard-response","254","303309","0.0-20.0-0.20","SS1604612749436","","null","","","","","","","","","","","","<img src=images/blank.png width =""500"" height = ""500"" style=""border:5px solid black"">","","",""
"","247.789999935776","stimulus-presentation","255","303765","0.0-20.0-1.20","SS1604612749436","<img src='images/complex/14.png' width ='500' height = '500' style='border:5px solid black'>","40","all_complex","images/complex/8.png","images/complex/14.png","images/complex/4.png,images/complex/18.png,images/complex/1.png,images/complex/9.png,images/complex/10.png,images/complex/13.png,images/complex/15.png","2","null","","200","447.789999935776","","","","background","",""
"","null","html-keyboard-response","256","304981","0.0-20.0-0.21","SS1604612749436","","null","","","","","","","","","","","","<img src=images/blank.png width =""500"" height = ""500"" style=""border:5px solid black"">","","",""
"","71.44000008702278","stimulus-presentation","257","305258","0.0-20.0-1.21","SS1604612749436","<img src='images/complex/14.png' width ='500' height = '500' style='border:5px solid black'>","40","all_complex","images/complex/8.png","images/complex/14.png","images/complex/4.png,images/complex/18.png,images/complex/1.png,images/complex/9.png,images/complex/10.png,images/complex/13.png,images/complex/15.png","2","null","","200","271.4400000870228","","","","background","",""
"","null","html-keyboard-response","258","306285","0.0-20.0-0.22","SS1604612749436","","null","","","","","","","","","","","","<img src=images/blank.png width =""500"" height = ""500"" style=""border:5px solid black"">","","",""
"","60.97999983467162","stimulus-presentation","259","306551","0.0-20.0-1.22","SS1604612749436","<img src='images/complex/14.png' width ='500' height = '500' style='border:5px solid black'>","40","all_complex","images/complex/8.png","images/complex/14.png","images/complex/4.png,images/complex/18.png,images/complex/1.png,images/complex/9.png,images/complex/10.png,images/complex/13.png,images/complex/15.png","2","null","","200","260.9799998346716","","","","background","",""
"","null","html-keyboard-response","260","307526","0.0-20.0-0.23","SS1604612749436","","null","","","","","","","","","","","","<img src=images/blank.png width =""500"" height = ""500"" style=""border:5px solid black"">","","",""
"","183.11999994330108","stimulus-presentation","261","307916","0.0-20.0-1.23","SS1604612749436","<img src='images/complex/14.png' width ='500' height = '500' style='border:5px solid black'>","40","all_complex","images/complex/8.png","images/complex/14.png","images/complex/4.png,images/complex/18.png,images/complex/1.png,images/complex/9.png,images/complex/10.png,images/complex/13.png,images/complex/15.png","2","null","","200","383.1199999433011","","","","background","",""
"","null","html-keyboard-response","262","308801","0.0-20.0-0.24","SS1604612749436","","null","","","","","","","","","","","","<img src=images/blank.png width =""500"" height = ""500"" style=""border:5px solid black"">","","",""
"","122.83000000752509","stimulus-presentation","263","309129","0.0-20.0-1.24","SS1604612749436","<img src='images/complex/10.png' width ='500' height = '500' style='border:5px solid black'>","40","all_complex","images/complex/8.png","images/complex/14.png","images/complex/4.png,images/complex/18.png,images/complex/1.png,images/complex/9.png,images/complex/10.png,images/complex/13.png,images/complex/15.png","2","null","","200","322.8300000075251","","","","deviant","",""
"","null","html-keyboard-response","264","310431","0.0-20.0-0.25","SS1604612749436","","null","","","","","","","","","","","","<img src=images/blank.png width =""500"" height = ""500"" style=""border:5px solid black"">","","",""
"","267.9649998899549","stimulus-presentation","265","310906","0.0-20.0-1.25","SS1604612749436","<img src='images/complex/14.png' width ='500' height = '500' style='border:5px solid black'>","40","all_complex","images/complex/8.png","images/complex/14.png","images/complex/4.png,images/complex/18.png,images/complex/1.png,images/complex/9.png,images/complex/10.png,images/complex/13.png,images/complex/15.png","2","null","","200","467.9649998899549","","","","background","",""
"","null","html-keyboard-response","266","311983","0.0-20.0-0.26","SS1604612749436","","null","","","","","","","","","","","","<img src=images/blank.png width =""500"" height = ""500"" style=""border:5px solid black"">","","",""
"","168.1399999652058","stimulus-presentation","267","312358","0.0-20.0-1.26","SS1604612749436","<img src='images/complex/14.png' width ='500' height = '500' style='border:5px solid black'>","40","all_complex","images/complex/8.png","images/complex/14.png","images/complex/4.png,images/complex/18.png,images/complex/1.png,images/complex/9.png,images/complex/10.png,images/complex/13.png,images/complex/15.png","2","null","","200","368.1399999652058","","","","background","",""
"","null","html-keyboard-response","268","313205","0.0-20.0-0.27","SS1604612749436","","null","","","","","","","","","","","","<img src=images/blank.png width =""500"" height = ""500"" style=""border:5px solid black"">","","",""
"","155.765000032261","stimulus-presentation","269","313568","0.0-20.0-1.27","SS1604612749436","<img src='images/complex/14.png' width ='500' height = '500' style='border:5px solid black'>","40","all_complex","images/complex/8.png","images/complex/14.png","images/complex/4.png,images/complex/18.png,images/complex/1.png,images/complex/9.png,images/complex/10.png,images/complex/13.png,images/complex/15.png","2","null","","200","355.765000032261","","","","background","",""
"","null","html-keyboard-response","270","314860","0.0-20.0-0.28","SS1604612749436","","null","","","","","","","","","","","","<img src=images/blank.png width =""500"" height = ""500"" style=""border:5px solid black"">","","",""
"","323.28999997116625","stimulus-presentation","271","315389","0.0-20.0-1.28","SS1604612749436","<img src='images/complex/14.png' width ='500' height = '500' style='border:5px solid black'>","40","all_complex","images/complex/8.png","images/complex/14.png","images/complex/4.png,images/complex/18.png,images/complex/1.png,images/complex/9.png,images/complex/10.png,images/complex/13.png,images/complex/15.png","2","null","","200","523.2899999711663","","","","background","",""
"","null","html-keyboard-response","272","316621","0.0-20.0-0.29","SS1604612749436","","null","","","","","","","","","","","","<img src=images/blank.png width =""500"" height = ""500"" style=""border:5px solid black"">","","",""
"","235.5899999383837","stimulus-presentation","273","317061","0.0-20.0-1.29","SS1604612749436","<img src='images/complex/14.png' width ='500' height = '500' style='border:5px solid black'>","40","all_complex","images/complex/8.png","images/complex/14.png","images/complex/4.png,images/complex/18.png,images/complex/1.png,images/complex/9.png,images/complex/10.png,images/complex/13.png,images/complex/15.png","2","null","","200","435.5899999383837","","","","background","",""
"","null","html-keyboard-response","274","318279","0.0-20.0-0.30","SS1604612749436","","null","","","","","","","","","","","","<img src=images/blank.png width =""500"" height = ""500"" style=""border:5px solid black"">","","",""
"","297.7700000628829","stimulus-presentation","275","318784","0.0-20.0-1.30","SS1604612749436","<img src='images/complex/14.png' width ='500' height = '500' style='border:5px solid black'>","40","all_complex","images/complex/8.png","images/complex/14.png","images/complex/4.png,images/complex/18.png,images/complex/1.png,images/complex/9.png,images/complex/10.png,images/complex/13.png,images/complex/15.png","2","null","","200","497.7700000628829","","","","background","",""
"","null","html-keyboard-response","276","319996","0.0-20.0-0.31","SS1604612749436","","null","","","","","","","","","","","","<img src=images/blank.png width =""500"" height = ""500"" style=""border:5px solid black"">","","",""
"","166.91499995067716","stimulus-presentation","277","320371","0.0-20.0-1.31","SS1604612749436","<img src='images/complex/14.png' width ='500' height = '500' style='border:5px solid black'>","40","all_complex","images/complex/8.png","images/complex/14.png","images/complex/4.png,images/complex/18.png,images/complex/1.png,images/complex/9.png,images/complex/10.png,images/complex/13.png,images/complex/15.png","2","null","","200","366.91499995067716","","","","background","",""
"","null","html-keyboard-response","278","321472","0.0-20.0-0.32","SS1604612749436","","null","","","","","","","","","","","","<img src=images/blank.png width =""500"" height = ""500"" style=""border:5px solid black"">","","",""
"","1736.3749998621643","stimulus-presentation","279","323416","0.0-20.0-1.32","SS1604612749436","<img src='images/complex/8.png' width ='500' height = '500' style='border:5px solid black'>","40","all_complex","images/complex/8.png","images/complex/14.png","images/complex/4.png,images/complex/18.png,images/complex/1.png,images/complex/9.png,images/complex/10.png,images/complex/13.png,images/complex/15.png","2","null","","200","1936.3749998621643","yes","1016.8599998578429","","target","",""
"","null","html-keyboard-response","280","324375","0.0-20.0-0.33","SS1604612749436","","null","","","","","","","","","","","","<img src=images/blank.png width =""500"" height = ""500"" style=""border:5px solid black"">","","",""
"","131.4149999525398","stimulus-presentation","281","324712","0.0-20.0-1.33","SS1604612749436","<img src='images/complex/15.png' width ='500' height = '500' style='border:5px solid black'>","40","all_complex","images/complex/8.png","images/complex/14.png","images/complex/4.png,images/complex/18.png,images/complex/1.png,images/complex/9.png,images/complex/10.png,images/complex/13.png,images/complex/15.png","2","null","","200","331.4149999525398","","","","deviant","",""
"","null","html-keyboard-response","282","325916","0.0-20.0-0.34","SS1604612749436","","null","","","","","","","","","","","","<img src=images/blank.png width =""500"" height = ""500"" style=""border:5px solid black"">","","",""
"","2659.474999876693","stimulus-presentation","283","328781","0.0-20.0-1.34","SS1604612749436","<img src='images/complex/8.png' width ='500' height = '500' style='border:5px solid black'>","40","all_complex","images/complex/8.png","images/complex/14.png","images/complex/4.png,images/complex/18.png,images/complex/1.png,images/complex/9.png,images/complex/10.png,images/complex/13.png,images/complex/15.png","2","null","","200","2859.474999876693","yes","759.3699998687953","","target","",""
"","null","html-keyboard-response","284","329937","0.0-20.0-0.35","SS1604612749436","","null","","","","","","","","","","","","<img src=images/blank.png width =""500"" height = ""500"" style=""border:5px solid black"">","","",""
