"view_history","rt","trial_type","trial_index","time_elapsed","internal_node_id","subject","trial_stimulus","key_press","task_type","task_target_stimulus","task_background_stimulus","task_deviant_stimuli","task_order_number","block_order_number","trial_order_number","minimum_viewing_duration","trial_looking_time","trial_pressed_space_bar","trial_space_bar_rt","stimulus","trial_stimulus_type","responses","question_order"
"[{""page_index"":0,""viewing_time"":49287.66499999983}]","49287.945000000036","instructions","0","49309","0.0-0.0","SS1604515068403","","","","","","","","","","","","","","","","",""
"[{""page_index"":0,""viewing_time"":2001.909999999043},{""page_index"":1,""viewing_time"":4439.8849999997765},{""page_index"":2,""viewing_time"":2109.5150000001013},{""page_index"":3,""viewing_time"":2372.8399999999965},{""page_index"":4,""viewing_time"":2312.1399999999994},{""page_index"":5,""viewing_time"":3140.755000000354},{""page_index"":6,""viewing_time"":1225.9850000009465},{""page_index"":7,""viewing_time"":1976.0599999990518},{""page_index"":8,""viewing_time"":1481.9850000003498}]","21061.349999999948","instructions","1","70371","0.0-1.0","SS1604515068403","","","","","","","","","","","","","","","","",""
"[{""page_index"":0,""viewing_time"":933.5950000004232},{""page_index"":1,""viewing_time"":6358.319999999367},{""page_index"":2,""viewing_time"":887.8499999991618}]","8180.005000000165","instructions","2","78552","0.0-2.0","SS1604515068403","","","","","","","","","","","","","","","","",""
"","686.1750000007305","practice-block","3","79443","0.0-3.0","SS1604515068403","<img src='images/practice/practice_background.jpeg' width ='500' height = '500' style='border:5px solid black'>","40","null","images/practice/practice_target.jpg","null","null","null","null","","200","886.1750000007305","","","","","",""
"","null","html-keyboard-response","4","80518","0.0-4.0","SS1604515068403","","null","","","","","","","","","","","","<img src=images/blank.png width =""500"" height = ""500"" style=""border:5px solid black"">","","",""
"","160.1749999990716","practice-block","5","80881","0.0-5.0","SS1604515068403","<img src='images/practice/practice_background.jpeg' width ='500' height = '500' style='border:5px solid black'>","40","null","images/practice/practice_target.jpg","null","null","null","null","","200","360.1749999990716","","","","","",""
"","null","html-keyboard-response","6","82100","0.0-6.0","SS1604515068403","","null","","","","","","","","","","","","<img src=images/blank.png width =""500"" height = ""500"" style=""border:5px solid black"">","","",""
"","167.3800000007759","practice-block","7","82473","0.0-7.0","SS1604515068403","<img src='images/practice/practice_deviant.jpeg' width ='500' height = '500' style='border:5px solid black'>","40","null","images/practice/practice_target.jpg","null","null","null","null","","200","367.3800000007759","","","","","",""
"","null","html-keyboard-response","8","83529","0.0-8.0","SS1604515068403","","null","","","","","","","","","","","","<img src=images/blank.png width =""500"" height = ""500"" style=""border:5px solid black"">","","",""
"","1700.8399999995163","practice-block","9","85433","0.0-9.0-0.0","SS1604515068403","<img src='images/practice/practice_target.jpg' width ='500' height = '500' style='border:5px solid black'>","40","null","images/practice/practice_target.jpg","null","null","null","null","","200","1900.8399999995163","yes","124.77499999840802","","","",""
"","null","html-keyboard-response","10","86374","0.0-10.0","SS1604515068403","","null","","","","","","","","","","","","<img src=images/blank.png width =""500"" height = ""500"" style=""border:5px solid black"">","","",""
"","167.44499999913387","practice-block","11","86746","0.0-11.0","SS1604515068403","<img src='images/practice/practice_background.jpeg' width ='500' height = '500' style='border:5px solid black'>","40","null","images/practice/practice_target.jpg","null","null","null","null","","200","367.44499999913387","","","","","",""
"[{""page_index"":0,""viewing_time"":1342}]","1342","task-instructions","12","88089","0.0-12.0","SS1604515068403","","","","","","","","","","","","","","","","",""
"[{""page_index"":0,""viewing_time"":1833.570000000691},{""page_index"":1,""viewing_time"":3430.0100000000384},{""page_index"":2,""viewing_time"":1379.1549999987183}]","6643.029999999271","instructions","13","94733","0.0-13.0","SS1604515068403","","","","","","","","","","","","","","","","",""
"","null","html-keyboard-response","14","96006","0.0-14.0-0.0","SS1604515068403","","null","","","","","","","","","","","","<img src=images/blank.png width =""500"" height = ""500"" style=""border:5px solid black"">","","",""
"","632.3850000007951","stimulus-presentation","15","96842","0.0-14.0-1.0","SS1604515068403","<img src='images/simple/12.png' width ='500' height = '500' style='border:5px solid black'>","40","mixed_simple_deviant","images/complex/8.png","images/complex/14.png","images/simple/2.png,images/simple/18.png,images/simple/5.png,images/simple/9.png,images/simple/15.png,images/simple/16.png,images/simple/12.png","0","null","","200","832.3850000007951","","","","deviant","",""
"","null","html-keyboard-response","16","97868","0.0-14.0-0.1","SS1604515068403","","null","","","","","","","","","","","","<img src=images/blank.png width =""500"" height = ""500"" style=""border:5px solid black"">","","",""
"","474.8799999997573","stimulus-presentation","17","98545","0.0-14.0-1.1","SS1604515068403","<img src='images/complex/14.png' width ='500' height = '500' style='border:5px solid black'>","40","mixed_simple_deviant","images/complex/8.png","images/complex/14.png","images/simple/2.png,images/simple/18.png,images/simple/5.png,images/simple/9.png,images/simple/15.png,images/simple/16.png,images/simple/12.png","0","null","","200","674.8799999997573","","","","background","",""
"","null","html-keyboard-response","18","99386","0.0-14.0-0.2","SS1604515068403","","null","","","","","","","","","","","","<img src=images/blank.png width =""500"" height = ""500"" style=""border:5px solid black"">","","",""
"","187.82000000101107","stimulus-presentation","19","99777","0.0-14.0-1.2","SS1604515068403","<img src='images/complex/14.png' width ='500' height = '500' style='border:5px solid black'>","40","mixed_simple_deviant","images/complex/8.png","images/complex/14.png","images/simple/2.png,images/simple/18.png,images/simple/5.png,images/simple/9.png,images/simple/15.png,images/simple/16.png,images/simple/12.png","0","null","","200","387.82000000101107","","","","background","",""
"","null","html-keyboard-response","20","100974","0.0-14.0-0.3","SS1604515068403","","null","","","","","","","","","","","","<img src=images/blank.png width =""500"" height = ""500"" style=""border:5px solid black"">","","",""
"","119.95500000011816","stimulus-presentation","21","101297","0.0-14.0-1.3","SS1604515068403","<img src='images/complex/14.png' width ='500' height = '500' style='border:5px solid black'>","40","mixed_simple_deviant","images/complex/8.png","images/complex/14.png","images/simple/2.png,images/simple/18.png,images/simple/5.png,images/simple/9.png,images/simple/15.png,images/simple/16.png,images/simple/12.png","0","null","","200","319.95500000011816","","","","background","",""
"","null","html-keyboard-response","22","102333","0.0-14.0-0.4","SS1604515068403","","null","","","","","","","","","","","","<img src=images/blank.png width =""500"" height = ""500"" style=""border:5px solid black"">","","",""
"","95.8150000005844","stimulus-presentation","23","102634","0.0-14.0-1.4","SS1604515068403","<img src='images/complex/14.png' width ='500' height = '500' style='border:5px solid black'>","40","mixed_simple_deviant","images/complex/8.png","images/complex/14.png","images/simple/2.png,images/simple/18.png,images/simple/5.png,images/simple/9.png,images/simple/15.png,images/simple/16.png,images/simple/12.png","0","null","","200","295.8150000005844","","","","background","",""
"","null","html-keyboard-response","24","103850","0.0-14.0-0.5","SS1604515068403","","null","","","","","","","","","","","","<img src=images/blank.png width =""500"" height = ""500"" style=""border:5px solid black"">","","",""
"","133.8049999994837","stimulus-presentation","25","104193","0.0-14.0-1.5","SS1604515068403","<img src='images/complex/14.png' width ='500' height = '500' style='border:5px solid black'>","40","mixed_simple_deviant","images/complex/8.png","images/complex/14.png","images/simple/2.png,images/simple/18.png,images/simple/5.png,images/simple/9.png,images/simple/15.png,images/simple/16.png,images/simple/12.png","0","null","","200","333.8049999994837","","","","background","",""
"","null","html-keyboard-response","26","105003","0.0-14.0-0.6","SS1604515068403","","null","","","","","","","","","","","","<img src=images/blank.png width =""500"" height = ""500"" style=""border:5px solid black"">","","",""
"","138.43500000075437","stimulus-presentation","27","105345","0.0-14.0-1.6","SS1604515068403","<img src='images/complex/14.png' width ='500' height = '500' style='border:5px solid black'>","40","mixed_simple_deviant","images/complex/8.png","images/complex/14.png","images/simple/2.png,images/simple/18.png,images/simple/5.png,images/simple/9.png,images/simple/15.png,images/simple/16.png,images/simple/12.png","0","null","","200","338.43500000075437","","","","background","",""
"","null","html-keyboard-response","28","106575","0.0-14.0-0.7","SS1604515068403","","null","","","","","","","","","","","","<img src=images/blank.png width =""500"" height = ""500"" style=""border:5px solid black"">","","",""
"","104.41999999966356","stimulus-presentation","29","106883","0.0-14.0-1.7","SS1604515068403","<img src='images/complex/14.png' width ='500' height = '500' style='border:5px solid black'>","40","mixed_simple_deviant","images/complex/8.png","images/complex/14.png","images/simple/2.png,images/simple/18.png,images/simple/5.png,images/simple/9.png,images/simple/15.png,images/simple/16.png,images/simple/12.png","0","null","","200","304.41999999966356","","","","background","",""
"","null","html-keyboard-response","30","108067","0.0-14.0-0.8","SS1604515068403","","null","","","","","","","","","","","","<img src=images/blank.png width =""500"" height = ""500"" style=""border:5px solid black"">","","",""
"","107.25499999898602","stimulus-presentation","31","108377","0.0-14.0-1.8","SS1604515068403","<img src='images/complex/14.png' width ='500' height = '500' style='border:5px solid black'>","40","mixed_simple_deviant","images/complex/8.png","images/complex/14.png","images/simple/2.png,images/simple/18.png,images/simple/5.png,images/simple/9.png,images/simple/15.png,images/simple/16.png,images/simple/12.png","0","null","","200","307.254999998986","","","","background","",""
"","null","html-keyboard-response","32","109461","0.0-14.0-0.9","SS1604515068403","","null","","","","","","","","","","","","<img src=images/blank.png width =""500"" height = ""500"" style=""border:5px solid black"">","","",""
"","631.2249999991764","stimulus-presentation","33","110297","0.0-14.0-1.9","SS1604515068403","<img src='images/simple/18.png' width ='500' height = '500' style='border:5px solid black'>","40","mixed_simple_deviant","images/complex/8.png","images/complex/14.png","images/simple/2.png,images/simple/18.png,images/simple/5.png,images/simple/9.png,images/simple/15.png,images/simple/16.png,images/simple/12.png","0","null","","200","831.2249999991764","","","","deviant","",""
"","null","html-keyboard-response","34","111427","0.0-14.0-0.10","SS1604515068403","","null","","","","","","","","","","","","<img src=images/blank.png width =""500"" height = ""500"" style=""border:5px solid black"">","","",""
"","192.26999999955297","stimulus-presentation","35","111825","0.0-14.0-1.10","SS1604515068403","<img src='images/complex/14.png' width ='500' height = '500' style='border:5px solid black'>","40","mixed_simple_deviant","images/complex/8.png","images/complex/14.png","images/simple/2.png,images/simple/18.png,images/simple/5.png,images/simple/9.png,images/simple/15.png,images/simple/16.png,images/simple/12.png","0","null","","200","392.26999999955297","","","","background","",""
"","null","html-keyboard-response","36","112835","0.0-14.0-0.11","SS1604515068403","","null","","","","","","","","","","","","<img src=images/blank.png width =""500"" height = ""500"" style=""border:5px solid black"">","","",""
"","90.79000000019732","stimulus-presentation","37","113130","0.0-14.0-1.11","SS1604515068403","<img src='images/complex/14.png' width ='500' height = '500' style='border:5px solid black'>","40","mixed_simple_deviant","images/complex/8.png","images/complex/14.png","images/simple/2.png,images/simple/18.png,images/simple/5.png,images/simple/9.png,images/simple/15.png,images/simple/16.png,images/simple/12.png","0","null","","200","290.7900000001973","","","","background","",""
"","null","html-keyboard-response","38","114397","0.0-14.0-0.12","SS1604515068403","","null","","","","","","","","","","","","<img src=images/blank.png width =""500"" height = ""500"" style=""border:5px solid black"">","","",""
"","113.81500000061351","stimulus-presentation","39","114714","0.0-14.0-1.12","SS1604515068403","<img src='images/complex/14.png' width ='500' height = '500' style='border:5px solid black'>","40","mixed_simple_deviant","images/complex/8.png","images/complex/14.png","images/simple/2.png,images/simple/18.png,images/simple/5.png,images/simple/9.png,images/simple/15.png,images/simple/16.png,images/simple/12.png","0","null","","200","313.8150000006135","","","","background","",""
"","null","html-keyboard-response","40","115912","0.0-14.0-0.13","SS1604515068403","","null","","","","","","","","","","","","<img src=images/blank.png width =""500"" height = ""500"" style=""border:5px solid black"">","","",""
"","67.80499999877065","stimulus-presentation","41","116185","0.0-14.0-1.13","SS1604515068403","<img src='images/complex/14.png' width ='500' height = '500' style='border:5px solid black'>","40","mixed_simple_deviant","images/complex/8.png","images/complex/14.png","images/simple/2.png,images/simple/18.png,images/simple/5.png,images/simple/9.png,images/simple/15.png,images/simple/16.png,images/simple/12.png","0","null","","200","267.80499999877065","","","","background","",""
"","null","html-keyboard-response","42","117111","0.0-14.0-0.14","SS1604515068403","","null","","","","","","","","","","","","<img src=images/blank.png width =""500"" height = ""500"" style=""border:5px solid black"">","","",""
"","119.62499999935972","stimulus-presentation","43","117434","0.0-14.0-1.14","SS1604515068403","<img src='images/complex/14.png' width ='500' height = '500' style='border:5px solid black'>","40","mixed_simple_deviant","images/complex/8.png","images/complex/14.png","images/simple/2.png,images/simple/18.png,images/simple/5.png,images/simple/9.png,images/simple/15.png,images/simple/16.png,images/simple/12.png","0","null","","200","319.6249999993597","","","","background","",""
"","null","html-keyboard-response","44","118732","0.0-14.0-0.15","SS1604515068403","","null","","","","","","","","","","","","<img src=images/blank.png width =""500"" height = ""500"" style=""border:5px solid black"">","","",""
"","98.16499999942607","stimulus-presentation","45","119034","0.0-14.0-1.15","SS1604515068403","<img src='images/complex/8.png' width ='500' height = '500' style='border:5px solid black'>","40","mixed_simple_deviant","images/complex/8.png","images/complex/14.png","images/simple/2.png,images/simple/18.png,images/simple/5.png,images/simple/9.png,images/simple/15.png,images/simple/16.png,images/simple/12.png","0","null","","200","298.1649999994261","","","","target","",""
"","null","html-keyboard-response","46","119948","0.0-14.0-0.16","SS1604515068403","","null","","","","","","","","","","","","<img src=images/blank.png width =""500"" height = ""500"" style=""border:5px solid black"">","","",""
"","221.5649999998277","stimulus-presentation","47","120377","0.0-14.0-1.16","SS1604515068403","<img src='images/complex/14.png' width ='500' height = '500' style='border:5px solid black'>","40","mixed_simple_deviant","images/complex/8.png","images/complex/14.png","images/simple/2.png,images/simple/18.png,images/simple/5.png,images/simple/9.png,images/simple/15.png,images/simple/16.png,images/simple/12.png","0","null","","200","421.5649999998277","","","","background","",""
"","null","html-keyboard-response","48","121365","0.0-14.0-0.17","SS1604515068403","","null","","","","","","","","","","","","<img src=images/blank.png width =""500"" height = ""500"" style=""border:5px solid black"">","","",""
"","141.95999999901687","stimulus-presentation","49","121713","0.0-14.0-1.17","SS1604515068403","<img src='images/complex/14.png' width ='500' height = '500' style='border:5px solid black'>","40","mixed_simple_deviant","images/complex/8.png","images/complex/14.png","images/simple/2.png,images/simple/18.png,images/simple/5.png,images/simple/9.png,images/simple/15.png,images/simple/16.png,images/simple/12.png","0","null","","200","341.9599999990169","","","","background","",""
"","null","html-keyboard-response","50","122743","0.0-14.0-0.18","SS1604515068403","","null","","","","","","","","","","","","<img src=images/blank.png width =""500"" height = ""500"" style=""border:5px solid black"">","","",""
"","229.69499999999243","stimulus-presentation","51","123186","0.0-14.0-1.18","SS1604515068403","<img src='images/complex/14.png' width ='500' height = '500' style='border:5px solid black'>","40","mixed_simple_deviant","images/complex/8.png","images/complex/14.png","images/simple/2.png,images/simple/18.png,images/simple/5.png,images/simple/9.png,images/simple/15.png,images/simple/16.png,images/simple/12.png","0","null","","200","429.69499999999243","","","","background","",""
"","null","html-keyboard-response","52","124219","0.0-14.0-0.19","SS1604515068403","","null","","","","","","","","","","","","<img src=images/blank.png width =""500"" height = ""500"" style=""border:5px solid black"">","","",""
"","348.74499999932596","stimulus-presentation","53","124769","0.0-14.0-1.19","SS1604515068403","<img src='images/simple/9.png' width ='500' height = '500' style='border:5px solid black'>","40","mixed_simple_deviant","images/complex/8.png","images/complex/14.png","images/simple/2.png,images/simple/18.png,images/simple/5.png,images/simple/9.png,images/simple/15.png,images/simple/16.png,images/simple/12.png","0","null","","200","548.744999999326","","","","deviant","",""
"","null","html-keyboard-response","54","125922","0.0-14.0-0.20","SS1604515068403","","null","","","","","","","","","","","","<img src=images/blank.png width =""500"" height = ""500"" style=""border:5px solid black"">","","",""
"","635.6599999999162","stimulus-presentation","55","126762","0.0-14.0-1.20","SS1604515068403","<img src='images/complex/8.png' width ='500' height = '500' style='border:5px solid black'>","40","mixed_simple_deviant","images/complex/8.png","images/complex/14.png","images/simple/2.png,images/simple/18.png,images/simple/5.png,images/simple/9.png,images/simple/15.png,images/simple/16.png,images/simple/12.png","0","null","","200","835.6599999999162","yes","211.2649999999121","","target","",""
"","null","html-keyboard-response","56","128027","0.0-14.0-0.21","SS1604515068403","","null","","","","","","","","","","","","<img src=images/blank.png width =""500"" height = ""500"" style=""border:5px solid black"">","","",""
"","91.40500000103202","stimulus-presentation","57","128322","0.0-14.0-1.21","SS1604515068403","<img src='images/complex/8.png' width ='500' height = '500' style='border:5px solid black'>","40","mixed_simple_deviant","images/complex/8.png","images/complex/14.png","images/simple/2.png,images/simple/18.png,images/simple/5.png,images/simple/9.png,images/simple/15.png,images/simple/16.png,images/simple/12.png","0","null","","200","291.405000001032","","","","target","",""
"","null","html-keyboard-response","58","129569","0.0-14.0-0.22","SS1604515068403","","null","","","","","","","","","","","","<img src=images/blank.png width =""500"" height = ""500"" style=""border:5px solid black"">","","",""
"","188.33999999880325","stimulus-presentation","59","129962","0.0-14.0-1.22","SS1604515068403","<img src='images/complex/14.png' width ='500' height = '500' style='border:5px solid black'>","40","mixed_simple_deviant","images/complex/8.png","images/complex/14.png","images/simple/2.png,images/simple/18.png,images/simple/5.png,images/simple/9.png,images/simple/15.png,images/simple/16.png,images/simple/12.png","0","null","","200","388.33999999880325","","","","background","",""
"","null","html-keyboard-response","60","131066","0.0-14.0-0.23","SS1604515068403","","null","","","","","","","","","","","","<img src=images/blank.png width =""500"" height = ""500"" style=""border:5px solid black"">","","",""
"","93.01500000036322","stimulus-presentation","61","131362","0.0-14.0-1.23","SS1604515068403","<img src='images/complex/14.png' width ='500' height = '500' style='border:5px solid black'>","40","mixed_simple_deviant","images/complex/8.png","images/complex/14.png","images/simple/2.png,images/simple/18.png,images/simple/5.png,images/simple/9.png,images/simple/15.png,images/simple/16.png,images/simple/12.png","0","null","","200","293.0150000003632","","","","background","",""
"","null","html-keyboard-response","62","132453","0.0-14.0-0.24","SS1604515068403","","null","","","","","","","","","","","","<img src=images/blank.png width =""500"" height = ""500"" style=""border:5px solid black"">","","",""
"","115.85499999998137","stimulus-presentation","63","132778","0.0-14.0-1.24","SS1604515068403","<img src='images/complex/14.png' width ='500' height = '500' style='border:5px solid black'>","40","mixed_simple_deviant","images/complex/8.png","images/complex/14.png","images/simple/2.png,images/simple/18.png,images/simple/5.png,images/simple/9.png,images/simple/15.png,images/simple/16.png,images/simple/12.png","0","null","","200","315.8549999999814","","","","background","",""
"","null","html-keyboard-response","64","133846","0.0-14.0-0.25","SS1604515068403","","null","","","","","","","","","","","","<img src=images/blank.png width =""500"" height = ""500"" style=""border:5px solid black"">","","",""
"","132.7299999993702","stimulus-presentation","65","134187","0.0-14.0-1.25","SS1604515068403","<img src='images/complex/14.png' width ='500' height = '500' style='border:5px solid black'>","40","mixed_simple_deviant","images/complex/8.png","images/complex/14.png","images/simple/2.png,images/simple/18.png,images/simple/5.png,images/simple/9.png,images/simple/15.png,images/simple/16.png,images/simple/12.png","0","null","","200","332.7299999993702","","","","background","",""
"","null","html-keyboard-response","66","135305","0.0-14.0-0.26","SS1604515068403","","null","","","","","","","","","","","","<img src=images/blank.png width =""500"" height = ""500"" style=""border:5px solid black"">","","",""
"","98.60499999922467","stimulus-presentation","67","135611","0.0-14.0-1.26","SS1604515068403","<img src='images/complex/14.png' width ='500' height = '500' style='border:5px solid black'>","40","mixed_simple_deviant","images/complex/8.png","images/complex/14.png","images/simple/2.png,images/simple/18.png,images/simple/5.png,images/simple/9.png,images/simple/15.png,images/simple/16.png,images/simple/12.png","0","null","","200","298.6049999992247","","","","background","",""
"","null","html-keyboard-response","68","136595","0.0-14.0-0.27","SS1604515068403","","null","","","","","","","","","","","","<img src=images/blank.png width =""500"" height = ""500"" style=""border:5px solid black"">","","",""
"","128.71000000089407","stimulus-presentation","69","136929","0.0-14.0-1.27","SS1604515068403","<img src='images/complex/14.png' width ='500' height = '500' style='border:5px solid black'>","40","mixed_simple_deviant","images/complex/8.png","images/complex/14.png","images/simple/2.png,images/simple/18.png,images/simple/5.png,images/simple/9.png,images/simple/15.png,images/simple/16.png,images/simple/12.png","0","null","","200","328.71000000089407","","","","background","",""
"","null","html-keyboard-response","70","138074","0.0-14.0-0.28","SS1604515068403","","null","","","","","","","","","","","","<img src=images/blank.png width =""500"" height = ""500"" style=""border:5px solid black"">","","",""
"","211.49999999944703","stimulus-presentation","71","138490","0.0-14.0-1.28","SS1604515068403","<img src='images/simple/16.png' width ='500' height = '500' style='border:5px solid black'>","40","mixed_simple_deviant","images/complex/8.png","images/complex/14.png","images/simple/2.png,images/simple/18.png,images/simple/5.png,images/simple/9.png,images/simple/15.png,images/simple/16.png,images/simple/12.png","0","null","","200","411.499999999447","","","","deviant","",""
"","null","html-keyboard-response","72","139742","0.0-14.0-0.29","SS1604515068403","","null","","","","","","","","","","","","<img src=images/blank.png width =""500"" height = ""500"" style=""border:5px solid black"">","","",""
"","168.1450000014447","stimulus-presentation","73","140113","0.0-14.0-1.29","SS1604515068403","<img src='images/complex/14.png' width ='500' height = '500' style='border:5px solid black'>","40","mixed_simple_deviant","images/complex/8.png","images/complex/14.png","images/simple/2.png,images/simple/18.png,images/simple/5.png,images/simple/9.png,images/simple/15.png,images/simple/16.png,images/simple/12.png","0","null","","200","368.1450000014447","","","","background","",""
"","null","html-keyboard-response","74","141082","0.0-14.0-0.30","SS1604515068403","","null","","","","","","","","","","","","<img src=images/blank.png width =""500"" height = ""500"" style=""border:5px solid black"">","","",""
"","713.4299999997602","stimulus-presentation","75","142002","0.0-14.0-1.30","SS1604515068403","<img src='images/complex/8.png' width ='500' height = '500' style='border:5px solid black'>","40","mixed_simple_deviant","images/complex/8.png","images/complex/14.png","images/simple/2.png,images/simple/18.png,images/simple/5.png,images/simple/9.png,images/simple/15.png,images/simple/16.png,images/simple/12.png","0","null","","200","913.4299999997602","yes","178.20000000027358","","target","",""
"","null","html-keyboard-response","76","142997","0.0-14.0-0.31","SS1604515068403","","null","","","","","","","","","","","","<img src=images/blank.png width =""500"" height = ""500"" style=""border:5px solid black"">","","",""
"","665.0500000014435","stimulus-presentation","77","143866","0.0-14.0-1.31","SS1604515068403","<img src='images/complex/8.png' width ='500' height = '500' style='border:5px solid black'>","40","mixed_simple_deviant","images/complex/8.png","images/complex/14.png","images/simple/2.png,images/simple/18.png,images/simple/5.png,images/simple/9.png,images/simple/15.png,images/simple/16.png,images/simple/12.png","0","null","","200","865.0500000014435","yes","297.3750000001164","","target","",""
"","null","html-keyboard-response","78","145016","0.0-14.0-0.32","SS1604515068403","","null","","","","","","","","","","","","<img src=images/blank.png width =""500"" height = ""500"" style=""border:5px solid black"">","","",""
"","597.0350000006729","stimulus-presentation","79","145818","0.0-14.0-1.32","SS1604515068403","<img src='images/complex/8.png' width ='500' height = '500' style='border:5px solid black'>","40","mixed_simple_deviant","images/complex/8.png","images/complex/14.png","images/simple/2.png,images/simple/18.png,images/simple/5.png,images/simple/9.png,images/simple/15.png,images/simple/16.png,images/simple/12.png","0","null","","200","797.0350000006729","yes","213.63999999995576","","target","",""
"","null","html-keyboard-response","80","146946","0.0-14.0-0.33","SS1604515068403","","null","","","","","","","","","","","","<img src=images/blank.png width =""500"" height = ""500"" style=""border:5px solid black"">","","",""
"","157.0200000005425","stimulus-presentation","81","147306","0.0-14.0-1.33","SS1604515068403","<img src='images/simple/15.png' width ='500' height = '500' style='border:5px solid black'>","40","mixed_simple_deviant","images/complex/8.png","images/complex/14.png","images/simple/2.png,images/simple/18.png,images/simple/5.png,images/simple/9.png,images/simple/15.png,images/simple/16.png,images/simple/12.png","0","null","","200","357.0200000005425","","","","deviant","",""
"","null","html-keyboard-response","82","148251","0.0-14.0-0.34","SS1604515068403","","null","","","","","","","","","","","","<img src=images/blank.png width =""500"" height = ""500"" style=""border:5px solid black"">","","",""
"","105.1950000000943","stimulus-presentation","83","148562","0.0-14.0-1.34","SS1604515068403","<img src='images/complex/14.png' width ='500' height = '500' style='border:5px solid black'>","40","mixed_simple_deviant","images/complex/8.png","images/complex/14.png","images/simple/2.png,images/simple/18.png,images/simple/5.png,images/simple/9.png,images/simple/15.png,images/simple/16.png,images/simple/12.png","0","null","","200","305.1950000000943","","","","background","",""
"","null","html-keyboard-response","84","149634","0.0-14.0-0.35","SS1604515068403","","null","","","","","","","","","","","","<img src=images/blank.png width =""500"" height = ""500"" style=""border:5px solid black"">","","",""
"","104.27999999956228","stimulus-presentation","85","149947","0.0-14.0-1.35","SS1604515068403","<img src='images/complex/14.png' width ='500' height = '500' style='border:5px solid black'>","40","mixed_simple_deviant","images/complex/8.png","images/complex/14.png","images/simple/2.png,images/simple/18.png,images/simple/5.png,images/simple/9.png,images/simple/15.png,images/simple/16.png,images/simple/12.png","0","null","","200","304.2799999995623","","","","background","",""
"","null","html-keyboard-response","86","150966","0.0-14.0-0.36","SS1604515068403","","null","","","","","","","","","","","","<img src=images/blank.png width =""500"" height = ""500"" style=""border:5px solid black"">","","",""
"","92.93500000057975","stimulus-presentation","87","151266","0.0-14.0-1.36","SS1604515068403","<img src='images/complex/14.png' width ='500' height = '500' style='border:5px solid black'>","40","mixed_simple_deviant","images/complex/8.png","images/complex/14.png","images/simple/2.png,images/simple/18.png,images/simple/5.png,images/simple/9.png,images/simple/15.png,images/simple/16.png,images/simple/12.png","0","null","","200","292.93500000057975","","","","background","",""
"","null","html-keyboard-response","88","152274","0.0-14.0-0.37","SS1604515068403","","null","","","","","","","","","","","","<img src=images/blank.png width =""500"" height = ""500"" style=""border:5px solid black"">","","",""
"","122.44499999907566","stimulus-presentation","89","152618","0.0-14.0-1.37","SS1604515068403","<img src='images/complex/14.png' width ='500' height = '500' style='border:5px solid black'>","40","mixed_simple_deviant","images/complex/8.png","images/complex/14.png","images/simple/2.png,images/simple/18.png,images/simple/5.png,images/simple/9.png,images/simple/15.png,images/simple/16.png,images/simple/12.png","0","null","","200","322.44499999907566","","","","background","",""
"","null","html-keyboard-response","90","153876","0.0-14.0-0.38","SS1604515068403","","null","","","","","","","","","","","","<img src=images/blank.png width =""500"" height = ""500"" style=""border:5px solid black"">","","",""
"","87.7400000008638","stimulus-presentation","91","154171","0.0-14.0-1.38","SS1604515068403","<img src='images/complex/14.png' width ='500' height = '500' style='border:5px solid black'>","40","mixed_simple_deviant","images/complex/8.png","images/complex/14.png","images/simple/2.png,images/simple/18.png,images/simple/5.png,images/simple/9.png,images/simple/15.png,images/simple/16.png,images/simple/12.png","0","null","","200","287.7400000008638","","","","background","",""
"","null","html-keyboard-response","92","155408","0.0-14.0-0.39","SS1604515068403","","null","","","","","","","","","","","","<img src=images/blank.png width =""500"" height = ""500"" style=""border:5px solid black"">","","",""
"","110.03999999957159","stimulus-presentation","93","155722","0.0-14.0-1.39","SS1604515068403","<img src='images/simple/5.png' width ='500' height = '500' style='border:5px solid black'>","40","mixed_simple_deviant","images/complex/8.png","images/complex/14.png","images/simple/2.png,images/simple/18.png,images/simple/5.png,images/simple/9.png,images/simple/15.png,images/simple/16.png,images/simple/12.png","0","null","","200","310.0399999995716","","","","deviant","",""
"","null","html-keyboard-response","94","156943","0.0-14.0-0.40","SS1604515068403","","null","","","","","","","","","","","","<img src=images/blank.png width =""500"" height = ""500"" style=""border:5px solid black"">","","",""
"","84.98499999952037","stimulus-presentation","95","157234","0.0-14.0-1.40","SS1604515068403","<img src='images/complex/14.png' width ='500' height = '500' style='border:5px solid black'>","40","mixed_simple_deviant","images/complex/8.png","images/complex/14.png","images/simple/2.png,images/simple/18.png,images/simple/5.png,images/simple/9.png,images/simple/15.png,images/simple/16.png,images/simple/12.png","0","null","","200","284.98499999952037","","","","background","",""
"","null","html-keyboard-response","96","158532","0.0-14.0-0.41","SS1604515068403","","null","","","","","","","","","","","","<img src=images/blank.png width =""500"" height = ""500"" style=""border:5px solid black"">","","",""
"","58.6050000001851","stimulus-presentation","97","158798","0.0-14.0-1.41","SS1604515068403","<img src='images/complex/14.png' width ='500' height = '500' style='border:5px solid black'>","40","mixed_simple_deviant","images/complex/8.png","images/complex/14.png","images/simple/2.png,images/simple/18.png,images/simple/5.png,images/simple/9.png,images/simple/15.png,images/simple/16.png,images/simple/12.png","0","null","","200","258.6050000001851","","","","background","",""
"","null","html-keyboard-response","98","159923","0.0-14.0-0.42","SS1604515068403","","null","","","","","","","","","","","","<img src=images/blank.png width =""500"" height = ""500"" style=""border:5px solid black"">","","",""
"","115.21500000162632","stimulus-presentation","99","160242","0.0-14.0-1.42","SS1604515068403","<img src='images/complex/14.png' width ='500' height = '500' style='border:5px solid black'>","40","mixed_simple_deviant","images/complex/8.png","images/complex/14.png","images/simple/2.png,images/simple/18.png,images/simple/5.png,images/simple/9.png,images/simple/15.png,images/simple/16.png,images/simple/12.png","0","null","","200","315.2150000016263","","","","background","",""
"","null","html-keyboard-response","100","161474","0.0-14.0-0.43","SS1604515068403","","null","","","","","","","","","","","","<img src=images/blank.png width =""500"" height = ""500"" style=""border:5px solid black"">","","",""
"","126.57500000021537","stimulus-presentation","101","161810","0.0-14.0-1.43","SS1604515068403","<img src='images/complex/14.png' width ='500' height = '500' style='border:5px solid black'>","40","mixed_simple_deviant","images/complex/8.png","images/complex/14.png","images/simple/2.png,images/simple/18.png,images/simple/5.png,images/simple/9.png,images/simple/15.png,images/simple/16.png,images/simple/12.png","0","null","","200","326.57500000021537","","","","background","",""
"","null","html-keyboard-response","102","162986","0.0-14.0-0.44","SS1604515068403","","null","","","","","","","","","","","","<img src=images/blank.png width =""500"" height = ""500"" style=""border:5px solid black"">","","",""
"","299.38500000024214","stimulus-presentation","103","163490","0.0-14.0-1.44","SS1604515068403","<img src='images/simple/2.png' width ='500' height = '500' style='border:5px solid black'>","40","mixed_simple_deviant","images/complex/8.png","images/complex/14.png","images/simple/2.png,images/simple/18.png,images/simple/5.png,images/simple/9.png,images/simple/15.png,images/simple/16.png,images/simple/12.png","0","null","","200","499.38500000024214","","","","deviant","",""
"","null","html-keyboard-response","104","164444","0.0-14.0-0.45","SS1604515068403","","null","","","","","","","","","","","","<img src=images/blank.png width =""500"" height = ""500"" style=""border:5px solid black"">","","",""
"","80.13000000026659","stimulus-presentation","105","164729","0.0-14.0-1.45","SS1604515068403","<img src='images/complex/14.png' width ='500' height = '500' style='border:5px solid black'>","40","mixed_simple_deviant","images/complex/8.png","images/complex/14.png","images/simple/2.png,images/simple/18.png,images/simple/5.png,images/simple/9.png,images/simple/15.png,images/simple/16.png,images/simple/12.png","0","null","","200","280.1300000002666","","","","background","",""
"","null","html-keyboard-response","106","165565","0.0-14.0-0.46","SS1604515068403","","null","","","","","","","","","","","","<img src=images/blank.png width =""500"" height = ""500"" style=""border:5px solid black"">","","",""
"","496.89500000019325","stimulus-presentation","107","166274","0.0-14.0-1.46","SS1604515068403","<img src='images/complex/8.png' width ='500' height = '500' style='border:5px solid black'>","40","mixed_simple_deviant","images/complex/8.png","images/complex/14.png","images/simple/2.png,images/simple/18.png,images/simple/5.png,images/simple/9.png,images/simple/15.png,images/simple/16.png,images/simple/12.png","0","null","","200","696.8950000001932","yes","209.43999999872176","","target","",""
"","null","html-keyboard-response","108","167087","0.0-14.0-0.47","SS1604515068403","","null","","","","","","","","","","","","<img src=images/blank.png width =""500"" height = ""500"" style=""border:5px solid black"">","","",""
"","125.09500000122353","stimulus-presentation","109","167419","0.0-14.0-1.47","SS1604515068403","<img src='images/complex/14.png' width ='500' height = '500' style='border:5px solid black'>","40","mixed_simple_deviant","images/complex/8.png","images/complex/14.png","images/simple/2.png,images/simple/18.png,images/simple/5.png,images/simple/9.png,images/simple/15.png,images/simple/16.png,images/simple/12.png","0","null","","200","325.0950000012235","","","","background","",""
"","null","html-keyboard-response","110","168378","0.0-14.0-0.48","SS1604515068403","","null","","","","","","","","","","","","<img src=images/blank.png width =""500"" height = ""500"" style=""border:5px solid black"">","","",""
"","97.5350000007893","stimulus-presentation","111","168681","0.0-14.0-1.48","SS1604515068403","<img src='images/complex/14.png' width ='500' height = '500' style='border:5px solid black'>","40","mixed_simple_deviant","images/complex/8.png","images/complex/14.png","images/simple/2.png,images/simple/18.png,images/simple/5.png,images/simple/9.png,images/simple/15.png,images/simple/16.png,images/simple/12.png","0","null","","200","297.5350000007893","","","","background","",""
"[{""page_index"":0,""viewing_time"":2052}]","2052","task-instructions","112","170735","0.0-15.0","SS1604515068403","","","","","","","","","","","","","","","","",""
"[{""page_index"":0,""viewing_time"":1464.1650000012305},{""page_index"":1,""viewing_time"":1375.1299999985495},{""page_index"":2,""viewing_time"":1217.135000000766}]","4056.760000001319","instructions","113","174794","0.0-16.0","SS1604515068403","","","","","","","","","","","","","","","","",""
"","null","html-keyboard-response","114","176079","0.0-17.0-0.0","SS1604515068403","","null","","","","","","","","","","","","<img src=images/blank.png width =""500"" height = ""500"" style=""border:5px solid black"">","","",""
"","214.3249999990221","stimulus-presentation","115","176497","0.0-17.0-1.0","SS1604515068403","<img src='images/complex/13.png' width ='500' height = '500' style='border:5px solid black'>","40","all_complex","images/complex/6.png","images/complex/13.png","images/complex/18.png,images/complex/9.png,images/complex/5.png,images/complex/1.png,images/complex/11.png,images/complex/10.png,images/complex/7.png","1","null","","200","414.3249999990221","","","","background","",""
"","null","html-keyboard-response","116","177690","0.0-17.0-0.1","SS1604515068403","","null","","","","","","","","","","","","<img src=images/blank.png width =""500"" height = ""500"" style=""border:5px solid black"">","","",""
"","81.63500000044587","stimulus-presentation","117","177978","0.0-17.0-1.1","SS1604515068403","<img src='images/complex/1.png' width ='500' height = '500' style='border:5px solid black'>","40","all_complex","images/complex/6.png","images/complex/13.png","images/complex/18.png,images/complex/9.png,images/complex/5.png,images/complex/1.png,images/complex/11.png,images/complex/10.png,images/complex/7.png","1","null","","200","281.63500000044587","","","","deviant","",""
"","null","html-keyboard-response","118","178931","0.0-17.0-0.2","SS1604515068403","","null","","","","","","","","","","","","<img src=images/blank.png width =""500"" height = ""500"" style=""border:5px solid black"">","","",""
"","99.52499999964493","stimulus-presentation","119","179234","0.0-17.0-1.2","SS1604515068403","<img src='images/complex/13.png' width ='500' height = '500' style='border:5px solid black'>","40","all_complex","images/complex/6.png","images/complex/13.png","images/complex/18.png,images/complex/9.png,images/complex/5.png,images/complex/1.png,images/complex/11.png,images/complex/10.png,images/complex/7.png","1","null","","200","299.52499999964493","","","","background","",""
"","null","html-keyboard-response","120","180279","0.0-17.0-0.3","SS1604515068403","","null","","","","","","","","","","","","<img src=images/blank.png width =""500"" height = ""500"" style=""border:5px solid black"">","","",""
"","61.719999999710126","stimulus-presentation","121","180545","0.0-17.0-1.3","SS1604515068403","<img src='images/complex/13.png' width ='500' height = '500' style='border:5px solid black'>","40","all_complex","images/complex/6.png","images/complex/13.png","images/complex/18.png,images/complex/9.png,images/complex/5.png,images/complex/1.png,images/complex/11.png,images/complex/10.png,images/complex/7.png","1","null","","200","261.7199999997101","","","","background","",""
"","null","html-keyboard-response","122","181628","0.0-17.0-0.4","SS1604515068403","","null","","","","","","","","","","","","<img src=images/blank.png width =""500"" height = ""500"" style=""border:5px solid black"">","","",""
"","15.955000000743894","stimulus-presentation","123","181859","0.0-17.0-1.4","SS1604515068403","<img src='images/complex/13.png' width ='500' height = '500' style='border:5px solid black'>","40","all_complex","images/complex/6.png","images/complex/13.png","images/complex/18.png,images/complex/9.png,images/complex/5.png,images/complex/1.png,images/complex/11.png,images/complex/10.png,images/complex/7.png","1","null","","200","215.9550000007439","","","","background","",""
"","null","html-keyboard-response","124","182993","0.0-17.0-0.5","SS1604515068403","","null","","","","","","","","","","","","<img src=images/blank.png width =""500"" height = ""500"" style=""border:5px solid black"">","","",""
"","852.3100000002014","stimulus-presentation","125","184050","0.0-17.0-1.5","SS1604515068403","<img src='images/complex/6.png' width ='500' height = '500' style='border:5px solid black'>","40","all_complex","images/complex/6.png","images/complex/13.png","images/complex/18.png,images/complex/9.png,images/complex/5.png,images/complex/1.png,images/complex/11.png,images/complex/10.png,images/complex/7.png","1","null","","200","1052.3100000002014","yes","196.61000000085915","","target","",""
"","null","html-keyboard-response","126","185037","0.0-17.0-0.6","SS1604515068403","","null","","","","","","","","","","","","<img src=images/blank.png width =""500"" height = ""500"" style=""border:5px solid black"">","","",""
"","128.56999999895925","stimulus-presentation","127","185370","0.0-17.0-1.6","SS1604515068403","<img src='images/complex/10.png' width ='500' height = '500' style='border:5px solid black'>","40","all_complex","images/complex/6.png","images/complex/13.png","images/complex/18.png,images/complex/9.png,images/complex/5.png,images/complex/1.png,images/complex/11.png,images/complex/10.png,images/complex/7.png","1","null","","200","328.56999999895925","","","","deviant","",""
"","null","html-keyboard-response","128","186349","0.0-17.0-0.7","SS1604515068403","","null","","","","","","","","","","","","<img src=images/blank.png width =""500"" height = ""500"" style=""border:5px solid black"">","","",""
"","62.149999999732245","stimulus-presentation","129","186617","0.0-17.0-1.7","SS1604515068403","<img src='images/complex/13.png' width ='500' height = '500' style='border:5px solid black'>","40","all_complex","images/complex/6.png","images/complex/13.png","images/complex/18.png,images/complex/9.png,images/complex/5.png,images/complex/1.png,images/complex/11.png,images/complex/10.png,images/complex/7.png","1","null","","200","262.14999999973224","","","","background","",""
"","null","html-keyboard-response","130","187872","0.0-17.0-0.8","SS1604515068403","","null","","","","","","","","","","","","<img src=images/blank.png width =""500"" height = ""500"" style=""border:5px solid black"">","","",""
"","68.32500000018626","stimulus-presentation","131","188147","0.0-17.0-1.8","SS1604515068403","<img src='images/complex/13.png' width ='500' height = '500' style='border:5px solid black'>","40","all_complex","images/complex/6.png","images/complex/13.png","images/complex/18.png,images/complex/9.png,images/complex/5.png,images/complex/1.png,images/complex/11.png,images/complex/10.png,images/complex/7.png","1","null","","200","268.32500000018626","","","","background","",""
"","null","html-keyboard-response","132","189071","0.0-17.0-0.9","SS1604515068403","","null","","","","","","","","","","","","<img src=images/blank.png width =""500"" height = ""500"" style=""border:5px solid black"">","","",""
"","95.38500000053318","stimulus-presentation","133","189370","0.0-17.0-1.9","SS1604515068403","<img src='images/complex/13.png' width ='500' height = '500' style='border:5px solid black'>","40","all_complex","images/complex/6.png","images/complex/13.png","images/complex/18.png,images/complex/9.png,images/complex/5.png,images/complex/1.png,images/complex/11.png,images/complex/10.png,images/complex/7.png","1","null","","200","295.3850000005332","","","","background","",""
"","null","html-keyboard-response","134","190544","0.0-17.0-0.10","SS1604515068403","","null","","","","","","","","","","","","<img src=images/blank.png width =""500"" height = ""500"" style=""border:5px solid black"">","","",""
"","29.429999998712447","stimulus-presentation","135","190777","0.0-17.0-1.10","SS1604515068403","<img src='images/complex/6.png' width ='500' height = '500' style='border:5px solid black'>","40","all_complex","images/complex/6.png","images/complex/13.png","images/complex/18.png,images/complex/9.png,images/complex/5.png,images/complex/1.png,images/complex/11.png,images/complex/10.png,images/complex/7.png","1","null","","200","229.42999999871245","","","","target","",""
"","null","html-keyboard-response","136","191781","0.0-17.0-0.11","SS1604515068403","","null","","","","","","","","","","","","<img src=images/blank.png width =""500"" height = ""500"" style=""border:5px solid black"">","","",""
"","200.2250000005006","stimulus-presentation","137","192190","0.0-17.0-1.11","SS1604515068403","<img src='images/complex/13.png' width ='500' height = '500' style='border:5px solid black'>","40","all_complex","images/complex/6.png","images/complex/13.png","images/complex/18.png,images/complex/9.png,images/complex/5.png,images/complex/1.png,images/complex/11.png,images/complex/10.png,images/complex/7.png","1","null","","200","400.2250000005006","","","","background","",""
"","null","html-keyboard-response","138","193489","0.0-17.0-0.12","SS1604515068403","","null","","","","","","","","","","","","<img src=images/blank.png width =""500"" height = ""500"" style=""border:5px solid black"">","","",""
"","92.05500000098255","stimulus-presentation","139","193787","0.0-17.0-1.12","SS1604515068403","<img src='images/complex/7.png' width ='500' height = '500' style='border:5px solid black'>","40","all_complex","images/complex/6.png","images/complex/13.png","images/complex/18.png,images/complex/9.png,images/complex/5.png,images/complex/1.png,images/complex/11.png,images/complex/10.png,images/complex/7.png","1","null","","200","292.05500000098255","","","","deviant","",""
"","null","html-keyboard-response","140","194764","0.0-17.0-0.13","SS1604515068403","","null","","","","","","","","","","","","<img src=images/blank.png width =""500"" height = ""500"" style=""border:5px solid black"">","","",""
"","114.0199999990873","stimulus-presentation","141","195082","0.0-17.0-1.13","SS1604515068403","<img src='images/complex/13.png' width ='500' height = '500' style='border:5px solid black'>","40","all_complex","images/complex/6.png","images/complex/13.png","images/complex/18.png,images/complex/9.png,images/complex/5.png,images/complex/1.png,images/complex/11.png,images/complex/10.png,images/complex/7.png","1","null","","200","314.0199999990873","","","","background","",""
"","null","html-keyboard-response","142","196286","0.0-17.0-0.14","SS1604515068403","","null","","","","","","","","","","","","<img src=images/blank.png width =""500"" height = ""500"" style=""border:5px solid black"">","","",""
"","128.18500000139466","stimulus-presentation","143","196626","0.0-17.0-1.14","SS1604515068403","<img src='images/complex/13.png' width ='500' height = '500' style='border:5px solid black'>","40","all_complex","images/complex/6.png","images/complex/13.png","images/complex/18.png,images/complex/9.png,images/complex/5.png,images/complex/1.png,images/complex/11.png,images/complex/10.png,images/complex/7.png","1","null","","200","328.18500000139466","","","","background","",""
"","null","html-keyboard-response","144","197705","0.0-17.0-0.15","SS1604515068403","","null","","","","","","","","","","","","<img src=images/blank.png width =""500"" height = ""500"" style=""border:5px solid black"">","","",""
"","123.69000000035157","stimulus-presentation","145","198034","0.0-17.0-1.15","SS1604515068403","<img src='images/complex/13.png' width ='500' height = '500' style='border:5px solid black'>","40","all_complex","images/complex/6.png","images/complex/13.png","images/complex/18.png,images/complex/9.png,images/complex/5.png,images/complex/1.png,images/complex/11.png,images/complex/10.png,images/complex/7.png","1","null","","200","323.6900000003516","","","","background","",""
"","null","html-keyboard-response","146","198899","0.0-17.0-0.16","SS1604515068403","","null","","","","","","","","","","","","<img src=images/blank.png width =""500"" height = ""500"" style=""border:5px solid black"">","","",""
"","154.4650000014517","stimulus-presentation","147","199258","0.0-17.0-1.16","SS1604515068403","<img src='images/complex/13.png' width ='500' height = '500' style='border:5px solid black'>","40","all_complex","images/complex/6.png","images/complex/13.png","images/complex/18.png,images/complex/9.png,images/complex/5.png,images/complex/1.png,images/complex/11.png,images/complex/10.png,images/complex/7.png","1","null","","200","354.4650000014517","","","","background","",""
"","null","html-keyboard-response","148","200129","0.0-17.0-0.17","SS1604515068403","","null","","","","","","","","","","","","<img src=images/blank.png width =""500"" height = ""500"" style=""border:5px solid black"">","","",""
"","107.62499999874854","stimulus-presentation","149","200441","0.0-17.0-1.17","SS1604515068403","<img src='images/complex/13.png' width ='500' height = '500' style='border:5px solid black'>","40","all_complex","images/complex/6.png","images/complex/13.png","images/complex/18.png,images/complex/9.png,images/complex/5.png,images/complex/1.png,images/complex/11.png,images/complex/10.png,images/complex/7.png","1","null","","200","307.62499999874854","","","","background","",""
"","null","html-keyboard-response","150","201294","0.0-17.0-0.18","SS1604515068403","","null","","","","","","","","","","","","<img src=images/blank.png width =""500"" height = ""500"" style=""border:5px solid black"">","","",""
"","94.13499999936903","stimulus-presentation","151","201593","0.0-17.0-1.18","SS1604515068403","<img src='images/complex/13.png' width ='500' height = '500' style='border:5px solid black'>","40","all_complex","images/complex/6.png","images/complex/13.png","images/complex/18.png,images/complex/9.png,images/complex/5.png,images/complex/1.png,images/complex/11.png,images/complex/10.png,images/complex/7.png","1","null","","200","294.13499999936903","","","","background","",""
"","null","html-keyboard-response","152","202537","0.0-17.0-0.19","SS1604515068403","","null","","","","","","","","","","","","<img src=images/blank.png width =""500"" height = ""500"" style=""border:5px solid black"">","","",""
"","197.51499999983935","stimulus-presentation","153","202938","0.0-17.0-1.19","SS1604515068403","<img src='images/complex/13.png' width ='500' height = '500' style='border:5px solid black'>","40","all_complex","images/complex/6.png","images/complex/13.png","images/complex/18.png,images/complex/9.png,images/complex/5.png,images/complex/1.png,images/complex/11.png,images/complex/10.png,images/complex/7.png","1","null","","200","397.51499999983935","","","","background","",""
"","null","html-keyboard-response","154","203820","0.0-17.0-0.20","SS1604515068403","","null","","","","","","","","","","","","<img src=images/blank.png width =""500"" height = ""500"" style=""border:5px solid black"">","","",""
"","441.96999999985565","stimulus-presentation","155","204466","0.0-17.0-1.20","SS1604515068403","<img src='images/complex/6.png' width ='500' height = '500' style='border:5px solid black'>","40","all_complex","images/complex/6.png","images/complex/13.png","images/complex/18.png,images/complex/9.png,images/complex/5.png,images/complex/1.png,images/complex/11.png,images/complex/10.png,images/complex/7.png","1","null","","200","641.9699999998556","yes","177.12500000014552","","target","",""
"","null","html-keyboard-response","156","205409","0.0-17.0-0.21","SS1604515068403","","null","","","","","","","","","","","","<img src=images/blank.png width =""500"" height = ""500"" style=""border:5px solid black"">","","",""
"","434.61000000021886","stimulus-presentation","157","206050","0.0-17.0-1.21","SS1604515068403","<img src='images/complex/9.png' width ='500' height = '500' style='border:5px solid black'>","40","all_complex","images/complex/6.png","images/complex/13.png","images/complex/18.png,images/complex/9.png,images/complex/5.png,images/complex/1.png,images/complex/11.png,images/complex/10.png,images/complex/7.png","1","null","","200","634.6100000002189","","","","deviant","",""
"","null","html-keyboard-response","158","207134","0.0-17.0-0.22","SS1604515068403","","null","","","","","","","","","","","","<img src=images/blank.png width =""500"" height = ""500"" style=""border:5px solid black"">","","",""
"","72.28500000020722","stimulus-presentation","159","207409","0.0-17.0-1.22","SS1604515068403","<img src='images/complex/13.png' width ='500' height = '500' style='border:5px solid black'>","40","all_complex","images/complex/6.png","images/complex/13.png","images/complex/18.png,images/complex/9.png,images/complex/5.png,images/complex/1.png,images/complex/11.png,images/complex/10.png,images/complex/7.png","1","null","","200","272.2850000002072","","","","background","",""
"","null","html-keyboard-response","160","208540","0.0-17.0-0.23","SS1604515068403","","null","","","","","","","","","","","","<img src=images/blank.png width =""500"" height = ""500"" style=""border:5px solid black"">","","",""
"","418.8350000003993","stimulus-presentation","161","209162","0.0-17.0-1.23","SS1604515068403","<img src='images/complex/13.png' width ='500' height = '500' style='border:5px solid black'>","40","all_complex","images/complex/6.png","images/complex/13.png","images/complex/18.png,images/complex/9.png,images/complex/5.png,images/complex/1.png,images/complex/11.png,images/complex/10.png,images/complex/7.png","1","null","","200","618.8350000003993","","","","background","",""
"","null","html-keyboard-response","162","210450","0.0-17.0-0.24","SS1604515068403","","null","","","","","","","","","","","","<img src=images/blank.png width =""500"" height = ""500"" style=""border:5px solid black"">","","",""
"","79.52999999903841","stimulus-presentation","163","210737","0.0-17.0-1.24","SS1604515068403","<img src='images/complex/13.png' width ='500' height = '500' style='border:5px solid black'>","40","all_complex","images/complex/6.png","images/complex/13.png","images/complex/18.png,images/complex/9.png,images/complex/5.png,images/complex/1.png,images/complex/11.png,images/complex/10.png,images/complex/7.png","1","null","","200","279.5299999990384","","","","background","",""
"","null","html-keyboard-response","164","211772","0.0-17.0-0.25","SS1604515068403","","null","","","","","","","","","","","","<img src=images/blank.png width =""500"" height = ""500"" style=""border:5px solid black"">","","",""
"","81.65999999982887","stimulus-presentation","165","212057","0.0-17.0-1.25","SS1604515068403","<img src='images/complex/13.png' width ='500' height = '500' style='border:5px solid black'>","40","all_complex","images/complex/6.png","images/complex/13.png","images/complex/18.png,images/complex/9.png,images/complex/5.png,images/complex/1.png,images/complex/11.png,images/complex/10.png,images/complex/7.png","1","null","","200","281.65999999982887","","","","background","",""
"","null","html-keyboard-response","166","213158","0.0-17.0-0.26","SS1604515068403","","null","","","","","","","","","","","","<img src=images/blank.png width =""500"" height = ""500"" style=""border:5px solid black"">","","",""
"","6.814999998809071","stimulus-presentation","167","213372","0.0-17.0-1.26","SS1604515068403","<img src='images/complex/13.png' width ='500' height = '500' style='border:5px solid black'>","40","all_complex","images/complex/6.png","images/complex/13.png","images/complex/18.png,images/complex/9.png,images/complex/5.png,images/complex/1.png,images/complex/11.png,images/complex/10.png,images/complex/7.png","1","null","","200","206.81499999880907","","","","background","",""
"","null","html-keyboard-response","168","214238","0.0-17.0-0.27","SS1604515068403","","null","","","","","","","","","","","","<img src=images/blank.png width =""500"" height = ""500"" style=""border:5px solid black"">","","",""
"","100.46499999950174","stimulus-presentation","169","214547","0.0-17.0-1.27","SS1604515068403","<img src='images/complex/11.png' width ='500' height = '500' style='border:5px solid black'>","40","all_complex","images/complex/6.png","images/complex/13.png","images/complex/18.png,images/complex/9.png,images/complex/5.png,images/complex/1.png,images/complex/11.png,images/complex/10.png,images/complex/7.png","1","null","","200","300.46499999950174","","","","deviant","",""
"","null","html-keyboard-response","170","215788","0.0-17.0-0.28","SS1604515068403","","null","","","","","","","","","","","","<img src=images/blank.png width =""500"" height = ""500"" style=""border:5px solid black"">","","",""
"","645.0850000001083","stimulus-presentation","171","216642","0.0-17.0-1.28","SS1604515068403","<img src='images/complex/6.png' width ='500' height = '500' style='border:5px solid black'>","40","all_complex","images/complex/6.png","images/complex/13.png","images/complex/18.png,images/complex/9.png,images/complex/5.png,images/complex/1.png,images/complex/11.png,images/complex/10.png,images/complex/7.png","1","null","","200","845.0850000001083","yes","246.03000000023167","","target","",""
"","null","html-keyboard-response","172","217681","0.0-17.0-0.29","SS1604515068403","","null","","","","","","","","","","","","<img src=images/blank.png width =""500"" height = ""500"" style=""border:5px solid black"">","","",""
"","342.19500000111293","stimulus-presentation","173","218234","0.0-17.0-1.29","SS1604515068403","<img src='images/complex/13.png' width ='500' height = '500' style='border:5px solid black'>","40","all_complex","images/complex/6.png","images/complex/13.png","images/complex/18.png,images/complex/9.png,images/complex/5.png,images/complex/1.png,images/complex/11.png,images/complex/10.png,images/complex/7.png","1","null","","200","542.1950000011129","","","","background","",""
"","null","html-keyboard-response","174","219103","0.0-17.0-0.30","SS1604515068403","","null","","","","","","","","","","","","<img src=images/blank.png width =""500"" height = ""500"" style=""border:5px solid black"">","","",""
"","71.67000000117696","stimulus-presentation","175","219387","0.0-17.0-1.30","SS1604515068403","<img src='images/complex/13.png' width ='500' height = '500' style='border:5px solid black'>","40","all_complex","images/complex/6.png","images/complex/13.png","images/complex/18.png,images/complex/9.png,images/complex/5.png,images/complex/1.png,images/complex/11.png,images/complex/10.png,images/complex/7.png","1","null","","200","271.67000000117696","","","","background","",""
"","null","html-keyboard-response","176","220274","0.0-17.0-0.31","SS1604515068403","","null","","","","","","","","","","","","<img src=images/blank.png width =""500"" height = ""500"" style=""border:5px solid black"">","","",""
"","43.28499999974156","stimulus-presentation","177","220522","0.0-17.0-1.31","SS1604515068403","<img src='images/complex/13.png' width ='500' height = '500' style='border:5px solid black'>","40","all_complex","images/complex/6.png","images/complex/13.png","images/complex/18.png,images/complex/9.png,images/complex/5.png,images/complex/1.png,images/complex/11.png,images/complex/10.png,images/complex/7.png","1","null","","200","243.28499999974156","","","","background","",""
"","null","html-keyboard-response","178","221358","0.0-17.0-0.32","SS1604515068403","","null","","","","","","","","","","","","<img src=images/blank.png width =""500"" height = ""500"" style=""border:5px solid black"">","","",""
"","47.24499999973341","stimulus-presentation","179","221609","0.0-17.0-1.32","SS1604515068403","<img src='images/complex/13.png' width ='500' height = '500' style='border:5px solid black'>","40","all_complex","images/complex/6.png","images/complex/13.png","images/complex/18.png,images/complex/9.png,images/complex/5.png,images/complex/1.png,images/complex/11.png,images/complex/10.png,images/complex/7.png","1","null","","200","247.2449999997334","","","","background","",""
"","null","html-keyboard-response","180","222472","0.0-17.0-0.33","SS1604515068403","","null","","","","","","","","","","","","<img src=images/blank.png width =""500"" height = ""500"" style=""border:5px solid black"">","","",""
"","56.67999999967287","stimulus-presentation","181","222737","0.0-17.0-1.33","SS1604515068403","<img src='images/complex/13.png' width ='500' height = '500' style='border:5px solid black'>","40","all_complex","images/complex/6.png","images/complex/13.png","images/complex/18.png,images/complex/9.png,images/complex/5.png,images/complex/1.png,images/complex/11.png,images/complex/10.png,images/complex/7.png","1","null","","200","256.6799999996729","","","","background","",""
"","null","html-keyboard-response","182","223720","0.0-17.0-0.34","SS1604515068403","","null","","","","","","","","","","","","<img src=images/blank.png width =""500"" height = ""500"" style=""border:5px solid black"">","","",""
"","61.53500000073109","stimulus-presentation","183","223987","0.0-17.0-1.34","SS1604515068403","<img src='images/complex/18.png' width ='500' height = '500' style='border:5px solid black'>","40","all_complex","images/complex/6.png","images/complex/13.png","images/complex/18.png,images/complex/9.png,images/complex/5.png,images/complex/1.png,images/complex/11.png,images/complex/10.png,images/complex/7.png","1","null","","200","261.5350000007311","","","","deviant","",""
"","null","html-keyboard-response","184","225248","0.0-17.0-0.35","SS1604515068403","","null","","","","","","","","","","","","<img src=images/blank.png width =""500"" height = ""500"" style=""border:5px solid black"">","","",""
"","0.18500000078347512","stimulus-presentation","185","225458","0.0-17.0-1.35","SS1604515068403","<img src='images/complex/13.png' width ='500' height = '500' style='border:5px solid black'>","40","all_complex","images/complex/6.png","images/complex/13.png","images/complex/18.png,images/complex/9.png,images/complex/5.png,images/complex/1.png,images/complex/11.png,images/complex/10.png,images/complex/7.png","1","null","","200","200.18500000078348","","","","background","",""
"","null","html-keyboard-response","186","226491","0.0-17.0-0.36","SS1604515068403","","null","","","","","","","","","","","","<img src=images/blank.png width =""500"" height = ""500"" style=""border:5px solid black"">","","",""
"","121.72999999893364","stimulus-presentation","187","226817","0.0-17.0-1.36","SS1604515068403","<img src='images/complex/13.png' width ='500' height = '500' style='border:5px solid black'>","40","all_complex","images/complex/6.png","images/complex/13.png","images/complex/18.png,images/complex/9.png,images/complex/5.png,images/complex/1.png,images/complex/11.png,images/complex/10.png,images/complex/7.png","1","null","","200","321.72999999893364","","","","background","",""
"","null","html-keyboard-response","188","227727","0.0-17.0-0.37","SS1604515068403","","null","","","","","","","","","","","","<img src=images/blank.png width =""500"" height = ""500"" style=""border:5px solid black"">","","",""
"","60.02499999885913","stimulus-presentation","189","227994","0.0-17.0-1.37","SS1604515068403","<img src='images/complex/5.png' width ='500' height = '500' style='border:5px solid black'>","40","all_complex","images/complex/6.png","images/complex/13.png","images/complex/18.png,images/complex/9.png,images/complex/5.png,images/complex/1.png,images/complex/11.png,images/complex/10.png,images/complex/7.png","1","null","","200","260.02499999885913","","","","deviant","",""
"","null","html-keyboard-response","190","229108","0.0-17.0-0.38","SS1604515068403","","null","","","","","","","","","","","","<img src=images/blank.png width =""500"" height = ""500"" style=""border:5px solid black"">","","",""
"","97.72000000157277","stimulus-presentation","191","229410","0.0-17.0-1.38","SS1604515068403","<img src='images/complex/13.png' width ='500' height = '500' style='border:5px solid black'>","40","all_complex","images/complex/6.png","images/complex/13.png","images/complex/18.png,images/complex/9.png,images/complex/5.png,images/complex/1.png,images/complex/11.png,images/complex/10.png,images/complex/7.png","1","null","","200","297.72000000157277","","","","background","",""
"","null","html-keyboard-response","192","230309","0.0-17.0-0.39","SS1604515068403","","null","","","","","","","","","","","","<img src=images/blank.png width =""500"" height = ""500"" style=""border:5px solid black"">","","",""
"","618.2050000006857","stimulus-presentation","193","231138","0.0-17.0-1.39","SS1604515068403","<img src='images/complex/6.png' width ='500' height = '500' style='border:5px solid black'>","40","all_complex","images/complex/6.png","images/complex/13.png","images/complex/18.png,images/complex/9.png,images/complex/5.png,images/complex/1.png,images/complex/11.png,images/complex/10.png,images/complex/7.png","1","null","","200","818.2050000006857","yes","209.8550000009709","","target","",""
"","null","html-keyboard-response","194","232158","0.0-17.0-0.40","SS1604515068403","","null","","","","","","","","","","","","<img src=images/blank.png width =""500"" height = ""500"" style=""border:5px solid black"">","","",""
"","241.1300000003539","stimulus-presentation","195","232610","0.0-17.0-1.40","SS1604515068403","<img src='images/complex/13.png' width ='500' height = '500' style='border:5px solid black'>","40","all_complex","images/complex/6.png","images/complex/13.png","images/complex/18.png,images/complex/9.png,images/complex/5.png,images/complex/1.png,images/complex/11.png,images/complex/10.png,images/complex/7.png","1","null","","200","441.1300000003539","","","","background","",""
"","null","html-keyboard-response","196","233858","0.0-17.0-0.41","SS1604515068403","","null","","","","","","","","","","","","<img src=images/blank.png width =""500"" height = ""500"" style=""border:5px solid black"">","","",""
"","636.0699999986391","stimulus-presentation","197","234706","0.0-17.0-1.41","SS1604515068403","<img src='images/complex/13.png' width ='500' height = '500' style='border:5px solid black'>","40","all_complex","images/complex/6.png","images/complex/13.png","images/complex/18.png,images/complex/9.png,images/complex/5.png,images/complex/1.png,images/complex/11.png,images/complex/10.png,images/complex/7.png","1","null","","200","836.0699999986391","","","","background","",""
"","null","html-keyboard-response","198","235701","0.0-17.0-0.42","SS1604515068403","","null","","","","","","","","","","","","<img src=images/blank.png width =""500"" height = ""500"" style=""border:5px solid black"">","","",""
"","61.10499999887543","stimulus-presentation","199","235971","0.0-17.0-1.42","SS1604515068403","<img src='images/complex/13.png' width ='500' height = '500' style='border:5px solid black'>","40","all_complex","images/complex/6.png","images/complex/13.png","images/complex/18.png,images/complex/9.png,images/complex/5.png,images/complex/1.png,images/complex/11.png,images/complex/10.png,images/complex/7.png","1","null","","200","261.1049999988754","","","","background","",""
"","null","html-keyboard-response","200","237054","0.0-17.0-0.43","SS1604515068403","","null","","","","","","","","","","","","<img src=images/blank.png width =""500"" height = ""500"" style=""border:5px solid black"">","","",""
"","1335.8950000001932","stimulus-presentation","201","238594","0.0-17.0-1.43","SS1604515068403","<img src='images/complex/6.png' width ='500' height = '500' style='border:5px solid black'>","40","all_complex","images/complex/6.png","images/complex/13.png","images/complex/18.png,images/complex/9.png,images/complex/5.png,images/complex/1.png,images/complex/11.png,images/complex/10.png,images/complex/7.png","1","null","","200","1535.8950000001932","yes","672.6699999999255","","target","",""
"","null","html-keyboard-response","202","239767","0.0-17.0-0.44","SS1604515068403","","null","","","","","","","","","","","","<img src=images/blank.png width =""500"" height = ""500"" style=""border:5px solid black"">","","",""
"","26.674999999144347","stimulus-presentation","203","240010","0.0-17.0-1.44","SS1604515068403","<img src='images/complex/13.png' width ='500' height = '500' style='border:5px solid black'>","40","all_complex","images/complex/6.png","images/complex/13.png","images/complex/18.png,images/complex/9.png,images/complex/5.png,images/complex/1.png,images/complex/11.png,images/complex/10.png,images/complex/7.png","1","null","","200","226.67499999914435","","","","background","",""
"","null","html-keyboard-response","204","241023","0.0-17.0-0.45","SS1604515068403","","null","","","","","","","","","","","","<img src=images/blank.png width =""500"" height = ""500"" style=""border:5px solid black"">","","",""
"","175.97999999998137","stimulus-presentation","205","241403","0.0-17.0-1.45","SS1604515068403","<img src='images/complex/13.png' width ='500' height = '500' style='border:5px solid black'>","40","all_complex","images/complex/6.png","images/complex/13.png","images/complex/18.png,images/complex/9.png,images/complex/5.png,images/complex/1.png,images/complex/11.png,images/complex/10.png,images/complex/7.png","1","null","","200","375.9799999999814","","","","background","",""
"","null","html-keyboard-response","206","242248","0.0-17.0-0.46","SS1604515068403","","null","","","","","","","","","","","","<img src=images/blank.png width =""500"" height = ""500"" style=""border:5px solid black"">","","",""
"","363.02500000057626","stimulus-presentation","207","242818","0.0-17.0-1.46","SS1604515068403","<img src='images/complex/13.png' width ='500' height = '500' style='border:5px solid black'>","40","all_complex","images/complex/6.png","images/complex/13.png","images/complex/18.png,images/complex/9.png,images/complex/5.png,images/complex/1.png,images/complex/11.png,images/complex/10.png,images/complex/7.png","1","null","","200","563.0250000005763","","","","background","",""
"","null","html-keyboard-response","208","243917","0.0-17.0-0.47","SS1604515068403","","null","","","","","","","","","","","","<img src=images/blank.png width =""500"" height = ""500"" style=""border:5px solid black"">","","",""
"","254.84500000128173","stimulus-presentation","209","244386","0.0-17.0-1.47","SS1604515068403","<img src='images/complex/13.png' width ='500' height = '500' style='border:5px solid black'>","40","all_complex","images/complex/6.png","images/complex/13.png","images/complex/18.png,images/complex/9.png,images/complex/5.png,images/complex/1.png,images/complex/11.png,images/complex/10.png,images/complex/7.png","1","null","","200","454.84500000128173","","","","background","",""
"","null","html-keyboard-response","210","245338","0.0-17.0-0.48","SS1604515068403","","null","","","","","","","","","","","","<img src=images/blank.png width =""500"" height = ""500"" style=""border:5px solid black"">","","",""
"","630.2450000002864","stimulus-presentation","211","246178","0.0-17.0-1.48","SS1604515068403","<img src='images/complex/6.png' width ='500' height = '500' style='border:5px solid black'>","40","all_complex","images/complex/6.png","images/complex/13.png","images/complex/18.png,images/complex/9.png,images/complex/5.png,images/complex/1.png,images/complex/11.png,images/complex/10.png,images/complex/7.png","1","null","","200","830.2450000002864","yes","295.71500000020023","","target","",""
"[{""page_index"":0,""viewing_time"":1607}]","1607","task-instructions","212","247788","0.0-18.0","SS1604515068403","","","","","","","","","","","","","","","","",""
"[{""page_index"":0,""viewing_time"":759.1199999988021},{""page_index"":1,""viewing_time"":1187.3850000010862},{""page_index"":2,""viewing_time"":825.9999999990978}]","2772.7199999990116","instructions","213","250564","0.0-19.0","SS1604515068403","","","","","","","","","","","","","","","","",""
"","null","html-keyboard-response","214","251864","0.0-20.0-0.0","SS1604515068403","","null","","","","","","","","","","","","<img src=images/blank.png width =""500"" height = ""500"" style=""border:5px solid black"">","","",""
"","91.11000000120839","stimulus-presentation","215","252162","0.0-20.0-1.0","SS1604515068403","<img src='images/simple/13.png' width ='500' height = '500' style='border:5px solid black'>","40","mixed_complex_deviant","images/simple/1.png","images/simple/13.png","images/complex/4.png,images/complex/15.png,images/complex/2.png,images/complex/16.png,images/complex/12.png,images/complex/17.png,images/complex/3.png","2","null","","200","291.1100000012084","","","","background","",""
"","null","html-keyboard-response","216","253403","0.0-20.0-0.1","SS1604515068403","","null","","","","","","","","","","","","<img src=images/blank.png width =""500"" height = ""500"" style=""border:5px solid black"">","","",""
"","79.21499999976368","stimulus-presentation","217","253690","0.0-20.0-1.1","SS1604515068403","<img src='images/complex/4.png' width ='500' height = '500' style='border:5px solid black'>","40","mixed_complex_deviant","images/simple/1.png","images/simple/13.png","images/complex/4.png,images/complex/15.png,images/complex/2.png,images/complex/16.png,images/complex/12.png,images/complex/17.png,images/complex/3.png","2","null","","200","279.2149999997637","","","","deviant","",""
"","null","html-keyboard-response","218","254584","0.0-20.0-0.2","SS1604515068403","","null","","","","","","","","","","","","<img src=images/blank.png width =""500"" height = ""500"" style=""border:5px solid black"">","","",""
"","238.0699999994249","stimulus-presentation","219","255027","0.0-20.0-1.2","SS1604515068403","<img src='images/simple/13.png' width ='500' height = '500' style='border:5px solid black'>","40","mixed_complex_deviant","images/simple/1.png","images/simple/13.png","images/complex/4.png,images/complex/15.png,images/complex/2.png,images/complex/16.png,images/complex/12.png,images/complex/17.png,images/complex/3.png","2","null","","200","438.0699999994249","","","","background","",""
"","null","html-keyboard-response","220","256047","0.0-20.0-0.3","SS1604515068403","","null","","","","","","","","","","","","<img src=images/blank.png width =""500"" height = ""500"" style=""border:5px solid black"">","","",""
"","120.56500000107917","stimulus-presentation","221","256381","0.0-20.0-1.3","SS1604515068403","<img src='images/simple/13.png' width ='500' height = '500' style='border:5px solid black'>","40","mixed_complex_deviant","images/simple/1.png","images/simple/13.png","images/complex/4.png,images/complex/15.png,images/complex/2.png,images/complex/16.png,images/complex/12.png,images/complex/17.png,images/complex/3.png","2","null","","200","320.56500000107917","","","","background","",""
"","null","html-keyboard-response","222","257678","0.0-20.0-0.4","SS1604515068403","","null","","","","","","","","","","","","<img src=images/blank.png width =""500"" height = ""500"" style=""border:5px solid black"">","","",""
"","928.1200000005192","stimulus-presentation","223","258818","0.0-20.0-1.4","SS1604515068403","<img src='images/simple/1.png' width ='500' height = '500' style='border:5px solid black'>","40","mixed_complex_deviant","images/simple/1.png","images/simple/13.png","images/complex/4.png,images/complex/15.png,images/complex/2.png,images/complex/16.png,images/complex/12.png,images/complex/17.png,images/complex/3.png","2","null","","200","1128.1200000005192","yes","608.540000001085","","target","",""
"","null","html-keyboard-response","224","259907","0.0-20.0-0.5","SS1604515068403","","null","","","","","","","","","","","","<img src=images/blank.png width =""500"" height = ""500"" style=""border:5px solid black"">","","",""
"","154.25499999945168","stimulus-presentation","225","260275","0.0-20.0-1.5","SS1604515068403","<img src='images/simple/13.png' width ='500' height = '500' style='border:5px solid black'>","40","mixed_complex_deviant","images/simple/1.png","images/simple/13.png","images/complex/4.png,images/complex/15.png,images/complex/2.png,images/complex/16.png,images/complex/12.png,images/complex/17.png,images/complex/3.png","2","null","","200","354.2549999994517","","","","background","",""
"","null","html-keyboard-response","226","261506","0.0-20.0-0.6","SS1604515068403","","null","","","","","","","","","","","","<img src=images/blank.png width =""500"" height = ""500"" style=""border:5px solid black"">","","",""
"","41.94499999907566","stimulus-presentation","227","261762","0.0-20.0-1.6","SS1604515068403","<img src='images/complex/2.png' width ='500' height = '500' style='border:5px solid black'>","40","mixed_complex_deviant","images/simple/1.png","images/simple/13.png","images/complex/4.png,images/complex/15.png,images/complex/2.png,images/complex/16.png,images/complex/12.png,images/complex/17.png,images/complex/3.png","2","null","","200","241.94499999907566","","","","deviant","",""
"","null","html-keyboard-response","228","262819","0.0-20.0-0.7","SS1604515068403","","null","","","","","","","","","","","","<img src=images/blank.png width =""500"" height = ""500"" style=""border:5px solid black"">","","",""
"","74.67999999976018","stimulus-presentation","229","263098","0.0-20.0-1.7","SS1604515068403","<img src='images/simple/13.png' width ='500' height = '500' style='border:5px solid black'>","40","mixed_complex_deviant","images/simple/1.png","images/simple/13.png","images/complex/4.png,images/complex/15.png,images/complex/2.png,images/complex/16.png,images/complex/12.png,images/complex/17.png,images/complex/3.png","2","null","","200","274.6799999997602","","","","background","",""
"","null","html-keyboard-response","230","264333","0.0-20.0-0.8","SS1604515068403","","null","","","","","","","","","","","","<img src=images/blank.png width =""500"" height = ""500"" style=""border:5px solid black"">","","",""
"","329.719999999681","stimulus-presentation","231","264874","0.0-20.0-1.8","SS1604515068403","<img src='images/simple/13.png' width ='500' height = '500' style='border:5px solid black'>","40","mixed_complex_deviant","images/simple/1.png","images/simple/13.png","images/complex/4.png,images/complex/15.png,images/complex/2.png,images/complex/16.png,images/complex/12.png,images/complex/17.png,images/complex/3.png","2","null","","200","529.719999999681","","","","background","",""
"","null","html-keyboard-response","232","265695","0.0-20.0-0.9","SS1604515068403","","null","","","","","","","","","","","","<img src=images/blank.png width =""500"" height = ""500"" style=""border:5px solid black"">","","",""
"","109.18499999935739","stimulus-presentation","233","266019","0.0-20.0-1.9","SS1604515068403","<img src='images/simple/13.png' width ='500' height = '500' style='border:5px solid black'>","40","mixed_complex_deviant","images/simple/1.png","images/simple/13.png","images/complex/4.png,images/complex/15.png,images/complex/2.png,images/complex/16.png,images/complex/12.png,images/complex/17.png,images/complex/3.png","2","null","","200","309.1849999993574","","","","background","",""
"","null","html-keyboard-response","234","267160","0.0-20.0-0.10","SS1604515068403","","null","","","","","","","","","","","","<img src=images/blank.png width =""500"" height = ""500"" style=""border:5px solid black"">","","",""
"","39.515000000363216","stimulus-presentation","235","267405","0.0-20.0-1.10","SS1604515068403","<img src='images/simple/13.png' width ='500' height = '500' style='border:5px solid black'>","40","mixed_complex_deviant","images/simple/1.png","images/simple/13.png","images/complex/4.png,images/complex/15.png,images/complex/2.png,images/complex/16.png,images/complex/12.png,images/complex/17.png,images/complex/3.png","2","null","","200","239.51500000036322","","","","background","",""
"","null","html-keyboard-response","236","268704","0.0-20.0-0.11","SS1604515068403","","null","","","","","","","","","","","","<img src=images/blank.png width =""500"" height = ""500"" style=""border:5px solid black"">","","",""
"","63.3750000015134","stimulus-presentation","237","268978","0.0-20.0-1.11","SS1604515068403","<img src='images/complex/12.png' width ='500' height = '500' style='border:5px solid black'>","40","mixed_complex_deviant","images/simple/1.png","images/simple/13.png","images/complex/4.png,images/complex/15.png,images/complex/2.png,images/complex/16.png,images/complex/12.png,images/complex/17.png,images/complex/3.png","2","null","","200","263.3750000015134","","","","deviant","",""
"","null","html-keyboard-response","238","270097","0.0-20.0-0.12","SS1604515068403","","null","","","","","","","","","","","","<img src=images/blank.png width =""500"" height = ""500"" style=""border:5px solid black"">","","",""
"","98.25000000093132","stimulus-presentation","239","270403","0.0-20.0-1.12","SS1604515068403","<img src='images/simple/13.png' width ='500' height = '500' style='border:5px solid black'>","40","mixed_complex_deviant","images/simple/1.png","images/simple/13.png","images/complex/4.png,images/complex/15.png,images/complex/2.png,images/complex/16.png,images/complex/12.png,images/complex/17.png,images/complex/3.png","2","null","","200","298.2500000009313","","","","background","",""
"","null","html-keyboard-response","240","271596","0.0-20.0-0.13","SS1604515068403","","null","","","","","","","","","","","","<img src=images/blank.png width =""500"" height = ""500"" style=""border:5px solid black"">","","",""
"","104.67000000062399","stimulus-presentation","241","271915","0.0-20.0-1.13","SS1604515068403","<img src='images/simple/13.png' width ='500' height = '500' style='border:5px solid black'>","40","mixed_complex_deviant","images/simple/1.png","images/simple/13.png","images/complex/4.png,images/complex/15.png,images/complex/2.png,images/complex/16.png,images/complex/12.png,images/complex/17.png,images/complex/3.png","2","null","","200","304.670000000624","","","","background","",""
"","null","html-keyboard-response","242","273124","0.0-20.0-0.14","SS1604515068403","","null","","","","","","","","","","","","<img src=images/blank.png width =""500"" height = ""500"" style=""border:5px solid black"">","","",""
"","49.90000000002328","stimulus-presentation","243","273378","0.0-20.0-1.14","SS1604515068403","<img src='images/simple/13.png' width ='500' height = '500' style='border:5px solid black'>","40","mixed_complex_deviant","images/simple/1.png","images/simple/13.png","images/complex/4.png,images/complex/15.png,images/complex/2.png,images/complex/16.png,images/complex/12.png,images/complex/17.png,images/complex/3.png","2","null","","200","249.90000000002328","","","","background","",""
"","null","html-keyboard-response","244","274303","0.0-20.0-0.15","SS1604515068403","","null","","","","","","","","","","","","<img src=images/blank.png width =""500"" height = ""500"" style=""border:5px solid black"">","","",""
"","768.9300000001676","stimulus-presentation","245","275290","0.0-20.0-1.15","SS1604515068403","<img src='images/simple/1.png' width ='500' height = '500' style='border:5px solid black'>","40","mixed_complex_deviant","images/simple/1.png","images/simple/13.png","images/complex/4.png,images/complex/15.png,images/complex/2.png,images/complex/16.png,images/complex/12.png,images/complex/17.png,images/complex/3.png","2","null","","200","968.9300000001676","yes","225.0650000005262","","target","",""
"","null","html-keyboard-response","246","276353","0.0-20.0-0.16","SS1604515068403","","null","","","","","","","","","","","","<img src=images/blank.png width =""500"" height = ""500"" style=""border:5px solid black"">","","",""
"","122.61500000022352","stimulus-presentation","247","276692","0.0-20.0-1.16","SS1604515068403","<img src='images/simple/13.png' width ='500' height = '500' style='border:5px solid black'>","40","mixed_complex_deviant","images/simple/1.png","images/simple/13.png","images/complex/4.png,images/complex/15.png,images/complex/2.png,images/complex/16.png,images/complex/12.png,images/complex/17.png,images/complex/3.png","2","null","","200","322.6150000002235","","","","background","",""
"","null","html-keyboard-response","248","277716","0.0-20.0-0.17","SS1604515068403","","null","","","","","","","","","","","","<img src=images/blank.png width =""500"" height = ""500"" style=""border:5px solid black"">","","",""
"","193.4849999998114","stimulus-presentation","249","278122","0.0-20.0-1.17","SS1604515068403","<img src='images/simple/13.png' width ='500' height = '500' style='border:5px solid black'>","40","mixed_complex_deviant","images/simple/1.png","images/simple/13.png","images/complex/4.png,images/complex/15.png,images/complex/2.png,images/complex/16.png,images/complex/12.png,images/complex/17.png,images/complex/3.png","2","null","","200","393.4849999998114","","","","background","",""
"","null","html-keyboard-response","250","278941","0.0-20.0-0.18","SS1604515068403","","null","","","","","","","","","","","","<img src=images/blank.png width =""500"" height = ""500"" style=""border:5px solid black"">","","",""
"","78.06999999959953","stimulus-presentation","251","279226","0.0-20.0-1.18","SS1604515068403","<img src='images/simple/1.png' width ='500' height = '500' style='border:5px solid black'>","40","mixed_complex_deviant","images/simple/1.png","images/simple/13.png","images/complex/4.png,images/complex/15.png,images/complex/2.png,images/complex/16.png,images/complex/12.png,images/complex/17.png,images/complex/3.png","2","null","","200","278.06999999959953","","","","target","",""
"","null","html-keyboard-response","252","280499","0.0-20.0-0.19","SS1604515068403","","null","","","","","","","","","","","","<img src=images/blank.png width =""500"" height = ""500"" style=""border:5px solid black"">","","",""
"","649.4000000002561","stimulus-presentation","253","281362","0.0-20.0-1.19","SS1604515068403","<img src='images/simple/1.png' width ='500' height = '500' style='border:5px solid black'>","40","mixed_complex_deviant","images/simple/1.png","images/simple/13.png","images/complex/4.png,images/complex/15.png,images/complex/2.png,images/complex/16.png,images/complex/12.png,images/complex/17.png,images/complex/3.png","2","null","","200","849.4000000002561","yes","273.44000000087544","","target","",""
"","null","html-keyboard-response","254","282464","0.0-20.0-0.20","SS1604515068403","","null","","","","","","","","","","","","<img src=images/blank.png width =""500"" height = ""500"" style=""border:5px solid black"">","","",""
"","85.02500000031432","stimulus-presentation","255","282762","0.0-20.0-1.20","SS1604515068403","<img src='images/simple/13.png' width ='500' height = '500' style='border:5px solid black'>","40","mixed_complex_deviant","images/simple/1.png","images/simple/13.png","images/complex/4.png,images/complex/15.png,images/complex/2.png,images/complex/16.png,images/complex/12.png,images/complex/17.png,images/complex/3.png","2","null","","200","285.0250000003143","","","","background","",""
"","null","html-keyboard-response","256","283745","0.0-20.0-0.21","SS1604515068403","","null","","","","","","","","","","","","<img src=images/blank.png width =""500"" height = ""500"" style=""border:5px solid black"">","","",""
"","101.1699999999255","stimulus-presentation","257","284050","0.0-20.0-1.21","SS1604515068403","<img src='images/simple/13.png' width ='500' height = '500' style='border:5px solid black'>","40","mixed_complex_deviant","images/simple/1.png","images/simple/13.png","images/complex/4.png,images/complex/15.png,images/complex/2.png,images/complex/16.png,images/complex/12.png,images/complex/17.png,images/complex/3.png","2","null","","200","301.1699999999255","","","","background","",""
"","null","html-keyboard-response","258","285051","0.0-20.0-0.22","SS1604515068403","","null","","","","","","","","","","","","<img src=images/blank.png width =""500"" height = ""500"" style=""border:5px solid black"">","","",""
"","91.06000000063796","stimulus-presentation","259","285346","0.0-20.0-1.22","SS1604515068403","<img src='images/complex/15.png' width ='500' height = '500' style='border:5px solid black'>","40","mixed_complex_deviant","images/simple/1.png","images/simple/13.png","images/complex/4.png,images/complex/15.png,images/complex/2.png,images/complex/16.png,images/complex/12.png,images/complex/17.png,images/complex/3.png","2","null","","200","291.06000000063796","","","","deviant","",""
"","null","html-keyboard-response","260","286450","0.0-20.0-0.23","SS1604515068403","","null","","","","","","","","","","","","<img src=images/blank.png width =""500"" height = ""500"" style=""border:5px solid black"">","","",""
"","278.17999999935273","stimulus-presentation","261","286938","0.0-20.0-1.23","SS1604515068403","<img src='images/simple/13.png' width ='500' height = '500' style='border:5px solid black'>","40","mixed_complex_deviant","images/simple/1.png","images/simple/13.png","images/complex/4.png,images/complex/15.png,images/complex/2.png,images/complex/16.png,images/complex/12.png,images/complex/17.png,images/complex/3.png","2","null","","200","478.17999999935273","","","","background","",""
"","null","html-keyboard-response","262","288119","0.0-20.0-0.24","SS1604515068403","","null","","","","","","","","","","","","<img src=images/blank.png width =""500"" height = ""500"" style=""border:5px solid black"">","","",""
"","33.530000000610016","stimulus-presentation","263","288357","0.0-20.0-1.24","SS1604515068403","<img src='images/simple/13.png' width ='500' height = '500' style='border:5px solid black'>","40","mixed_complex_deviant","images/simple/1.png","images/simple/13.png","images/complex/4.png,images/complex/15.png,images/complex/2.png,images/complex/16.png,images/complex/12.png,images/complex/17.png,images/complex/3.png","2","null","","200","233.53000000061002","","","","background","",""
"","null","html-keyboard-response","264","289559","0.0-20.0-0.25","SS1604515068403","","null","","","","","","","","","","","","<img src=images/blank.png width =""500"" height = ""500"" style=""border:5px solid black"">","","",""
"","214.4899999984773","stimulus-presentation","265","289987","0.0-20.0-1.25","SS1604515068403","<img src='images/simple/13.png' width ='500' height = '500' style='border:5px solid black'>","40","mixed_complex_deviant","images/simple/1.png","images/simple/13.png","images/complex/4.png,images/complex/15.png,images/complex/2.png,images/complex/16.png,images/complex/12.png,images/complex/17.png,images/complex/3.png","2","null","","200","414.4899999984773","","","","background","",""
"","null","html-keyboard-response","266","290909","0.0-20.0-0.26","SS1604515068403","","null","","","","","","","","","","","","<img src=images/blank.png width =""500"" height = ""500"" style=""border:5px solid black"">","","",""
"","737.0200000004843","stimulus-presentation","267","291851","0.0-20.0-1.26","SS1604515068403","<img src='images/simple/1.png' width ='500' height = '500' style='border:5px solid black'>","40","mixed_complex_deviant","images/simple/1.png","images/simple/13.png","images/complex/4.png,images/complex/15.png,images/complex/2.png,images/complex/16.png,images/complex/12.png,images/complex/17.png,images/complex/3.png","2","null","","200","937.0200000004843","yes","257.3849999990198","","target","",""
"","null","html-keyboard-response","268","292961","0.0-20.0-0.27","SS1604515068403","","null","","","","","","","","","","","","<img src=images/blank.png width =""500"" height = ""500"" style=""border:5px solid black"">","","",""
"","155.49499999906402","stimulus-presentation","269","293322","0.0-20.0-1.27","SS1604515068403","<img src='images/simple/13.png' width ='500' height = '500' style='border:5px solid black'>","40","mixed_complex_deviant","images/simple/1.png","images/simple/13.png","images/complex/4.png,images/complex/15.png,images/complex/2.png,images/complex/16.png,images/complex/12.png,images/complex/17.png,images/complex/3.png","2","null","","200","355.494999999064","","","","background","",""
"","null","html-keyboard-response","270","294245","0.0-20.0-0.28","SS1604515068403","","null","","","","","","","","","","","","<img src=images/blank.png width =""500"" height = ""500"" style=""border:5px solid black"">","","",""
"","283.7799999997951","stimulus-presentation","271","294738","0.0-20.0-1.28","SS1604515068403","<img src='images/simple/13.png' width ='500' height = '500' style='border:5px solid black'>","40","mixed_complex_deviant","images/simple/1.png","images/simple/13.png","images/complex/4.png,images/complex/15.png,images/complex/2.png,images/complex/16.png,images/complex/12.png,images/complex/17.png,images/complex/3.png","2","null","","200","483.7799999997951","","","","background","",""
"","null","html-keyboard-response","272","295793","0.0-20.0-0.29","SS1604515068403","","null","","","","","","","","","","","","<img src=images/blank.png width =""500"" height = ""500"" style=""border:5px solid black"">","","",""
"","111.59000000043306","stimulus-presentation","273","296122","0.0-20.0-1.29","SS1604515068403","<img src='images/complex/3.png' width ='500' height = '500' style='border:5px solid black'>","40","mixed_complex_deviant","images/simple/1.png","images/simple/13.png","images/complex/4.png,images/complex/15.png,images/complex/2.png,images/complex/16.png,images/complex/12.png,images/complex/17.png,images/complex/3.png","2","null","","200","311.59000000043306","","","","deviant","",""
"","null","html-keyboard-response","274","297091","0.0-20.0-0.30","SS1604515068403","","null","","","","","","","","","","","","<img src=images/blank.png width =""500"" height = ""500"" style=""border:5px solid black"">","","",""
"","202.05499999976018","stimulus-presentation","275","297498","0.0-20.0-1.30","SS1604515068403","<img src='images/simple/13.png' width ='500' height = '500' style='border:5px solid black'>","40","mixed_complex_deviant","images/simple/1.png","images/simple/13.png","images/complex/4.png,images/complex/15.png,images/complex/2.png,images/complex/16.png,images/complex/12.png,images/complex/17.png,images/complex/3.png","2","null","","200","402.0549999997602","","","","background","",""
"","null","html-keyboard-response","276","298788","0.0-20.0-0.31","SS1604515068403","","null","","","","","","","","","","","","<img src=images/blank.png width =""500"" height = ""500"" style=""border:5px solid black"">","","",""
"","186.42999999976018","stimulus-presentation","277","299181","0.0-20.0-1.31","SS1604515068403","<img src='images/simple/13.png' width ='500' height = '500' style='border:5px solid black'>","40","mixed_complex_deviant","images/simple/1.png","images/simple/13.png","images/complex/4.png,images/complex/15.png,images/complex/2.png,images/complex/16.png,images/complex/12.png,images/complex/17.png,images/complex/3.png","2","null","","200","386.4299999997602","","","","background","",""
"","null","html-keyboard-response","278","300425","0.0-20.0-0.32","SS1604515068403","","null","","","","","","","","","","","","<img src=images/blank.png width =""500"" height = ""500"" style=""border:5px solid black"">","","",""
"","98.75499999907333","stimulus-presentation","279","300739","0.0-20.0-1.32","SS1604515068403","<img src='images/simple/13.png' width ='500' height = '500' style='border:5px solid black'>","40","mixed_complex_deviant","images/simple/1.png","images/simple/13.png","images/complex/4.png,images/complex/15.png,images/complex/2.png,images/complex/16.png,images/complex/12.png,images/complex/17.png,images/complex/3.png","2","null","","200","298.75499999907333","","","","background","",""
"","null","html-keyboard-response","280","302037","0.0-20.0-0.33","SS1604515068403","","null","","","","","","","","","","","","<img src=images/blank.png width =""500"" height = ""500"" style=""border:5px solid black"">","","",""
"","80.28499999997439","stimulus-presentation","281","302330","0.0-20.0-1.33","SS1604515068403","<img src='images/simple/13.png' width ='500' height = '500' style='border:5px solid black'>","40","mixed_complex_deviant","images/simple/1.png","images/simple/13.png","images/complex/4.png,images/complex/15.png,images/complex/2.png,images/complex/16.png,images/complex/12.png,images/complex/17.png,images/complex/3.png","2","null","","200","280.2849999999744","","","","background","",""
"","null","html-keyboard-response","282","303566","0.0-20.0-0.34","SS1604515068403","","null","","","","","","","","","","","","<img src=images/blank.png width =""500"" height = ""500"" style=""border:5px solid black"">","","",""
