"view_history","rt","trial_type","trial_index","time_elapsed","internal_node_id","subject","trial_stimulus","key_press","task_type","task_target_stimulus","task_background_stimulus","task_deviant_stimuli","task_order_number","block_order_number","trial_order_number","minimum_viewing_duration","trial_looking_time","trial_pressed_space_bar","trial_space_bar_rt","stimulus","trial_stimulus_type","responses","question_order"
"[{""page_index"":0,""viewing_time"":3938.8849999995728}]","3939.2100000004575","instructions","0","3956","0.0-0.0","SS1604513235675","","","","","","","","","","","","","","","","",""
"[{""page_index"":0,""viewing_time"":6926.859999999579},{""page_index"":1,""viewing_time"":4168.935000001511},{""page_index"":2,""viewing_time"":1818.2850000011967},{""page_index"":3,""viewing_time"":8091.764999997395},{""page_index"":4,""viewing_time"":187173.09999999998},{""page_index"":5,""viewing_time"":1086.910000001808},{""page_index"":6,""viewing_time"":892.0250000010128},{""page_index"":7,""viewing_time"":487.1999999995751},{""page_index"":8,""viewing_time"":502.88000000000466}]","211148.20500000133","instructions","1","215105","0.0-1.0","SS1604513235675","","","","","","","","","","","","","","","","",""
"[{""page_index"":0,""viewing_time"":5197.8500000004715},{""page_index"":1,""viewing_time"":9624.925000000076},{""page_index"":2,""viewing_time"":1234.08500000005}]","16057.079999998678","instructions","2","231163","0.0-2.0","SS1604513235675","","","","","","","","","","","","","","","","",""
"","1133.9100000004692","practice-block","3","232500","0.0-3.0","SS1604513235675","<img src='images/practice/practice_background.jpeg' width ='500' height = '500' style='border:5px solid black'>","40","null","images/practice/practice_target.jpg","null","null","null","null","","200","1333.9100000004692","","","","","",""
"","null","html-keyboard-response","4","233718","0.0-4.0","SS1604513235675","","null","","","","","","","","","","","","<img src=images/blank.png width =""500"" height = ""500"" style=""border:5px solid black"">","","",""
"","5953.935000001366","practice-block","5","239875","0.0-5.0","SS1604513235675","<img src='images/practice/practice_background.jpeg' width ='500' height = '500' style='border:5px solid black'>","40","null","images/practice/practice_target.jpg","null","null","null","null","","200","6153.935000001366","yes","1136.96500000151","","","",""
"","null","html-keyboard-response","6","240750","0.0-6.0","SS1604513235675","","null","","","","","","","","","","","","<img src=images/blank.png width =""500"" height = ""500"" style=""border:5px solid black"">","","",""
"","4596.835000000283","practice-block","7","245549","0.0-7.0","SS1604513235675","<img src='images/practice/practice_deviant.jpeg' width ='500' height = '500' style='border:5px solid black'>","40","null","images/practice/practice_target.jpg","null","null","null","null","","200","4796.835000000283","yes","3214.830000000802","","","",""
"","null","html-keyboard-response","8","246531","0.0-8.0","SS1604513235675","","null","","","","","","","","","","","","<img src=images/blank.png width =""500"" height = ""500"" style=""border:5px solid black"">","","",""
"","2905.9650000017427","practice-block","9","249639","0.0-9.0-0.0","SS1604513235675","<img src='images/practice/practice_target.jpg' width ='500' height = '500' style='border:5px solid black'>","40","null","images/practice/practice_target.jpg","null","null","null","null","","200","3105.9650000017427","yes","1616.2550000008196","","","",""
"","null","html-keyboard-response","10","250582","0.0-10.0","SS1604513235675","","null","","","","","","","","","","","","<img src=images/blank.png width =""500"" height = ""500"" style=""border:5px solid black"">","","",""
"","121.68500000188942","practice-block","11","250905","0.0-11.0","SS1604513235675","<img src='images/practice/practice_background.jpeg' width ='500' height = '500' style='border:5px solid black'>","40","null","images/practice/practice_target.jpg","null","null","null","null","","200","321.6850000018894","","","","","",""
"[{""page_index"":0,""viewing_time"":2255}]","2255","task-instructions","12","253161","0.0-12.0","SS1604513235675","","","","","","","","","","","","","","","","",""
"[{""page_index"":0,""viewing_time"":1822.8799999997136},{""page_index"":1,""viewing_time"":2166.8849999987287},{""page_index"":2,""viewing_time"":952.8649999992922}]","4942.879999998695","instructions","13","258105","0.0-13.0","SS1604513235675","","","","","","","","","","","","","","","","",""
"","null","html-keyboard-response","14","259243","0.0-14.0-0.0","SS1604513235675","","null","","","","","","","","","","","","<img src=images/blank.png width =""500"" height = ""500"" style=""border:5px solid black"">","","",""
"","176.98500000187778","stimulus-presentation","15","259622","0.0-14.0-1.0","SS1604513235675","<img src='images/complex/1.png' width ='500' height = '500' style='border:5px solid black'>","40","mixed_complex_deviant","images/simple/11.png","images/simple/4.png","images/complex/1.png,images/complex/8.png,images/complex/14.png,images/complex/15.png,images/complex/13.png,images/complex/12.png,images/complex/4.png","0","null","","200","376.9850000018778","","","","deviant","",""
"","null","html-keyboard-response","16","260762","0.0-14.0-0.1","SS1604513235675","","null","","","","","","","","","","","","<img src=images/blank.png width =""500"" height = ""500"" style=""border:5px solid black"">","","",""
"","711.7350000007427","stimulus-presentation","17","261675","0.0-14.0-1.1","SS1604513235675","<img src='images/simple/4.png' width ='500' height = '500' style='border:5px solid black'>","40","mixed_complex_deviant","images/simple/11.png","images/simple/4.png","images/complex/1.png,images/complex/8.png,images/complex/14.png,images/complex/15.png,images/complex/13.png,images/complex/12.png,images/complex/4.png","0","null","","200","911.7350000007427","","","","background","",""
"","null","html-keyboard-response","18","262493","0.0-14.0-0.2","SS1604513235675","","null","","","","","","","","","","","","<img src=images/blank.png width =""500"" height = ""500"" style=""border:5px solid black"">","","",""
"","6174.575000000943","stimulus-presentation","19","268871","0.0-14.0-1.2","SS1604513235675","<img src='images/simple/11.png' width ='500' height = '500' style='border:5px solid black'>","40","mixed_complex_deviant","images/simple/11.png","images/simple/4.png","images/complex/1.png,images/complex/8.png,images/complex/14.png,images/complex/15.png,images/complex/13.png,images/complex/12.png,images/complex/4.png","0","null","","200","6374.575000000943","yes","458.5299999998533","","target","",""
"","null","html-keyboard-response","20","269946","0.0-14.0-0.3","SS1604513235675","","null","","","","","","","","","","","","<img src=images/blank.png width =""500"" height = ""500"" style=""border:5px solid black"">","","",""
"","287.8899999995483","stimulus-presentation","21","270436","0.0-14.0-1.3","SS1604513235675","<img src='images/simple/4.png' width ='500' height = '500' style='border:5px solid black'>","40","mixed_complex_deviant","images/simple/11.png","images/simple/4.png","images/complex/1.png,images/complex/8.png,images/complex/14.png,images/complex/15.png,images/complex/13.png,images/complex/12.png,images/complex/4.png","0","null","","200","487.8899999995483","","","","background","",""
"","null","html-keyboard-response","22","271550","0.0-14.0-0.4","SS1604513235675","","null","","","","","","","","","","","","<img src=images/blank.png width =""500"" height = ""500"" style=""border:5px solid black"">","","",""
"","86.63499999966007","stimulus-presentation","23","271839","0.0-14.0-1.4","SS1604513235675","<img src='images/complex/13.png' width ='500' height = '500' style='border:5px solid black'>","40","mixed_complex_deviant","images/simple/11.png","images/simple/4.png","images/complex/1.png,images/complex/8.png,images/complex/14.png,images/complex/15.png,images/complex/13.png,images/complex/12.png,images/complex/4.png","0","null","","200","286.63499999966007","","","","deviant","",""
"","null","html-keyboard-response","24","272696","0.0-14.0-0.5","SS1604513235675","","null","","","","","","","","","","","","<img src=images/blank.png width =""500"" height = ""500"" style=""border:5px solid black"">","","",""
"","134.6799999991781","stimulus-presentation","25","273033","0.0-14.0-1.5","SS1604513235675","<img src='images/simple/4.png' width ='500' height = '500' style='border:5px solid black'>","40","mixed_complex_deviant","images/simple/11.png","images/simple/4.png","images/complex/1.png,images/complex/8.png,images/complex/14.png,images/complex/15.png,images/complex/13.png,images/complex/12.png,images/complex/4.png","0","null","","200","334.6799999991781","","","","background","",""
"","null","html-keyboard-response","26","274031","0.0-14.0-0.6","SS1604513235675","","null","","","","","","","","","","","","<img src=images/blank.png width =""500"" height = ""500"" style=""border:5px solid black"">","","",""
"","77.71999999752734","stimulus-presentation","27","274311","0.0-14.0-1.6","SS1604513235675","<img src='images/simple/4.png' width ='500' height = '500' style='border:5px solid black'>","40","mixed_complex_deviant","images/simple/11.png","images/simple/4.png","images/complex/1.png,images/complex/8.png,images/complex/14.png,images/complex/15.png,images/complex/13.png,images/complex/12.png,images/complex/4.png","0","null","","200","277.71999999752734","","","","background","",""
"","null","html-keyboard-response","28","275132","0.0-14.0-0.7","SS1604513235675","","null","","","","","","","","","","","","<img src=images/blank.png width =""500"" height = ""500"" style=""border:5px solid black"">","","",""
"","68.38000000058673","stimulus-presentation","29","275403","0.0-14.0-1.7","SS1604513235675","<img src='images/simple/4.png' width ='500' height = '500' style='border:5px solid black'>","40","mixed_complex_deviant","images/simple/11.png","images/simple/4.png","images/complex/1.png,images/complex/8.png,images/complex/14.png,images/complex/15.png,images/complex/13.png,images/complex/12.png,images/complex/4.png","0","null","","200","268.38000000058673","","","","background","",""
"","null","html-keyboard-response","30","276449","0.0-14.0-0.8","SS1604513235675","","null","","","","","","","","","","","","<img src=images/blank.png width =""500"" height = ""500"" style=""border:5px solid black"">","","",""
"","79.61000000068452","stimulus-presentation","31","276731","0.0-14.0-1.8","SS1604513235675","<img src='images/simple/4.png' width ='500' height = '500' style='border:5px solid black'>","40","mixed_complex_deviant","images/simple/11.png","images/simple/4.png","images/complex/1.png,images/complex/8.png,images/complex/14.png,images/complex/15.png,images/complex/13.png,images/complex/12.png,images/complex/4.png","0","null","","200","279.6100000006845","","","","background","",""
"","null","html-keyboard-response","32","277644","0.0-14.0-0.9","SS1604513235675","","null","","","","","","","","","","","","<img src=images/blank.png width =""500"" height = ""500"" style=""border:5px solid black"">","","",""
"","73.65500000014435","stimulus-presentation","33","277920","0.0-14.0-1.9","SS1604513235675","<img src='images/simple/4.png' width ='500' height = '500' style='border:5px solid black'>","40","mixed_complex_deviant","images/simple/11.png","images/simple/4.png","images/complex/1.png,images/complex/8.png,images/complex/14.png,images/complex/15.png,images/complex/13.png,images/complex/12.png,images/complex/4.png","0","null","","200","273.65500000014435","","","","background","",""
"","null","html-keyboard-response","34","278783","0.0-14.0-0.10","SS1604513235675","","null","","","","","","","","","","","","<img src=images/blank.png width =""500"" height = ""500"" style=""border:5px solid black"">","","",""
"","848.2399999994086","stimulus-presentation","35","279834","0.0-14.0-1.10","SS1604513235675","<img src='images/simple/11.png' width ='500' height = '500' style='border:5px solid black'>","40","mixed_complex_deviant","images/simple/11.png","images/simple/4.png","images/complex/1.png,images/complex/8.png,images/complex/14.png,images/complex/15.png,images/complex/13.png,images/complex/12.png,images/complex/4.png","0","null","","200","1048.2399999994086","yes","110.65000000235159","","target","",""
"","null","html-keyboard-response","36","280860","0.0-14.0-0.11","SS1604513235675","","null","","","","","","","","","","","","<img src=images/blank.png width =""500"" height = ""500"" style=""border:5px solid black"">","","",""
"","190.04000000131782","stimulus-presentation","37","281254","0.0-14.0-1.11","SS1604513235675","<img src='images/simple/4.png' width ='500' height = '500' style='border:5px solid black'>","40","mixed_complex_deviant","images/simple/11.png","images/simple/4.png","images/complex/1.png,images/complex/8.png,images/complex/14.png,images/complex/15.png,images/complex/13.png,images/complex/12.png,images/complex/4.png","0","null","","200","390.0400000013178","","","","background","",""
"","null","html-keyboard-response","38","282450","0.0-14.0-0.12","SS1604513235675","","null","","","","","","","","","","","","<img src=images/blank.png width =""500"" height = ""500"" style=""border:5px solid black"">","","",""
"","84.66000000044005","stimulus-presentation","39","282737","0.0-14.0-1.12","SS1604513235675","<img src='images/simple/4.png' width ='500' height = '500' style='border:5px solid black'>","40","mixed_complex_deviant","images/simple/11.png","images/simple/4.png","images/complex/1.png,images/complex/8.png,images/complex/14.png,images/complex/15.png,images/complex/13.png,images/complex/12.png,images/complex/4.png","0","null","","200","284.66000000044005","","","","background","",""
"","null","html-keyboard-response","40","283879","0.0-14.0-0.13","SS1604513235675","","null","","","","","","","","","","","","<img src=images/blank.png width =""500"" height = ""500"" style=""border:5px solid black"">","","",""
"","886.5249999981024","stimulus-presentation","41","284968","0.0-14.0-1.13","SS1604513235675","<img src='images/simple/11.png' width ='500' height = '500' style='border:5px solid black'>","40","mixed_complex_deviant","images/simple/11.png","images/simple/4.png","images/complex/1.png,images/complex/8.png,images/complex/14.png,images/complex/15.png,images/complex/13.png,images/complex/12.png,images/complex/4.png","0","null","","200","1086.5249999981024","yes","136.70499999716412","","target","",""
"","null","html-keyboard-response","42","285884","0.0-14.0-0.14","SS1604513235675","","null","","","","","","","","","","","","<img src=images/blank.png width =""500"" height = ""500"" style=""border:5px solid black"">","","",""
"","38.97000000142725","stimulus-presentation","43","286126","0.0-14.0-1.14","SS1604513235675","<img src='images/complex/4.png' width ='500' height = '500' style='border:5px solid black'>","40","mixed_complex_deviant","images/simple/11.png","images/simple/4.png","images/complex/1.png,images/complex/8.png,images/complex/14.png,images/complex/15.png,images/complex/13.png,images/complex/12.png,images/complex/4.png","0","null","","200","238.97000000142725","","","","deviant","",""
"","null","html-keyboard-response","44","287356","0.0-14.0-0.15","SS1604513235675","","null","","","","","","","","","","","","<img src=images/blank.png width =""500"" height = ""500"" style=""border:5px solid black"">","","",""
"","45.66999999945983","stimulus-presentation","45","287604","0.0-14.0-1.15","SS1604513235675","<img src='images/simple/4.png' width ='500' height = '500' style='border:5px solid black'>","40","mixed_complex_deviant","images/simple/11.png","images/simple/4.png","images/complex/1.png,images/complex/8.png,images/complex/14.png,images/complex/15.png,images/complex/13.png,images/complex/12.png,images/complex/4.png","0","null","","200","245.66999999945983","","","","background","",""
"","null","html-keyboard-response","46","288571","0.0-14.0-0.16","SS1604513235675","","null","","","","","","","","","","","","<img src=images/blank.png width =""500"" height = ""500"" style=""border:5px solid black"">","","",""
"","54.60500000114553","stimulus-presentation","47","288828","0.0-14.0-1.16","SS1604513235675","<img src='images/simple/4.png' width ='500' height = '500' style='border:5px solid black'>","40","mixed_complex_deviant","images/simple/11.png","images/simple/4.png","images/complex/1.png,images/complex/8.png,images/complex/14.png,images/complex/15.png,images/complex/13.png,images/complex/12.png,images/complex/4.png","0","null","","200","254.60500000114553","","","","background","",""
"","null","html-keyboard-response","48","290065","0.0-14.0-0.17","SS1604513235675","","null","","","","","","","","","","","","<img src=images/blank.png width =""500"" height = ""500"" style=""border:5px solid black"">","","",""
"","109.49500000063563","stimulus-presentation","49","290377","0.0-14.0-1.17","SS1604513235675","<img src='images/simple/11.png' width ='500' height = '500' style='border:5px solid black'>","40","mixed_complex_deviant","images/simple/11.png","images/simple/4.png","images/complex/1.png,images/complex/8.png,images/complex/14.png,images/complex/15.png,images/complex/13.png,images/complex/12.png,images/complex/4.png","0","null","","200","309.4950000006356","","","","target","",""
"","null","html-keyboard-response","50","291398","0.0-14.0-0.18","SS1604513235675","","null","","","","","","","","","","","","<img src=images/blank.png width =""500"" height = ""500"" style=""border:5px solid black"">","","",""
"","119.7150000007241","stimulus-presentation","51","291720","0.0-14.0-1.18","SS1604513235675","<img src='images/simple/4.png' width ='500' height = '500' style='border:5px solid black'>","40","mixed_complex_deviant","images/simple/11.png","images/simple/4.png","images/complex/1.png,images/complex/8.png,images/complex/14.png,images/complex/15.png,images/complex/13.png,images/complex/12.png,images/complex/4.png","0","null","","200","319.7150000007241","","","","background","",""
"","null","html-keyboard-response","52","292796","0.0-14.0-0.19","SS1604513235675","","null","","","","","","","","","","","","<img src=images/blank.png width =""500"" height = ""500"" style=""border:5px solid black"">","","",""
"","130.51999999885447","stimulus-presentation","53","293128","0.0-14.0-1.19","SS1604513235675","<img src='images/simple/4.png' width ='500' height = '500' style='border:5px solid black'>","40","mixed_complex_deviant","images/simple/11.png","images/simple/4.png","images/complex/1.png,images/complex/8.png,images/complex/14.png,images/complex/15.png,images/complex/13.png,images/complex/12.png,images/complex/4.png","0","null","","200","330.5199999988545","","","","background","",""
"","null","html-keyboard-response","54","294094","0.0-14.0-0.20","SS1604513235675","","null","","","","","","","","","","","","<img src=images/blank.png width =""500"" height = ""500"" style=""border:5px solid black"">","","",""
"","104.87999999895692","stimulus-presentation","55","294401","0.0-14.0-1.20","SS1604513235675","<img src='images/simple/4.png' width ='500' height = '500' style='border:5px solid black'>","40","mixed_complex_deviant","images/simple/11.png","images/simple/4.png","images/complex/1.png,images/complex/8.png,images/complex/14.png,images/complex/15.png,images/complex/13.png,images/complex/12.png,images/complex/4.png","0","null","","200","304.8799999989569","","","","background","",""
"","null","html-keyboard-response","56","295465","0.0-14.0-0.21","SS1604513235675","","null","","","","","","","","","","","","<img src=images/blank.png width =""500"" height = ""500"" style=""border:5px solid black"">","","",""
"","113.52500000072177","stimulus-presentation","57","295781","0.0-14.0-1.21","SS1604513235675","<img src='images/complex/12.png' width ='500' height = '500' style='border:5px solid black'>","40","mixed_complex_deviant","images/simple/11.png","images/simple/4.png","images/complex/1.png,images/complex/8.png,images/complex/14.png,images/complex/15.png,images/complex/13.png,images/complex/12.png,images/complex/4.png","0","null","","200","313.5250000007218","","","","deviant","",""
"","null","html-keyboard-response","58","296695","0.0-14.0-0.22","SS1604513235675","","null","","","","","","","","","","","","<img src=images/blank.png width =""500"" height = ""500"" style=""border:5px solid black"">","","",""
"","134.30000000150176","stimulus-presentation","59","297033","0.0-14.0-1.22","SS1604513235675","<img src='images/simple/4.png' width ='500' height = '500' style='border:5px solid black'>","40","mixed_complex_deviant","images/simple/11.png","images/simple/4.png","images/complex/1.png,images/complex/8.png,images/complex/14.png,images/complex/15.png,images/complex/13.png,images/complex/12.png,images/complex/4.png","0","null","","200","334.30000000150176","","","","background","",""
"","null","html-keyboard-response","60","298322","0.0-14.0-0.23","SS1604513235675","","null","","","","","","","","","","","","<img src=images/blank.png width =""500"" height = ""500"" style=""border:5px solid black"">","","",""
"","92.9550000000745","stimulus-presentation","61","298617","0.0-14.0-1.23","SS1604513235675","<img src='images/simple/4.png' width ='500' height = '500' style='border:5px solid black'>","40","mixed_complex_deviant","images/simple/11.png","images/simple/4.png","images/complex/1.png,images/complex/8.png,images/complex/14.png,images/complex/15.png,images/complex/13.png,images/complex/12.png,images/complex/4.png","0","null","","200","292.9550000000745","","","","background","",""
"","null","html-keyboard-response","62","299508","0.0-14.0-0.24","SS1604513235675","","null","","","","","","","","","","","","<img src=images/blank.png width =""500"" height = ""500"" style=""border:5px solid black"">","","",""
"","165.38500000024214","stimulus-presentation","63","299877","0.0-14.0-1.24","SS1604513235675","<img src='images/simple/4.png' width ='500' height = '500' style='border:5px solid black'>","40","mixed_complex_deviant","images/simple/11.png","images/simple/4.png","images/complex/1.png,images/complex/8.png,images/complex/14.png,images/complex/15.png,images/complex/13.png,images/complex/12.png,images/complex/4.png","0","null","","200","365.38500000024214","","","","background","",""
"","null","html-keyboard-response","64","300734","0.0-14.0-0.25","SS1604513235675","","null","","","","","","","","","","","","<img src=images/blank.png width =""500"" height = ""500"" style=""border:5px solid black"">","","",""
"","115.07500000152504","stimulus-presentation","65","301052","0.0-14.0-1.25","SS1604513235675","<img src='images/simple/4.png' width ='500' height = '500' style='border:5px solid black'>","40","mixed_complex_deviant","images/simple/11.png","images/simple/4.png","images/complex/1.png,images/complex/8.png,images/complex/14.png,images/complex/15.png,images/complex/13.png,images/complex/12.png,images/complex/4.png","0","null","","200","315.07500000152504","","","","background","",""
"","null","html-keyboard-response","66","302116","0.0-14.0-0.26","SS1604513235675","","null","","","","","","","","","","","","<img src=images/blank.png width =""500"" height = ""500"" style=""border:5px solid black"">","","",""
"","159.7299999993993","stimulus-presentation","67","302479","0.0-14.0-1.26","SS1604513235675","<img src='images/simple/4.png' width ='500' height = '500' style='border:5px solid black'>","40","mixed_complex_deviant","images/simple/11.png","images/simple/4.png","images/complex/1.png,images/complex/8.png,images/complex/14.png,images/complex/15.png,images/complex/13.png,images/complex/12.png,images/complex/4.png","0","null","","200","359.7299999993993","","","","background","",""
"","null","html-keyboard-response","68","303686","0.0-14.0-0.27","SS1604513235675","","null","","","","","","","","","","","","<img src=images/blank.png width =""500"" height = ""500"" style=""border:5px solid black"">","","",""
"","106.9099999985774","stimulus-presentation","69","303997","0.0-14.0-1.27","SS1604513235675","<img src='images/simple/4.png' width ='500' height = '500' style='border:5px solid black'>","40","mixed_complex_deviant","images/simple/11.png","images/simple/4.png","images/complex/1.png,images/complex/8.png,images/complex/14.png,images/complex/15.png,images/complex/13.png,images/complex/12.png,images/complex/4.png","0","null","","200","306.9099999985774","","","","background","",""
"","null","html-keyboard-response","70","304921","0.0-14.0-0.28","SS1604513235675","","null","","","","","","","","","","","","<img src=images/blank.png width =""500"" height = ""500"" style=""border:5px solid black"">","","",""
"","337.0600000016275","stimulus-presentation","71","305461","0.0-14.0-1.28","SS1604513235675","<img src='images/simple/4.png' width ='500' height = '500' style='border:5px solid black'>","40","mixed_complex_deviant","images/simple/11.png","images/simple/4.png","images/complex/1.png,images/complex/8.png,images/complex/14.png,images/complex/15.png,images/complex/13.png,images/complex/12.png,images/complex/4.png","0","null","","200","537.0600000016275","","","","background","",""
"","null","html-keyboard-response","72","306419","0.0-14.0-0.29","SS1604513235675","","null","","","","","","","","","","","","<img src=images/blank.png width =""500"" height = ""500"" style=""border:5px solid black"">","","",""
"","141.62500000017462","stimulus-presentation","73","306763","0.0-14.0-1.29","SS1604513235675","<img src='images/simple/4.png' width ='500' height = '500' style='border:5px solid black'>","40","mixed_complex_deviant","images/simple/11.png","images/simple/4.png","images/complex/1.png,images/complex/8.png,images/complex/14.png,images/complex/15.png,images/complex/13.png,images/complex/12.png,images/complex/4.png","0","null","","200","341.6250000001746","","","","background","",""
"","null","html-keyboard-response","74","307960","0.0-14.0-0.30","SS1604513235675","","null","","","","","","","","","","","","<img src=images/blank.png width =""500"" height = ""500"" style=""border:5px solid black"">","","",""
"","1940.3350000029313","stimulus-presentation","75","310103","0.0-14.0-1.30","SS1604513235675","<img src='images/simple/4.png' width ='500' height = '500' style='border:5px solid black'>","40","mixed_complex_deviant","images/simple/11.png","images/simple/4.png","images/complex/1.png,images/complex/8.png,images/complex/14.png,images/complex/15.png,images/complex/13.png,images/complex/12.png,images/complex/4.png","0","null","","200","2140.3350000029313","","","","background","",""
"","null","html-keyboard-response","76","311068","0.0-14.0-0.31","SS1604513235675","","null","","","","","","","","","","","","<img src=images/blank.png width =""500"" height = ""500"" style=""border:5px solid black"">","","",""
"","130.22999999881722","stimulus-presentation","77","311400","0.0-14.0-1.31","SS1604513235675","<img src='images/simple/4.png' width ='500' height = '500' style='border:5px solid black'>","40","mixed_complex_deviant","images/simple/11.png","images/simple/4.png","images/complex/1.png,images/complex/8.png,images/complex/14.png,images/complex/15.png,images/complex/13.png,images/complex/12.png,images/complex/4.png","0","null","","200","330.2299999988172","","","","background","",""
"","null","html-keyboard-response","78","312506","0.0-14.0-0.32","SS1604513235675","","null","","","","","","","","","","","","<img src=images/blank.png width =""500"" height = ""500"" style=""border:5px solid black"">","","",""
"","48.3749999984866","stimulus-presentation","79","312757","0.0-14.0-1.32","SS1604513235675","<img src='images/simple/4.png' width ='500' height = '500' style='border:5px solid black'>","40","mixed_complex_deviant","images/simple/11.png","images/simple/4.png","images/complex/1.png,images/complex/8.png,images/complex/14.png,images/complex/15.png,images/complex/13.png,images/complex/12.png,images/complex/4.png","0","null","","200","248.3749999984866","","","","background","",""
"","null","html-keyboard-response","80","313855","0.0-14.0-0.33","SS1604513235675","","null","","","","","","","","","","","","<img src=images/blank.png width =""500"" height = ""500"" style=""border:5px solid black"">","","",""
"","224.58499999996275","stimulus-presentation","81","314282","0.0-14.0-1.33","SS1604513235675","<img src='images/complex/8.png' width ='500' height = '500' style='border:5px solid black'>","40","mixed_complex_deviant","images/simple/11.png","images/simple/4.png","images/complex/1.png,images/complex/8.png,images/complex/14.png,images/complex/15.png,images/complex/13.png,images/complex/12.png,images/complex/4.png","0","null","","200","424.58499999996275","","","","deviant","",""
"","null","html-keyboard-response","82","315177","0.0-14.0-0.34","SS1604513235675","","null","","","","","","","","","","","","<img src=images/blank.png width =""500"" height = ""500"" style=""border:5px solid black"">","","",""
"","139.0900000006077","stimulus-presentation","83","315519","0.0-14.0-1.34","SS1604513235675","<img src='images/simple/4.png' width ='500' height = '500' style='border:5px solid black'>","40","mixed_complex_deviant","images/simple/11.png","images/simple/4.png","images/complex/1.png,images/complex/8.png,images/complex/14.png,images/complex/15.png,images/complex/13.png,images/complex/12.png,images/complex/4.png","0","null","","200","339.0900000006077","","","","background","",""
"","null","html-keyboard-response","84","316667","0.0-14.0-0.35","SS1604513235675","","null","","","","","","","","","","","","<img src=images/blank.png width =""500"" height = ""500"" style=""border:5px solid black"">","","",""
"","81.72499999997672","stimulus-presentation","85","316952","0.0-14.0-1.35","SS1604513235675","<img src='images/simple/4.png' width ='500' height = '500' style='border:5px solid black'>","40","mixed_complex_deviant","images/simple/11.png","images/simple/4.png","images/complex/1.png,images/complex/8.png,images/complex/14.png,images/complex/15.png,images/complex/13.png,images/complex/12.png,images/complex/4.png","0","null","","200","281.7249999999767","","","","background","",""
"","null","html-keyboard-response","86","318188","0.0-14.0-0.36","SS1604513235675","","null","","","","","","","","","","","","<img src=images/blank.png width =""500"" height = ""500"" style=""border:5px solid black"">","","",""
"","53.485000000335276","stimulus-presentation","87","318444","0.0-14.0-1.36","SS1604513235675","<img src='images/simple/4.png' width ='500' height = '500' style='border:5px solid black'>","40","mixed_complex_deviant","images/simple/11.png","images/simple/4.png","images/complex/1.png,images/complex/8.png,images/complex/14.png,images/complex/15.png,images/complex/13.png,images/complex/12.png,images/complex/4.png","0","null","","200","253.48500000033528","","","","background","",""
"","null","html-keyboard-response","88","319346","0.0-14.0-0.37","SS1604513235675","","null","","","","","","","","","","","","<img src=images/blank.png width =""500"" height = ""500"" style=""border:5px solid black"">","","",""
"","75.52000000217231","stimulus-presentation","89","319624","0.0-14.0-1.37","SS1604513235675","<img src='images/complex/14.png' width ='500' height = '500' style='border:5px solid black'>","40","mixed_complex_deviant","images/simple/11.png","images/simple/4.png","images/complex/1.png,images/complex/8.png,images/complex/14.png,images/complex/15.png,images/complex/13.png,images/complex/12.png,images/complex/4.png","0","null","","200","275.5200000021723","","","","deviant","",""
"","null","html-keyboard-response","90","320925","0.0-14.0-0.38","SS1604513235675","","null","","","","","","","","","","","","<img src=images/blank.png width =""500"" height = ""500"" style=""border:5px solid black"">","","",""
"","222.04499999858672","stimulus-presentation","91","321349","0.0-14.0-1.38","SS1604513235675","<img src='images/simple/4.png' width ='500' height = '500' style='border:5px solid black'>","40","mixed_complex_deviant","images/simple/11.png","images/simple/4.png","images/complex/1.png,images/complex/8.png,images/complex/14.png,images/complex/15.png,images/complex/13.png,images/complex/12.png,images/complex/4.png","0","null","","200","422.0449999985867","","","","background","",""
"","null","html-keyboard-response","92","322523","0.0-14.0-0.39","SS1604513235675","","null","","","","","","","","","","","","<img src=images/blank.png width =""500"" height = ""500"" style=""border:5px solid black"">","","",""
"","109.2400000016205","stimulus-presentation","93","322835","0.0-14.0-1.39","SS1604513235675","<img src='images/simple/4.png' width ='500' height = '500' style='border:5px solid black'>","40","mixed_complex_deviant","images/simple/11.png","images/simple/4.png","images/complex/1.png,images/complex/8.png,images/complex/14.png,images/complex/15.png,images/complex/13.png,images/complex/12.png,images/complex/4.png","0","null","","200","309.2400000016205","","","","background","",""
"","null","html-keyboard-response","94","323685","0.0-14.0-0.40","SS1604513235675","","null","","","","","","","","","","","","<img src=images/blank.png width =""500"" height = ""500"" style=""border:5px solid black"">","","",""
"","917.5350000004983","stimulus-presentation","95","324806","0.0-14.0-1.40","SS1604513235675","<img src='images/simple/11.png' width ='500' height = '500' style='border:5px solid black'>","40","mixed_complex_deviant","images/simple/11.png","images/simple/4.png","images/complex/1.png,images/complex/8.png,images/complex/14.png,images/complex/15.png,images/complex/13.png,images/complex/12.png,images/complex/4.png","0","null","","200","1117.5350000004983","yes","348.8150000012247","","target","",""
"","null","html-keyboard-response","96","325846","0.0-14.0-0.41","SS1604513235675","","null","","","","","","","","","","","","<img src=images/blank.png width =""500"" height = ""500"" style=""border:5px solid black"">","","",""
"","931.3800000017509","stimulus-presentation","97","326982","0.0-14.0-1.41","SS1604513235675","<img src='images/simple/11.png' width ='500' height = '500' style='border:5px solid black'>","40","mixed_complex_deviant","images/simple/11.png","images/simple/4.png","images/complex/1.png,images/complex/8.png,images/complex/14.png,images/complex/15.png,images/complex/13.png,images/complex/12.png,images/complex/4.png","0","null","","200","1131.380000001751","yes","373.8850000008242","","target","",""
"","null","html-keyboard-response","98","327797","0.0-14.0-0.42","SS1604513235675","","null","","","","","","","","","","","","<img src=images/blank.png width =""500"" height = ""500"" style=""border:5px solid black"">","","",""
"","235.33499999751803","stimulus-presentation","99","328237","0.0-14.0-1.42","SS1604513235675","<img src='images/complex/15.png' width ='500' height = '500' style='border:5px solid black'>","40","mixed_complex_deviant","images/simple/11.png","images/simple/4.png","images/complex/1.png,images/complex/8.png,images/complex/14.png,images/complex/15.png,images/complex/13.png,images/complex/12.png,images/complex/4.png","0","null","","200","435.334999997518","","","","deviant","",""
"","null","html-keyboard-response","100","329284","0.0-14.0-0.43","SS1604513235675","","null","","","","","","","","","","","","<img src=images/blank.png width =""500"" height = ""500"" style=""border:5px solid black"">","","",""
"","790.0699999991339","stimulus-presentation","101","330279","0.0-14.0-1.43","SS1604513235675","<img src='images/simple/11.png' width ='500' height = '500' style='border:5px solid black'>","40","mixed_complex_deviant","images/simple/11.png","images/simple/4.png","images/complex/1.png,images/complex/8.png,images/complex/14.png,images/complex/15.png,images/complex/13.png,images/complex/12.png,images/complex/4.png","0","null","","200","990.0699999991339","yes","232.46500000101514","","target","",""
"","null","html-keyboard-response","102","331394","0.0-14.0-0.44","SS1604513235675","","null","","","","","","","","","","","","<img src=images/blank.png width =""500"" height = ""500"" style=""border:5px solid black"">","","",""
"","103.88500000047497","stimulus-presentation","103","331701","0.0-14.0-1.44","SS1604513235675","<img src='images/simple/4.png' width ='500' height = '500' style='border:5px solid black'>","40","mixed_complex_deviant","images/simple/11.png","images/simple/4.png","images/complex/1.png,images/complex/8.png,images/complex/14.png,images/complex/15.png,images/complex/13.png,images/complex/12.png,images/complex/4.png","0","null","","200","303.885000000475","","","","background","",""
"","null","html-keyboard-response","104","332651","0.0-14.0-0.45","SS1604513235675","","null","","","","","","","","","","","","<img src=images/blank.png width =""500"" height = ""500"" style=""border:5px solid black"">","","",""
"","151.81000000296626","stimulus-presentation","105","333007","0.0-14.0-1.45","SS1604513235675","<img src='images/simple/4.png' width ='500' height = '500' style='border:5px solid black'>","40","mixed_complex_deviant","images/simple/11.png","images/simple/4.png","images/complex/1.png,images/complex/8.png,images/complex/14.png,images/complex/15.png,images/complex/13.png,images/complex/12.png,images/complex/4.png","0","null","","200","351.81000000296626","","","","background","",""
"","null","html-keyboard-response","106","333930","0.0-14.0-0.46","SS1604513235675","","null","","","","","","","","","","","","<img src=images/blank.png width =""500"" height = ""500"" style=""border:5px solid black"">","","",""
"","280.5900000021793","stimulus-presentation","107","334414","0.0-14.0-1.46","SS1604513235675","<img src='images/simple/4.png' width ='500' height = '500' style='border:5px solid black'>","40","mixed_complex_deviant","images/simple/11.png","images/simple/4.png","images/complex/1.png,images/complex/8.png,images/complex/14.png,images/complex/15.png,images/complex/13.png,images/complex/12.png,images/complex/4.png","0","null","","200","480.5900000021793","","","","background","",""
"","null","html-keyboard-response","108","335438","0.0-14.0-0.47","SS1604513235675","","null","","","","","","","","","","","","<img src=images/blank.png width =""500"" height = ""500"" style=""border:5px solid black"">","","",""
"","247.12500000168802","stimulus-presentation","109","335888","0.0-14.0-1.47","SS1604513235675","<img src='images/simple/4.png' width ='500' height = '500' style='border:5px solid black'>","40","mixed_complex_deviant","images/simple/11.png","images/simple/4.png","images/complex/1.png,images/complex/8.png,images/complex/14.png,images/complex/15.png,images/complex/13.png,images/complex/12.png,images/complex/4.png","0","null","","200","447.125000001688","","","","background","",""
"","null","html-keyboard-response","110","337095","0.0-14.0-0.48","SS1604513235675","","null","","","","","","","","","","","","<img src=images/blank.png width =""500"" height = ""500"" style=""border:5px solid black"">","","",""
"","64.08499999815831","stimulus-presentation","111","337362","0.0-14.0-1.48","SS1604513235675","<img src='images/simple/4.png' width ='500' height = '500' style='border:5px solid black'>","40","mixed_complex_deviant","images/simple/11.png","images/simple/4.png","images/complex/1.png,images/complex/8.png,images/complex/14.png,images/complex/15.png,images/complex/13.png,images/complex/12.png,images/complex/4.png","0","null","","200","264.0849999981583","","","","background","",""
"[{""page_index"":0,""viewing_time"":2379}]","2379","task-instructions","112","339743","0.0-15.0","SS1604513235675","","","","","","","","","","","","","","","","",""
"[{""page_index"":0,""viewing_time"":934.6350000014063},{""page_index"":1,""viewing_time"":1857.9749999989872},{""page_index"":2,""viewing_time"":11186.854999999923}]","13979.70500000153","instructions","113","353725","0.0-16.0","SS1604513235675","","","","","","","","","","","","","","","","",""
"","null","html-keyboard-response","114","354585","0.0-17.0-0.0","SS1604513235675","","null","","","","","","","","","","","","<img src=images/blank.png width =""500"" height = ""500"" style=""border:5px solid black"">","","",""
"","261.5200000000186","stimulus-presentation","115","355049","0.0-17.0-1.0","SS1604513235675","<img src='images/complex/18.png' width ='500' height = '500' style='border:5px solid black'>","40","mixed_simple_deviant","images/complex/10.png","images/complex/18.png","images/simple/12.png,images/simple/15.png,images/simple/9.png,images/simple/2.png,images/simple/18.png,images/simple/8.png,images/simple/13.png","1","null","","200","461.5200000000186","","","","background","",""
"","null","html-keyboard-response","116","356332","0.0-17.0-0.1","SS1604513235675","","null","","","","","","","","","","","","<img src=images/blank.png width =""500"" height = ""500"" style=""border:5px solid black"">","","",""
"","46.06500000227243","stimulus-presentation","117","356581","0.0-17.0-1.1","SS1604513235675","<img src='images/complex/18.png' width ='500' height = '500' style='border:5px solid black'>","40","mixed_simple_deviant","images/complex/10.png","images/complex/18.png","images/simple/12.png,images/simple/15.png,images/simple/9.png,images/simple/2.png,images/simple/18.png,images/simple/8.png,images/simple/13.png","1","null","","200","246.06500000227243","","","","background","",""
"","null","html-keyboard-response","118","357500","0.0-17.0-0.2","SS1604513235675","","null","","","","","","","","","","","","<img src=images/blank.png width =""500"" height = ""500"" style=""border:5px solid black"">","","",""
"","124.70000000030268","stimulus-presentation","119","357827","0.0-17.0-1.2","SS1604513235675","<img src='images/complex/18.png' width ='500' height = '500' style='border:5px solid black'>","40","mixed_simple_deviant","images/complex/10.png","images/complex/18.png","images/simple/12.png,images/simple/15.png,images/simple/9.png,images/simple/2.png,images/simple/18.png,images/simple/8.png,images/simple/13.png","1","null","","200","324.7000000003027","","","","background","",""
"","null","html-keyboard-response","120","358721","0.0-17.0-0.3","SS1604513235675","","null","","","","","","","","","","","","<img src=images/blank.png width =""500"" height = ""500"" style=""border:5px solid black"">","","",""
"","958.3399999974063","stimulus-presentation","121","359882","0.0-17.0-1.3","SS1604513235675","<img src='images/complex/10.png' width ='500' height = '500' style='border:5px solid black'>","40","mixed_simple_deviant","images/complex/10.png","images/complex/18.png","images/simple/12.png,images/simple/15.png,images/simple/9.png,images/simple/2.png,images/simple/18.png,images/simple/8.png,images/simple/13.png","1","null","","200","1158.3399999974063","yes","270.78999999864027","","target","",""
"","null","html-keyboard-response","122","361171","0.0-17.0-0.4","SS1604513235675","","null","","","","","","","","","","","","<img src=images/blank.png width =""500"" height = ""500"" style=""border:5px solid black"">","","",""
"","62.440000001573935","stimulus-presentation","123","361436","0.0-17.0-1.4","SS1604513235675","<img src='images/complex/18.png' width ='500' height = '500' style='border:5px solid black'>","40","mixed_simple_deviant","images/complex/10.png","images/complex/18.png","images/simple/12.png,images/simple/15.png,images/simple/9.png,images/simple/2.png,images/simple/18.png,images/simple/8.png,images/simple/13.png","1","null","","200","262.44000000157394","","","","background","",""
"","null","html-keyboard-response","124","362722","0.0-17.0-0.5","SS1604513235675","","null","","","","","","","","","","","","<img src=images/blank.png width =""500"" height = ""500"" style=""border:5px solid black"">","","",""
"","93.24000000196975","stimulus-presentation","125","363018","0.0-17.0-1.5","SS1604513235675","<img src='images/complex/18.png' width ='500' height = '500' style='border:5px solid black'>","40","mixed_simple_deviant","images/complex/10.png","images/complex/18.png","images/simple/12.png,images/simple/15.png,images/simple/9.png,images/simple/2.png,images/simple/18.png,images/simple/8.png,images/simple/13.png","1","null","","200","293.24000000196975","","","","background","",""
"","null","html-keyboard-response","126","364090","0.0-17.0-0.6","SS1604513235675","","null","","","","","","","","","","","","<img src=images/blank.png width =""500"" height = ""500"" style=""border:5px solid black"">","","",""
"","119.68999999959487","stimulus-presentation","127","364413","0.0-17.0-1.6","SS1604513235675","<img src='images/complex/18.png' width ='500' height = '500' style='border:5px solid black'>","40","mixed_simple_deviant","images/complex/10.png","images/complex/18.png","images/simple/12.png,images/simple/15.png,images/simple/9.png,images/simple/2.png,images/simple/18.png,images/simple/8.png,images/simple/13.png","1","null","","200","319.6899999995949","","","","background","",""
"","null","html-keyboard-response","128","365501","0.0-17.0-0.7","SS1604513235675","","null","","","","","","","","","","","","<img src=images/blank.png width =""500"" height = ""500"" style=""border:5px solid black"">","","",""
"","83.08000000030734","stimulus-presentation","129","365787","0.0-17.0-1.7","SS1604513235675","<img src='images/simple/9.png' width ='500' height = '500' style='border:5px solid black'>","40","mixed_simple_deviant","images/complex/10.png","images/complex/18.png","images/simple/12.png,images/simple/15.png,images/simple/9.png,images/simple/2.png,images/simple/18.png,images/simple/8.png,images/simple/13.png","1","null","","200","283.08000000030734","","","","deviant","",""
"","null","html-keyboard-response","130","366947","0.0-17.0-0.8","SS1604513235675","","null","","","","","","","","","","","","<img src=images/blank.png width =""500"" height = ""500"" style=""border:5px solid black"">","","",""
"","125.17999999906169","stimulus-presentation","131","367276","0.0-17.0-1.8","SS1604513235675","<img src='images/complex/18.png' width ='500' height = '500' style='border:5px solid black'>","40","mixed_simple_deviant","images/complex/10.png","images/complex/18.png","images/simple/12.png,images/simple/15.png,images/simple/9.png,images/simple/2.png,images/simple/18.png,images/simple/8.png,images/simple/13.png","1","null","","200","325.1799999990617","","","","background","",""
"","null","html-keyboard-response","132","368332","0.0-17.0-0.9","SS1604513235675","","null","","","","","","","","","","","","<img src=images/blank.png width =""500"" height = ""500"" style=""border:5px solid black"">","","",""
"","138.92499999928987","stimulus-presentation","133","368675","0.0-17.0-1.9","SS1604513235675","<img src='images/complex/18.png' width ='500' height = '500' style='border:5px solid black'>","40","mixed_simple_deviant","images/complex/10.png","images/complex/18.png","images/simple/12.png,images/simple/15.png,images/simple/9.png,images/simple/2.png,images/simple/18.png,images/simple/8.png,images/simple/13.png","1","null","","200","338.92499999928987","","","","background","",""
"","null","html-keyboard-response","134","369575","0.0-17.0-0.10","SS1604513235675","","null","","","","","","","","","","","","<img src=images/blank.png width =""500"" height = ""500"" style=""border:5px solid black"">","","",""
"","191.58500000048662","stimulus-presentation","135","369970","0.0-17.0-1.10","SS1604513235675","<img src='images/complex/18.png' width ='500' height = '500' style='border:5px solid black'>","40","mixed_simple_deviant","images/complex/10.png","images/complex/18.png","images/simple/12.png,images/simple/15.png,images/simple/9.png,images/simple/2.png,images/simple/18.png,images/simple/8.png,images/simple/13.png","1","null","","200","391.5850000004866","","","","background","",""
"","null","html-keyboard-response","136","370821","0.0-17.0-0.11","SS1604513235675","","null","","","","","","","","","","","","<img src=images/blank.png width =""500"" height = ""500"" style=""border:5px solid black"">","","",""
"","200.5700000008801","stimulus-presentation","137","371225","0.0-17.0-1.11","SS1604513235675","<img src='images/complex/18.png' width ='500' height = '500' style='border:5px solid black'>","40","mixed_simple_deviant","images/complex/10.png","images/complex/18.png","images/simple/12.png,images/simple/15.png,images/simple/9.png,images/simple/2.png,images/simple/18.png,images/simple/8.png,images/simple/13.png","1","null","","200","400.5700000008801","","","","background","",""
"","null","html-keyboard-response","138","372188","0.0-17.0-0.12","SS1604513235675","","null","","","","","","","","","","","","<img src=images/blank.png width =""500"" height = ""500"" style=""border:5px solid black"">","","",""
"","540.9399999990128","stimulus-presentation","139","372933","0.0-17.0-1.12","SS1604513235675","<img src='images/complex/18.png' width ='500' height = '500' style='border:5px solid black'>","40","mixed_simple_deviant","images/complex/10.png","images/complex/18.png","images/simple/12.png,images/simple/15.png,images/simple/9.png,images/simple/2.png,images/simple/18.png,images/simple/8.png,images/simple/13.png","1","null","","200","740.9399999990128","","","","background","",""
"","null","html-keyboard-response","140","373755","0.0-17.0-0.13","SS1604513235675","","null","","","","","","","","","","","","<img src=images/blank.png width =""500"" height = ""500"" style=""border:5px solid black"">","","",""
"","198.74499999789987","stimulus-presentation","141","374157","0.0-17.0-1.13","SS1604513235675","<img src='images/complex/18.png' width ='500' height = '500' style='border:5px solid black'>","40","mixed_simple_deviant","images/complex/10.png","images/complex/18.png","images/simple/12.png,images/simple/15.png,images/simple/9.png,images/simple/2.png,images/simple/18.png,images/simple/8.png,images/simple/13.png","1","null","","200","398.74499999789987","","","","background","",""
"","null","html-keyboard-response","142","375419","0.0-17.0-0.14","SS1604513235675","","null","","","","","","","","","","","","<img src=images/blank.png width =""500"" height = ""500"" style=""border:5px solid black"">","","",""
"","111.69499999959953","stimulus-presentation","143","375734","0.0-17.0-1.14","SS1604513235675","<img src='images/complex/18.png' width ='500' height = '500' style='border:5px solid black'>","40","mixed_simple_deviant","images/complex/10.png","images/complex/18.png","images/simple/12.png,images/simple/15.png,images/simple/9.png,images/simple/2.png,images/simple/18.png,images/simple/8.png,images/simple/13.png","1","null","","200","311.69499999959953","","","","background","",""
"","null","html-keyboard-response","144","376613","0.0-17.0-0.15","SS1604513235675","","null","","","","","","","","","","","","<img src=images/blank.png width =""500"" height = ""500"" style=""border:5px solid black"">","","",""
"","536.2800000002608","stimulus-presentation","145","377353","0.0-17.0-1.15","SS1604513235675","<img src='images/simple/8.png' width ='500' height = '500' style='border:5px solid black'>","40","mixed_simple_deviant","images/complex/10.png","images/complex/18.png","images/simple/12.png,images/simple/15.png,images/simple/9.png,images/simple/2.png,images/simple/18.png,images/simple/8.png,images/simple/13.png","1","null","","200","736.2800000002608","","","","deviant","",""
"","null","html-keyboard-response","146","378344","0.0-17.0-0.16","SS1604513235675","","null","","","","","","","","","","","","<img src=images/blank.png width =""500"" height = ""500"" style=""border:5px solid black"">","","",""
"","119.0999999998603","stimulus-presentation","147","378666","0.0-17.0-1.16","SS1604513235675","<img src='images/complex/18.png' width ='500' height = '500' style='border:5px solid black'>","40","mixed_simple_deviant","images/complex/10.png","images/complex/18.png","images/simple/12.png,images/simple/15.png,images/simple/9.png,images/simple/2.png,images/simple/18.png,images/simple/8.png,images/simple/13.png","1","null","","200","319.0999999998603","","","","background","",""
"","null","html-keyboard-response","148","379796","0.0-17.0-0.17","SS1604513235675","","null","","","","","","","","","","","","<img src=images/blank.png width =""500"" height = ""500"" style=""border:5px solid black"">","","",""
"","120.79500000248663","stimulus-presentation","149","380121","0.0-17.0-1.17","SS1604513235675","<img src='images/complex/18.png' width ='500' height = '500' style='border:5px solid black'>","40","mixed_simple_deviant","images/complex/10.png","images/complex/18.png","images/simple/12.png,images/simple/15.png,images/simple/9.png,images/simple/2.png,images/simple/18.png,images/simple/8.png,images/simple/13.png","1","null","","200","320.79500000248663","","","","background","",""
"","null","html-keyboard-response","150","381051","0.0-17.0-0.18","SS1604513235675","","null","","","","","","","","","","","","<img src=images/blank.png width =""500"" height = ""500"" style=""border:5px solid black"">","","",""
"","123.94500000303378","stimulus-presentation","151","381379","0.0-17.0-1.18","SS1604513235675","<img src='images/complex/18.png' width ='500' height = '500' style='border:5px solid black'>","40","mixed_simple_deviant","images/complex/10.png","images/complex/18.png","images/simple/12.png,images/simple/15.png,images/simple/9.png,images/simple/2.png,images/simple/18.png,images/simple/8.png,images/simple/13.png","1","null","","200","323.9450000030338","","","","background","",""
"","null","html-keyboard-response","152","382208","0.0-17.0-0.19","SS1604513235675","","null","","","","","","","","","","","","<img src=images/blank.png width =""500"" height = ""500"" style=""border:5px solid black"">","","",""
"","111.15499999868916","stimulus-presentation","153","382522","0.0-17.0-1.19","SS1604513235675","<img src='images/simple/18.png' width ='500' height = '500' style='border:5px solid black'>","40","mixed_simple_deviant","images/complex/10.png","images/complex/18.png","images/simple/12.png,images/simple/15.png,images/simple/9.png,images/simple/2.png,images/simple/18.png,images/simple/8.png,images/simple/13.png","1","null","","200","311.15499999868916","","","","deviant","",""
"","null","html-keyboard-response","154","383456","0.0-17.0-0.20","SS1604513235675","","null","","","","","","","","","","","","<img src=images/blank.png width =""500"" height = ""500"" style=""border:5px solid black"">","","",""
"","121.62499999976717","stimulus-presentation","155","383782","0.0-17.0-1.20","SS1604513235675","<img src='images/complex/18.png' width ='500' height = '500' style='border:5px solid black'>","40","mixed_simple_deviant","images/complex/10.png","images/complex/18.png","images/simple/12.png,images/simple/15.png,images/simple/9.png,images/simple/2.png,images/simple/18.png,images/simple/8.png,images/simple/13.png","1","null","","200","321.62499999976717","","","","background","",""
"","null","html-keyboard-response","156","384835","0.0-17.0-0.21","SS1604513235675","","null","","","","","","","","","","","","<img src=images/blank.png width =""500"" height = ""500"" style=""border:5px solid black"">","","",""
"","111.52500000025611","stimulus-presentation","157","385150","0.0-17.0-1.21","SS1604513235675","<img src='images/complex/18.png' width ='500' height = '500' style='border:5px solid black'>","40","mixed_simple_deviant","images/complex/10.png","images/complex/18.png","images/simple/12.png,images/simple/15.png,images/simple/9.png,images/simple/2.png,images/simple/18.png,images/simple/8.png,images/simple/13.png","1","null","","200","311.5250000002561","","","","background","",""
"","null","html-keyboard-response","158","385981","0.0-17.0-0.22","SS1604513235675","","null","","","","","","","","","","","","<img src=images/blank.png width =""500"" height = ""500"" style=""border:5px solid black"">","","",""
"","481.1249999983702","stimulus-presentation","159","386665","0.0-17.0-1.22","SS1604513235675","<img src='images/simple/12.png' width ='500' height = '500' style='border:5px solid black'>","40","mixed_simple_deviant","images/complex/10.png","images/complex/18.png","images/simple/12.png,images/simple/15.png,images/simple/9.png,images/simple/2.png,images/simple/18.png,images/simple/8.png,images/simple/13.png","1","null","","200","681.1249999983702","","","","deviant","",""
"","null","html-keyboard-response","160","387527","0.0-17.0-0.23","SS1604513235675","","null","","","","","","","","","","","","<img src=images/blank.png width =""500"" height = ""500"" style=""border:5px solid black"">","","",""
"","829.4749999986379","stimulus-presentation","161","388560","0.0-17.0-1.23","SS1604513235675","<img src='images/complex/10.png' width ='500' height = '500' style='border:5px solid black'>","40","mixed_simple_deviant","images/complex/10.png","images/complex/18.png","images/simple/12.png,images/simple/15.png,images/simple/9.png,images/simple/2.png,images/simple/18.png,images/simple/8.png,images/simple/13.png","1","null","","200","1029.474999998638","yes","320.80499999941094","","target","",""
"","null","html-keyboard-response","162","389413","0.0-17.0-0.24","SS1604513235675","","null","","","","","","","","","","","","<img src=images/blank.png width =""500"" height = ""500"" style=""border:5px solid black"">","","",""
"","117.45000000152504","stimulus-presentation","163","389733","0.0-17.0-1.24","SS1604513235675","<img src='images/complex/18.png' width ='500' height = '500' style='border:5px solid black'>","40","mixed_simple_deviant","images/complex/10.png","images/complex/18.png","images/simple/12.png,images/simple/15.png,images/simple/9.png,images/simple/2.png,images/simple/18.png,images/simple/8.png,images/simple/13.png","1","null","","200","317.45000000152504","","","","background","",""
"","null","html-keyboard-response","164","391000","0.0-17.0-0.25","SS1604513235675","","null","","","","","","","","","","","","<img src=images/blank.png width =""500"" height = ""500"" style=""border:5px solid black"">","","",""
"","272.930000002787","stimulus-presentation","165","391476","0.0-17.0-1.25","SS1604513235675","<img src='images/complex/10.png' width ='500' height = '500' style='border:5px solid black'>","40","mixed_simple_deviant","images/complex/10.png","images/complex/18.png","images/simple/12.png,images/simple/15.png,images/simple/9.png,images/simple/2.png,images/simple/18.png,images/simple/8.png,images/simple/13.png","1","null","","200","472.930000002787","","","","target","",""
"","null","html-keyboard-response","166","392589","0.0-17.0-0.26","SS1604513235675","","null","","","","","","","","","","","","<img src=images/blank.png width =""500"" height = ""500"" style=""border:5px solid black"">","","",""
"","880.2949999990524","stimulus-presentation","167","393674","0.0-17.0-1.26","SS1604513235675","<img src='images/simple/15.png' width ='500' height = '500' style='border:5px solid black'>","40","mixed_simple_deviant","images/complex/10.png","images/complex/18.png","images/simple/12.png,images/simple/15.png,images/simple/9.png,images/simple/2.png,images/simple/18.png,images/simple/8.png,images/simple/13.png","1","null","","200","1080.2949999990524","","","","deviant","",""
"","null","html-keyboard-response","168","394821","0.0-17.0-0.27","SS1604513235675","","null","","","","","","","","","","","","<img src=images/blank.png width =""500"" height = ""500"" style=""border:5px solid black"">","","",""
"","14102.429999999003","stimulus-presentation","169","409127","0.0-17.0-1.27","SS1604513235675","<img src='images/complex/18.png' width ='500' height = '500' style='border:5px solid black'>","40","mixed_simple_deviant","images/complex/10.png","images/complex/18.png","images/simple/12.png,images/simple/15.png,images/simple/9.png,images/simple/2.png,images/simple/18.png,images/simple/8.png,images/simple/13.png","1","null","","200","14302.429999999003","","","","background","",""
"","null","html-keyboard-response","170","410241","0.0-17.0-0.28","SS1604513235675","","null","","","","","","","","","","","","<img src=images/blank.png width =""500"" height = ""500"" style=""border:5px solid black"">","","",""
"","99.96000000322238","stimulus-presentation","171","410545","0.0-17.0-1.28","SS1604513235675","<img src='images/complex/18.png' width ='500' height = '500' style='border:5px solid black'>","40","mixed_simple_deviant","images/complex/10.png","images/complex/18.png","images/simple/12.png,images/simple/15.png,images/simple/9.png,images/simple/2.png,images/simple/18.png,images/simple/8.png,images/simple/13.png","1","null","","200","299.9600000032224","","","","background","",""
"","null","html-keyboard-response","172","411753","0.0-17.0-0.29","SS1604513235675","","null","","","","","","","","","","","","<img src=images/blank.png width =""500"" height = ""500"" style=""border:5px solid black"">","","",""
"","4280.2649999976275","stimulus-presentation","173","416237","0.0-17.0-1.29","SS1604513235675","<img src='images/complex/18.png' width ='500' height = '500' style='border:5px solid black'>","40","mixed_simple_deviant","images/complex/10.png","images/complex/18.png","images/simple/12.png,images/simple/15.png,images/simple/9.png,images/simple/2.png,images/simple/18.png,images/simple/8.png,images/simple/13.png","1","null","","200","4480.2649999976275","","","","background","",""
"","null","html-keyboard-response","174","417321","0.0-17.0-0.30","SS1604513235675","","null","","","","","","","","","","","","<img src=images/blank.png width =""500"" height = ""500"" style=""border:5px solid black"">","","",""
"","1167.829999998561","stimulus-presentation","175","418693","0.0-17.0-1.30","SS1604513235675","<img src='images/complex/10.png' width ='500' height = '500' style='border:5px solid black'>","40","mixed_simple_deviant","images/complex/10.png","images/complex/18.png","images/simple/12.png,images/simple/15.png,images/simple/9.png,images/simple/2.png,images/simple/18.png,images/simple/8.png,images/simple/13.png","1","null","","200","1367.829999998561","","","","target","",""
"","null","html-keyboard-response","176","419525","0.0-17.0-0.31","SS1604513235675","","null","","","","","","","","","","","","<img src=images/blank.png width =""500"" height = ""500"" style=""border:5px solid black"">","","",""
"","302.5500000003376","stimulus-presentation","177","420031","0.0-17.0-1.31","SS1604513235675","<img src='images/complex/18.png' width ='500' height = '500' style='border:5px solid black'>","40","mixed_simple_deviant","images/complex/10.png","images/complex/18.png","images/simple/12.png,images/simple/15.png,images/simple/9.png,images/simple/2.png,images/simple/18.png,images/simple/8.png,images/simple/13.png","1","null","","200","502.5500000003376","","","","background","",""
"","null","html-keyboard-response","178","421073","0.0-17.0-0.32","SS1604513235675","","null","","","","","","","","","","","","<img src=images/blank.png width =""500"" height = ""500"" style=""border:5px solid black"">","","",""
"","19027.97500000085","stimulus-presentation","179","440305","0.0-17.0-1.32","SS1604513235675","<img src='images/complex/10.png' width ='500' height = '500' style='border:5px solid black'>","40","mixed_simple_deviant","images/complex/10.png","images/complex/18.png","images/simple/12.png,images/simple/15.png,images/simple/9.png,images/simple/2.png,images/simple/18.png,images/simple/8.png,images/simple/13.png","1","null","","200","19227.97500000085","yes","17856.480000002193","","target","",""
"","null","html-keyboard-response","180","441448","0.0-17.0-0.33","SS1604513235675","","null","","","","","","","","","","","","<img src=images/blank.png width =""500"" height = ""500"" style=""border:5px solid black"">","","",""
"","3395.060000002559","stimulus-presentation","181","445047","0.0-17.0-1.33","SS1604513235675","<img src='images/complex/18.png' width ='500' height = '500' style='border:5px solid black'>","40","mixed_simple_deviant","images/complex/10.png","images/complex/18.png","images/simple/12.png,images/simple/15.png,images/simple/9.png,images/simple/2.png,images/simple/18.png,images/simple/8.png,images/simple/13.png","1","null","","200","3595.060000002559","","","","background","",""
"","null","html-keyboard-response","182","446065","0.0-17.0-0.34","SS1604513235675","","null","","","","","","","","","","","","<img src=images/blank.png width =""500"" height = ""500"" style=""border:5px solid black"">","","",""
"","1109.6400000024005","stimulus-presentation","183","447378","0.0-17.0-1.34","SS1604513235675","<img src='images/complex/18.png' width ='500' height = '500' style='border:5px solid black'>","40","mixed_simple_deviant","images/complex/10.png","images/complex/18.png","images/simple/12.png,images/simple/15.png,images/simple/9.png,images/simple/2.png,images/simple/18.png,images/simple/8.png,images/simple/13.png","1","null","","200","1309.6400000024005","","","","background","",""
"","null","html-keyboard-response","184","448665","0.0-17.0-0.35","SS1604513235675","","null","","","","","","","","","","","","<img src=images/blank.png width =""500"" height = ""500"" style=""border:5px solid black"">","","",""
"","602.1550000004936","stimulus-presentation","185","449470","0.0-17.0-1.35","SS1604513235675","<img src='images/complex/18.png' width ='500' height = '500' style='border:5px solid black'>","40","mixed_simple_deviant","images/complex/10.png","images/complex/18.png","images/simple/12.png,images/simple/15.png,images/simple/9.png,images/simple/2.png,images/simple/18.png,images/simple/8.png,images/simple/13.png","1","null","","200","802.1550000004936","","","","background","",""
"","null","html-keyboard-response","186","450347","0.0-17.0-0.36","SS1604513235675","","null","","","","","","","","","","","","<img src=images/blank.png width =""500"" height = ""500"" style=""border:5px solid black"">","","",""
"","665.9900000012713","stimulus-presentation","187","451217","0.0-17.0-1.36","SS1604513235675","<img src='images/complex/18.png' width ='500' height = '500' style='border:5px solid black'>","40","mixed_simple_deviant","images/complex/10.png","images/complex/18.png","images/simple/12.png,images/simple/15.png,images/simple/9.png,images/simple/2.png,images/simple/18.png,images/simple/8.png,images/simple/13.png","1","null","","200","865.9900000012713","","","","background","",""
"","null","html-keyboard-response","188","452032","0.0-17.0-0.37","SS1604513235675","","null","","","","","","","","","","","","<img src=images/blank.png width =""500"" height = ""500"" style=""border:5px solid black"">","","",""
"","605.9150000000373","stimulus-presentation","189","452842","0.0-17.0-1.37","SS1604513235675","<img src='images/complex/18.png' width ='500' height = '500' style='border:5px solid black'>","40","mixed_simple_deviant","images/complex/10.png","images/complex/18.png","images/simple/12.png,images/simple/15.png,images/simple/9.png,images/simple/2.png,images/simple/18.png,images/simple/8.png,images/simple/13.png","1","null","","200","805.9150000000373","","","","background","",""
"","null","html-keyboard-response","190","453652","0.0-17.0-0.38","SS1604513235675","","null","","","","","","","","","","","","<img src=images/blank.png width =""500"" height = ""500"" style=""border:5px solid black"">","","",""
"","181.57499999873107","stimulus-presentation","191","454038","0.0-17.0-1.38","SS1604513235675","<img src='images/complex/10.png' width ='500' height = '500' style='border:5px solid black'>","40","mixed_simple_deviant","images/complex/10.png","images/complex/18.png","images/simple/12.png,images/simple/15.png,images/simple/9.png,images/simple/2.png,images/simple/18.png,images/simple/8.png,images/simple/13.png","1","null","","200","381.5749999987311","","","","target","",""
"","null","html-keyboard-response","192","455208","0.0-17.0-0.39","SS1604513235675","","null","","","","","","","","","","","","<img src=images/blank.png width =""500"" height = ""500"" style=""border:5px solid black"">","","",""
"","63.23999999946682","stimulus-presentation","193","455475","0.0-17.0-1.39","SS1604513235675","<img src='images/simple/13.png' width ='500' height = '500' style='border:5px solid black'>","40","mixed_simple_deviant","images/complex/10.png","images/complex/18.png","images/simple/12.png,images/simple/15.png,images/simple/9.png,images/simple/2.png,images/simple/18.png,images/simple/8.png,images/simple/13.png","1","null","","200","263.2399999994668","","","","deviant","",""
"","null","html-keyboard-response","194","456771","0.0-17.0-0.40","SS1604513235675","","null","","","","","","","","","","","","<img src=images/blank.png width =""500"" height = ""500"" style=""border:5px solid black"">","","",""
"","292.40000000206055","stimulus-presentation","195","457267","0.0-17.0-1.40","SS1604513235675","<img src='images/complex/18.png' width ='500' height = '500' style='border:5px solid black'>","40","mixed_simple_deviant","images/complex/10.png","images/complex/18.png","images/simple/12.png,images/simple/15.png,images/simple/9.png,images/simple/2.png,images/simple/18.png,images/simple/8.png,images/simple/13.png","1","null","","200","492.40000000206055","","","","background","",""
"","null","html-keyboard-response","196","458442","0.0-17.0-0.41","SS1604513235675","","null","","","","","","","","","","","","<img src=images/blank.png width =""500"" height = ""500"" style=""border:5px solid black"">","","",""
"","819.1900000020396","stimulus-presentation","197","459465","0.0-17.0-1.41","SS1604513235675","<img src='images/complex/10.png' width ='500' height = '500' style='border:5px solid black'>","40","mixed_simple_deviant","images/complex/10.png","images/complex/18.png","images/simple/12.png,images/simple/15.png,images/simple/9.png,images/simple/2.png,images/simple/18.png,images/simple/8.png,images/simple/13.png","1","null","","200","1019.1900000020396","yes","404.5000000005821","","target","",""
"","null","html-keyboard-response","198","460490","0.0-17.0-0.42","SS1604513235675","","null","","","","","","","","","","","","<img src=images/blank.png width =""500"" height = ""500"" style=""border:5px solid black"">","","",""
"","256.3250000021071","stimulus-presentation","199","460950","0.0-17.0-1.42","SS1604513235675","<img src='images/complex/18.png' width ='500' height = '500' style='border:5px solid black'>","40","mixed_simple_deviant","images/complex/10.png","images/complex/18.png","images/simple/12.png,images/simple/15.png,images/simple/9.png,images/simple/2.png,images/simple/18.png,images/simple/8.png,images/simple/13.png","1","null","","200","456.3250000021071","","","","background","",""
"","null","html-keyboard-response","200","462119","0.0-17.0-0.43","SS1604513235675","","null","","","","","","","","","","","","<img src=images/blank.png width =""500"" height = ""500"" style=""border:5px solid black"">","","",""
"","72.46999999915715","stimulus-presentation","201","462395","0.0-17.0-1.43","SS1604513235675","<img src='images/complex/18.png' width ='500' height = '500' style='border:5px solid black'>","40","mixed_simple_deviant","images/complex/10.png","images/complex/18.png","images/simple/12.png,images/simple/15.png,images/simple/9.png,images/simple/2.png,images/simple/18.png,images/simple/8.png,images/simple/13.png","1","null","","200","272.46999999915715","","","","background","",""
"","null","html-keyboard-response","202","463367","0.0-17.0-0.44","SS1604513235675","","null","","","","","","","","","","","","<img src=images/blank.png width =""500"" height = ""500"" style=""border:5px solid black"">","","",""
"","108.47000000288244","stimulus-presentation","203","463681","0.0-17.0-1.44","SS1604513235675","<img src='images/complex/18.png' width ='500' height = '500' style='border:5px solid black'>","40","mixed_simple_deviant","images/complex/10.png","images/complex/18.png","images/simple/12.png,images/simple/15.png,images/simple/9.png,images/simple/2.png,images/simple/18.png,images/simple/8.png,images/simple/13.png","1","null","","200","308.47000000288244","","","","background","",""
"","null","html-keyboard-response","204","464552","0.0-17.0-0.45","SS1604513235675","","null","","","","","","","","","","","","<img src=images/blank.png width =""500"" height = ""500"" style=""border:5px solid black"">","","",""
"","267.7899999980582","stimulus-presentation","205","465024","0.0-17.0-1.45","SS1604513235675","<img src='images/simple/2.png' width ='500' height = '500' style='border:5px solid black'>","40","mixed_simple_deviant","images/complex/10.png","images/complex/18.png","images/simple/12.png,images/simple/15.png,images/simple/9.png,images/simple/2.png,images/simple/18.png,images/simple/8.png,images/simple/13.png","1","null","","200","467.7899999980582","","","","deviant","",""
"","null","html-keyboard-response","206","466151","0.0-17.0-0.46","SS1604513235675","","null","","","","","","","","","","","","<img src=images/blank.png width =""500"" height = ""500"" style=""border:5px solid black"">","","",""
"","101.73999999824446","stimulus-presentation","207","466456","0.0-17.0-1.46","SS1604513235675","<img src='images/complex/18.png' width ='500' height = '500' style='border:5px solid black'>","40","mixed_simple_deviant","images/complex/10.png","images/complex/18.png","images/simple/12.png,images/simple/15.png,images/simple/9.png,images/simple/2.png,images/simple/18.png,images/simple/8.png,images/simple/13.png","1","null","","200","301.73999999824446","","","","background","",""
"","null","html-keyboard-response","208","467706","0.0-17.0-0.47","SS1604513235675","","null","","","","","","","","","","","","<img src=images/blank.png width =""500"" height = ""500"" style=""border:5px solid black"">","","",""
"","160.13999999995576","stimulus-presentation","209","468070","0.0-17.0-1.47","SS1604513235675","<img src='images/complex/18.png' width ='500' height = '500' style='border:5px solid black'>","40","mixed_simple_deviant","images/complex/10.png","images/complex/18.png","images/simple/12.png,images/simple/15.png,images/simple/9.png,images/simple/2.png,images/simple/18.png,images/simple/8.png,images/simple/13.png","1","null","","200","360.13999999995576","","","","background","",""
"","null","html-keyboard-response","210","468905","0.0-17.0-0.48","SS1604513235675","","null","","","","","","","","","","","","<img src=images/blank.png width =""500"" height = ""500"" style=""border:5px solid black"">","","",""
"","302.75499999697786","stimulus-presentation","211","469412","0.0-17.0-1.48","SS1604513235675","<img src='images/complex/18.png' width ='500' height = '500' style='border:5px solid black'>","40","mixed_simple_deviant","images/complex/10.png","images/complex/18.png","images/simple/12.png,images/simple/15.png,images/simple/9.png,images/simple/2.png,images/simple/18.png,images/simple/8.png,images/simple/13.png","1","null","","200","502.75499999697786","","","","background","",""
"[{""page_index"":0,""viewing_time"":8686}]","8686","task-instructions","212","478101","0.0-18.0","SS1604513235675","","","","","","","","","","","","","","","","",""
"[{""page_index"":0,""viewing_time"":951.8949999983306},{""page_index"":1,""viewing_time"":1823.9250000005704},{""page_index"":2,""viewing_time"":615.1150000005728}]","3391.169999998994","instructions","213","481495","0.0-19.0","SS1604513235675","","","","","","","","","","","","","","","","",""
"","null","html-keyboard-response","214","482533","0.0-20.0-0.0","SS1604513235675","","null","","","","","","","","","","","","<img src=images/blank.png width =""500"" height = ""500"" style=""border:5px solid black"">","","",""
"","1402.8199999993667","stimulus-presentation","215","484140","0.0-20.0-1.0","SS1604513235675","<img src='images/complex/9.png' width ='500' height = '500' style='border:5px solid black'>","40","all_complex","images/complex/9.png","images/complex/17.png","images/complex/5.png,images/complex/16.png,images/complex/11.png,images/complex/7.png,images/complex/3.png,images/complex/2.png,images/complex/6.png","2","null","","200","1602.8199999993667","yes","973.6999999986729","","target","",""
"","null","html-keyboard-response","216","485051","0.0-20.0-0.1","SS1604513235675","","null","","","","","","","","","","","","<img src=images/blank.png width =""500"" height = ""500"" style=""border:5px solid black"">","","",""
"","95.14500000292901","stimulus-presentation","217","485350","0.0-20.0-1.1","SS1604513235675","<img src='images/complex/17.png' width ='500' height = '500' style='border:5px solid black'>","40","all_complex","images/complex/9.png","images/complex/17.png","images/complex/5.png,images/complex/16.png,images/complex/11.png,images/complex/7.png,images/complex/3.png,images/complex/2.png,images/complex/6.png","2","null","","200","295.145000002929","","","","background","",""
"","null","html-keyboard-response","218","486265","0.0-20.0-0.2","SS1604513235675","","null","","","","","","","","","","","","<img src=images/blank.png width =""500"" height = ""500"" style=""border:5px solid black"">","","",""
"","171.89499999955297","stimulus-presentation","219","486641","0.0-20.0-1.2","SS1604513235675","<img src='images/complex/17.png' width ='500' height = '500' style='border:5px solid black'>","40","all_complex","images/complex/9.png","images/complex/17.png","images/complex/5.png,images/complex/16.png,images/complex/11.png,images/complex/7.png,images/complex/3.png,images/complex/2.png,images/complex/6.png","2","null","","200","371.89499999955297","","","","background","",""
"","null","html-keyboard-response","220","487676","0.0-20.0-0.3","SS1604513235675","","null","","","","","","","","","","","","<img src=images/blank.png width =""500"" height = ""500"" style=""border:5px solid black"">","","",""
"","3991.8849999994854","stimulus-presentation","221","491873","0.0-20.0-1.3","SS1604513235675","<img src='images/complex/17.png' width ='500' height = '500' style='border:5px solid black'>","40","all_complex","images/complex/9.png","images/complex/17.png","images/complex/5.png,images/complex/16.png,images/complex/11.png,images/complex/7.png,images/complex/3.png,images/complex/2.png,images/complex/6.png","2","null","","200","4191.884999999485","","","","background","",""
"","null","html-keyboard-response","222","492840","0.0-20.0-0.4","SS1604513235675","","null","","","","","","","","","","","","<img src=images/blank.png width =""500"" height = ""500"" style=""border:5px solid black"">","","",""
"","891.3599999978323","stimulus-presentation","223","493935","0.0-20.0-1.4","SS1604513235675","<img src='images/complex/17.png' width ='500' height = '500' style='border:5px solid black'>","40","all_complex","images/complex/9.png","images/complex/17.png","images/complex/5.png,images/complex/16.png,images/complex/11.png,images/complex/7.png,images/complex/3.png,images/complex/2.png,images/complex/6.png","2","null","","200","1091.3599999978323","","","","background","",""
"","null","html-keyboard-response","224","494949","0.0-20.0-0.5","SS1604513235675","","null","","","","","","","","","","","","<img src=images/blank.png width =""500"" height = ""500"" style=""border:5px solid black"">","","",""
"","579.2099999999045","stimulus-presentation","225","495732","0.0-20.0-1.5","SS1604513235675","<img src='images/complex/17.png' width ='500' height = '500' style='border:5px solid black'>","40","all_complex","images/complex/9.png","images/complex/17.png","images/complex/5.png,images/complex/16.png,images/complex/11.png,images/complex/7.png,images/complex/3.png,images/complex/2.png,images/complex/6.png","2","null","","200","779.2099999999045","","","","background","",""
"","null","html-keyboard-response","226","496800","0.0-20.0-0.6","SS1604513235675","","null","","","","","","","","","","","","<img src=images/blank.png width =""500"" height = ""500"" style=""border:5px solid black"">","","",""
"","279.19500000274274","stimulus-presentation","227","497283","0.0-20.0-1.6","SS1604513235675","<img src='images/complex/3.png' width ='500' height = '500' style='border:5px solid black'>","40","all_complex","images/complex/9.png","images/complex/17.png","images/complex/5.png,images/complex/16.png,images/complex/11.png,images/complex/7.png,images/complex/3.png,images/complex/2.png,images/complex/6.png","2","null","","200","479.19500000274274","","","","deviant","",""
"","null","html-keyboard-response","228","498166","0.0-20.0-0.7","SS1604513235675","","null","","","","","","","","","","","","<img src=images/blank.png width =""500"" height = ""500"" style=""border:5px solid black"">","","",""
"","885.2450000013341","stimulus-presentation","229","499255","0.0-20.0-1.7","SS1604513235675","<img src='images/complex/17.png' width ='500' height = '500' style='border:5px solid black'>","40","all_complex","images/complex/9.png","images/complex/17.png","images/complex/5.png,images/complex/16.png,images/complex/11.png,images/complex/7.png,images/complex/3.png,images/complex/2.png,images/complex/6.png","2","null","","200","1085.2450000013341","","","","background","",""
"","null","html-keyboard-response","230","500132","0.0-20.0-0.8","SS1604513235675","","null","","","","","","","","","","","","<img src=images/blank.png width =""500"" height = ""500"" style=""border:5px solid black"">","","",""
"","591.1899999991874","stimulus-presentation","231","500927","0.0-20.0-1.8","SS1604513235675","<img src='images/complex/17.png' width ='500' height = '500' style='border:5px solid black'>","40","all_complex","images/complex/9.png","images/complex/17.png","images/complex/5.png,images/complex/16.png,images/complex/11.png,images/complex/7.png,images/complex/3.png,images/complex/2.png,images/complex/6.png","2","null","","200","791.1899999991874","","","","background","",""
"","null","html-keyboard-response","232","501775","0.0-20.0-0.9","SS1604513235675","","null","","","","","","","","","","","","<img src=images/blank.png width =""500"" height = ""500"" style=""border:5px solid black"">","","",""
"","1136.4250000006286","stimulus-presentation","233","503115","0.0-20.0-1.9","SS1604513235675","<img src='images/complex/9.png' width ='500' height = '500' style='border:5px solid black'>","40","all_complex","images/complex/9.png","images/complex/17.png","images/complex/5.png,images/complex/16.png,images/complex/11.png,images/complex/7.png,images/complex/3.png,images/complex/2.png,images/complex/6.png","2","null","","200","1336.4250000006286","yes","779.7950000021956","","target","",""
"","null","html-keyboard-response","234","504195","0.0-20.0-0.10","SS1604513235675","","null","","","","","","","","","","","","<img src=images/blank.png width =""500"" height = ""500"" style=""border:5px solid black"">","","",""
"","127.15000000025611","stimulus-presentation","235","504527","0.0-20.0-1.10","SS1604513235675","<img src='images/complex/17.png' width ='500' height = '500' style='border:5px solid black'>","40","all_complex","images/complex/9.png","images/complex/17.png","images/complex/5.png,images/complex/16.png,images/complex/11.png,images/complex/7.png,images/complex/3.png,images/complex/2.png,images/complex/6.png","2","null","","200","327.1500000002561","","","","background","",""
"","null","html-keyboard-response","236","505597","0.0-20.0-0.11","SS1604513235675","","null","","","","","","","","","","","","<img src=images/blank.png width =""500"" height = ""500"" style=""border:5px solid black"">","","",""
"","128.64999999874271","stimulus-presentation","237","505930","0.0-20.0-1.11","SS1604513235675","<img src='images/complex/17.png' width ='500' height = '500' style='border:5px solid black'>","40","all_complex","images/complex/9.png","images/complex/17.png","images/complex/5.png,images/complex/16.png,images/complex/11.png,images/complex/7.png,images/complex/3.png,images/complex/2.png,images/complex/6.png","2","null","","200","328.6499999987427","","","","background","",""
"","null","html-keyboard-response","238","506990","0.0-20.0-0.12","SS1604513235675","","null","","","","","","","","","","","","<img src=images/blank.png width =""500"" height = ""500"" style=""border:5px solid black"">","","",""
"","1029.0900000000256","stimulus-presentation","239","508223","0.0-20.0-1.12","SS1604513235675","<img src='images/complex/9.png' width ='500' height = '500' style='border:5px solid black'>","40","all_complex","images/complex/9.png","images/complex/17.png","images/complex/5.png,images/complex/16.png,images/complex/11.png,images/complex/7.png,images/complex/3.png,images/complex/2.png,images/complex/6.png","2","null","","200","1229.0900000000256","yes","368.45499999978347","","target","",""
"","null","html-keyboard-response","240","509123","0.0-20.0-0.13","SS1604513235675","","null","","","","","","","","","","","","<img src=images/blank.png width =""500"" height = ""500"" style=""border:5px solid black"">","","",""
"","250.81499999947846","stimulus-presentation","241","509578","0.0-20.0-1.13","SS1604513235675","<img src='images/complex/2.png' width ='500' height = '500' style='border:5px solid black'>","40","all_complex","images/complex/9.png","images/complex/17.png","images/complex/5.png,images/complex/16.png,images/complex/11.png,images/complex/7.png,images/complex/3.png,images/complex/2.png,images/complex/6.png","2","null","","200","450.81499999947846","","","","deviant","",""
"","null","html-keyboard-response","242","510623","0.0-20.0-0.14","SS1604513235675","","null","","","","","","","","","","","","<img src=images/blank.png width =""500"" height = ""500"" style=""border:5px solid black"">","","",""
"","116.97999999893364","stimulus-presentation","243","510944","0.0-20.0-1.14","SS1604513235675","<img src='images/complex/17.png' width ='500' height = '500' style='border:5px solid black'>","40","all_complex","images/complex/9.png","images/complex/17.png","images/complex/5.png,images/complex/16.png,images/complex/11.png,images/complex/7.png,images/complex/3.png,images/complex/2.png,images/complex/6.png","2","null","","200","316.97999999893364","","","","background","",""
"","null","html-keyboard-response","244","511846","0.0-20.0-0.15","SS1604513235675","","null","","","","","","","","","","","","<img src=images/blank.png width =""500"" height = ""500"" style=""border:5px solid black"">","","",""
"","160.88999999919906","stimulus-presentation","245","512211","0.0-20.0-1.15","SS1604513235675","<img src='images/complex/17.png' width ='500' height = '500' style='border:5px solid black'>","40","all_complex","images/complex/9.png","images/complex/17.png","images/complex/5.png,images/complex/16.png,images/complex/11.png,images/complex/7.png,images/complex/3.png,images/complex/2.png,images/complex/6.png","2","null","","200","360.88999999919906","","","","background","",""
"","null","html-keyboard-response","246","513137","0.0-20.0-0.16","SS1604513235675","","null","","","","","","","","","","","","<img src=images/blank.png width =""500"" height = ""500"" style=""border:5px solid black"">","","",""
"","109.30499999813037","stimulus-presentation","247","513450","0.0-20.0-1.16","SS1604513235675","<img src='images/complex/17.png' width ='500' height = '500' style='border:5px solid black'>","40","all_complex","images/complex/9.png","images/complex/17.png","images/complex/5.png,images/complex/16.png,images/complex/11.png,images/complex/7.png,images/complex/3.png,images/complex/2.png,images/complex/6.png","2","null","","200","309.30499999813037","","","","background","",""
"","null","html-keyboard-response","248","514703","0.0-20.0-0.17","SS1604513235675","","null","","","","","","","","","","","","<img src=images/blank.png width =""500"" height = ""500"" style=""border:5px solid black"">","","",""
"","123.30999999906635","stimulus-presentation","249","515030","0.0-20.0-1.17","SS1604513235675","<img src='images/complex/17.png' width ='500' height = '500' style='border:5px solid black'>","40","all_complex","images/complex/9.png","images/complex/17.png","images/complex/5.png,images/complex/16.png,images/complex/11.png,images/complex/7.png,images/complex/3.png,images/complex/2.png,images/complex/6.png","2","null","","200","323.30999999906635","","","","background","",""
"","null","html-keyboard-response","250","516238","0.0-20.0-0.18","SS1604513235675","","null","","","","","","","","","","","","<img src=images/blank.png width =""500"" height = ""500"" style=""border:5px solid black"">","","",""
"","119.10999999963678","stimulus-presentation","251","516561","0.0-20.0-1.18","SS1604513235675","<img src='images/complex/17.png' width ='500' height = '500' style='border:5px solid black'>","40","all_complex","images/complex/9.png","images/complex/17.png","images/complex/5.png,images/complex/16.png,images/complex/11.png,images/complex/7.png,images/complex/3.png,images/complex/2.png,images/complex/6.png","2","null","","200","319.1099999996368","","","","background","",""
"","null","html-keyboard-response","252","517791","0.0-20.0-0.19","SS1604513235675","","null","","","","","","","","","","","","<img src=images/blank.png width =""500"" height = ""500"" style=""border:5px solid black"">","","",""
"","107.9200000022538","stimulus-presentation","253","518103","0.0-20.0-1.19","SS1604513235675","<img src='images/complex/17.png' width ='500' height = '500' style='border:5px solid black'>","40","all_complex","images/complex/9.png","images/complex/17.png","images/complex/5.png,images/complex/16.png,images/complex/11.png,images/complex/7.png,images/complex/3.png,images/complex/2.png,images/complex/6.png","2","null","","200","307.9200000022538","","","","background","",""
"","null","html-keyboard-response","254","519407","0.0-20.0-0.20","SS1604513235675","","null","","","","","","","","","","","","<img src=images/blank.png width =""500"" height = ""500"" style=""border:5px solid black"">","","",""
"","159.12000000028638","stimulus-presentation","255","519770","0.0-20.0-1.20","SS1604513235675","<img src='images/complex/17.png' width ='500' height = '500' style='border:5px solid black'>","40","all_complex","images/complex/9.png","images/complex/17.png","images/complex/5.png,images/complex/16.png,images/complex/11.png,images/complex/7.png,images/complex/3.png,images/complex/2.png,images/complex/6.png","2","null","","200","359.1200000002864","","","","background","",""
"","null","html-keyboard-response","256","520799","0.0-20.0-0.21","SS1604513235675","","null","","","","","","","","","","","","<img src=images/blank.png width =""500"" height = ""500"" style=""border:5px solid black"">","","",""
"","288.0799999984447","stimulus-presentation","257","521291","0.0-20.0-1.21","SS1604513235675","<img src='images/complex/5.png' width ='500' height = '500' style='border:5px solid black'>","40","all_complex","images/complex/9.png","images/complex/17.png","images/complex/5.png,images/complex/16.png,images/complex/11.png,images/complex/7.png,images/complex/3.png,images/complex/2.png,images/complex/6.png","2","null","","200","488.0799999984447","","","","deviant","",""
"","null","html-keyboard-response","258","522133","0.0-20.0-0.22","SS1604513235675","","null","","","","","","","","","","","","<img src=images/blank.png width =""500"" height = ""500"" style=""border:5px solid black"">","","",""
"","592.3949999997276","stimulus-presentation","259","522929","0.0-20.0-1.22","SS1604513235675","<img src='images/complex/9.png' width ='500' height = '500' style='border:5px solid black'>","40","all_complex","images/complex/9.png","images/complex/17.png","images/complex/5.png,images/complex/16.png,images/complex/11.png,images/complex/7.png,images/complex/3.png,images/complex/2.png,images/complex/6.png","2","null","","200","792.3949999997276","yes","363.62000000005355","","target","",""
"","null","html-keyboard-response","260","523907","0.0-20.0-0.23","SS1604513235675","","null","","","","","","","","","","","","<img src=images/blank.png width =""500"" height = ""500"" style=""border:5px solid black"">","","",""
"","326.9850000033621","stimulus-presentation","261","524438","0.0-20.0-1.23","SS1604513235675","<img src='images/complex/9.png' width ='500' height = '500' style='border:5px solid black'>","40","all_complex","images/complex/9.png","images/complex/17.png","images/complex/5.png,images/complex/16.png,images/complex/11.png,images/complex/7.png,images/complex/3.png,images/complex/2.png,images/complex/6.png","2","null","","200","526.9850000033621","yes","194.12500000186265","","target","",""
"","null","html-keyboard-response","262","525303","0.0-20.0-0.24","SS1604513235675","","null","","","","","","","","","","","","<img src=images/blank.png width =""500"" height = ""500"" style=""border:5px solid black"">","","",""
"","432.67500000004657","stimulus-presentation","263","525940","0.0-20.0-1.24","SS1604513235675","<img src='images/complex/6.png' width ='500' height = '500' style='border:5px solid black'>","40","all_complex","images/complex/9.png","images/complex/17.png","images/complex/5.png,images/complex/16.png,images/complex/11.png,images/complex/7.png,images/complex/3.png,images/complex/2.png,images/complex/6.png","2","null","","200","632.6750000000466","","","","deviant","",""
"","null","html-keyboard-response","264","527039","0.0-20.0-0.25","SS1604513235675","","null","","","","","","","","","","","","<img src=images/blank.png width =""500"" height = ""500"" style=""border:5px solid black"">","","",""
"","326.3950000000186","stimulus-presentation","265","527569","0.0-20.0-1.25","SS1604513235675","<img src='images/complex/17.png' width ='500' height = '500' style='border:5px solid black'>","40","all_complex","images/complex/9.png","images/complex/17.png","images/complex/5.png,images/complex/16.png,images/complex/11.png,images/complex/7.png,images/complex/3.png,images/complex/2.png,images/complex/6.png","2","null","","200","526.3950000000186","","","","background","",""
"","null","html-keyboard-response","266","528469","0.0-20.0-0.26","SS1604513235675","","null","","","","","","","","","","","","<img src=images/blank.png width =""500"" height = ""500"" style=""border:5px solid black"">","","",""
"","194.3649999992922","stimulus-presentation","267","528868","0.0-20.0-1.26","SS1604513235675","<img src='images/complex/17.png' width ='500' height = '500' style='border:5px solid black'>","40","all_complex","images/complex/9.png","images/complex/17.png","images/complex/5.png,images/complex/16.png,images/complex/11.png,images/complex/7.png,images/complex/3.png,images/complex/2.png,images/complex/6.png","2","null","","200","394.3649999992922","","","","background","",""
"","null","html-keyboard-response","268","529711","0.0-20.0-0.27","SS1604513235675","","null","","","","","","","","","","","","<img src=images/blank.png width =""500"" height = ""500"" style=""border:5px solid black"">","","",""
"","1043.4800000002142","stimulus-presentation","269","530958","0.0-20.0-1.27","SS1604513235675","<img src='images/complex/17.png' width ='500' height = '500' style='border:5px solid black'>","40","all_complex","images/complex/9.png","images/complex/17.png","images/complex/5.png,images/complex/16.png,images/complex/11.png,images/complex/7.png,images/complex/3.png,images/complex/2.png,images/complex/6.png","2","null","","200","1243.4800000002142","","","","background","",""
"","null","html-keyboard-response","270","532059","0.0-20.0-0.28","SS1604513235675","","null","","","","","","","","","","","","<img src=images/blank.png width =""500"" height = ""500"" style=""border:5px solid black"">","","",""
"","186.34500000195112","stimulus-presentation","271","532449","0.0-20.0-1.28","SS1604513235675","<img src='images/complex/17.png' width ='500' height = '500' style='border:5px solid black'>","40","all_complex","images/complex/9.png","images/complex/17.png","images/complex/5.png,images/complex/16.png,images/complex/11.png,images/complex/7.png,images/complex/3.png,images/complex/2.png,images/complex/6.png","2","null","","200","386.3450000019511","","","","background","",""
"","null","html-keyboard-response","272","533595","0.0-20.0-0.29","SS1604513235675","","null","","","","","","","","","","","","<img src=images/blank.png width =""500"" height = ""500"" style=""border:5px solid black"">","","",""
"","1221.914999998291","stimulus-presentation","273","535021","0.0-20.0-1.29","SS1604513235675","<img src='images/complex/9.png' width ='500' height = '500' style='border:5px solid black'>","40","all_complex","images/complex/9.png","images/complex/17.png","images/complex/5.png,images/complex/16.png,images/complex/11.png,images/complex/7.png,images/complex/3.png,images/complex/2.png,images/complex/6.png","2","null","","200","1421.914999998291","yes","400.32499999867287","","target","",""
"","null","html-keyboard-response","274","536187","0.0-20.0-0.30","SS1604513235675","","null","","","","","","","","","","","","<img src=images/blank.png width =""500"" height = ""500"" style=""border:5px solid black"">","","",""
"","298.6300000011688","stimulus-presentation","275","536691","0.0-20.0-1.30","SS1604513235675","<img src='images/complex/17.png' width ='500' height = '500' style='border:5px solid black'>","40","all_complex","images/complex/9.png","images/complex/17.png","images/complex/5.png,images/complex/16.png,images/complex/11.png,images/complex/7.png,images/complex/3.png,images/complex/2.png,images/complex/6.png","2","null","","200","498.6300000011688","","","","background","",""
"","null","html-keyboard-response","276","537901","0.0-20.0-0.31","SS1604513235675","","null","","","","","","","","","","","","<img src=images/blank.png width =""500"" height = ""500"" style=""border:5px solid black"">","","",""
"","139.9299999976065","stimulus-presentation","277","538245","0.0-20.0-1.31","SS1604513235675","<img src='images/complex/17.png' width ='500' height = '500' style='border:5px solid black'>","40","all_complex","images/complex/9.png","images/complex/17.png","images/complex/5.png,images/complex/16.png,images/complex/11.png,images/complex/7.png,images/complex/3.png,images/complex/2.png,images/complex/6.png","2","null","","200","339.9299999976065","","","","background","",""
"","null","html-keyboard-response","278","539286","0.0-20.0-0.32","SS1604513235675","","null","","","","","","","","","","","","<img src=images/blank.png width =""500"" height = ""500"" style=""border:5px solid black"">","","",""
"","155.3349999994971","stimulus-presentation","279","539646","0.0-20.0-1.32","SS1604513235675","<img src='images/complex/17.png' width ='500' height = '500' style='border:5px solid black'>","40","all_complex","images/complex/9.png","images/complex/17.png","images/complex/5.png,images/complex/16.png,images/complex/11.png,images/complex/7.png,images/complex/3.png,images/complex/2.png,images/complex/6.png","2","null","","200","355.3349999994971","","","","background","",""
"","null","html-keyboard-response","280","540820","0.0-20.0-0.33","SS1604513235675","","null","","","","","","","","","","","","<img src=images/blank.png width =""500"" height = ""500"" style=""border:5px solid black"">","","",""
"","253.33999999938533","stimulus-presentation","281","541278","0.0-20.0-1.33","SS1604513235675","<img src='images/complex/17.png' width ='500' height = '500' style='border:5px solid black'>","40","all_complex","images/complex/9.png","images/complex/17.png","images/complex/5.png,images/complex/16.png,images/complex/11.png,images/complex/7.png,images/complex/3.png,images/complex/2.png,images/complex/6.png","2","null","","200","453.3399999993853","","","","background","",""
"","null","html-keyboard-response","282","542095","0.0-20.0-0.34","SS1604513235675","","null","","","","","","","","","","","","<img src=images/blank.png width =""500"" height = ""500"" style=""border:5px solid black"">","","",""
