"view_history","rt","trial_type","trial_index","time_elapsed","internal_node_id","subject","trial_stimulus","key_press","task_type","task_target_stimulus","task_background_stimulus","task_deviant_stimuli","task_order_number","block_order_number","trial_order_number","minimum_viewing_duration","trial_looking_time","trial_pressed_space_bar","trial_space_bar_rt","stimulus","trial_stimulus_type","responses","question_order"
"[{""page_index"":0,""viewing_time"":2573.340000000826}]","2573.6500000002707","instructions","0","2595","0.0-0.0","SS1604514083036","","","","","","","","","","","","","","","","",""
"[{""page_index"":0,""viewing_time"":2497.734999999011},{""page_index"":1,""viewing_time"":3728.510000000824},{""page_index"":2,""viewing_time"":2203.394999998636},{""page_index"":3,""viewing_time"":4631.500000001324},{""page_index"":4,""viewing_time"":3472.074999999677},{""page_index"":5,""viewing_time"":3799.815000000308},{""page_index"":6,""viewing_time"":1188.8749999998254},{""page_index"":7,""viewing_time"":3479.910000000018},{""page_index"":8,""viewing_time"":1384.0449999988778}]","26386.160000000018","instructions","1","28983","0.0-1.0","SS1604514083036","","","","","","","","","","","","","","","","",""
"[{""page_index"":0,""viewing_time"":3022.655000000668},{""page_index"":1,""viewing_time"":4240.120000000388},{""page_index"":2,""viewing_time"":1319.5099999993545}]","8582.555000000866","instructions","2","37567","0.0-2.0","SS1604514083036","","","","","","","","","","","","","","","","",""
"","1507.1349999998347","practice-block","3","39278","0.0-3.0","SS1604514083036","<img src='images/practice/practice_background.jpeg' width ='500' height = '500' style='border:5px solid black'>","40","null","images/practice/practice_target.jpg","null","null","null","null","","200","1707.1349999998347","","","","","",""
"","null","html-keyboard-response","4","40106","0.0-4.0","SS1604514083036","","null","","","","","","","","","","","","<img src=images/blank.png width =""500"" height = ""500"" style=""border:5px solid black"">","","",""
"","499.7300000013638","practice-block","5","40811","0.0-5.0","SS1604514083036","<img src='images/practice/practice_background.jpeg' width ='500' height = '500' style='border:5px solid black'>","40","null","images/practice/practice_target.jpg","null","null","null","null","","200","699.7300000013638","","","","","",""
"","null","html-keyboard-response","6","41715","0.0-6.0","SS1604514083036","","null","","","","","","","","","","","","<img src=images/blank.png width =""500"" height = ""500"" style=""border:5px solid black"">","","",""
"","197.0450000007986","practice-block","7","42117","0.0-7.0","SS1604514083036","<img src='images/practice/practice_deviant.jpeg' width ='500' height = '500' style='border:5px solid black'>","40","null","images/practice/practice_target.jpg","null","null","null","null","","200","397.0450000007986","","","","","",""
"","null","html-keyboard-response","8","43093","0.0-8.0","SS1604514083036","","null","","","","","","","","","","","","<img src=images/blank.png width =""500"" height = ""500"" style=""border:5px solid black"">","","",""
"","4280.7599999996455","practice-block","9","47579","0.0-9.0-0.0","SS1604514083036","<img src='images/practice/practice_target.jpg' width ='500' height = '500' style='border:5px solid black'>","40","null","images/practice/practice_target.jpg","null","null","null","null","","200","4480.7599999996455","yes","226.03499999968335","","","",""
"","null","html-keyboard-response","10","48661","0.0-10.0","SS1604514083036","","null","","","","","","","","","","","","<img src=images/blank.png width =""500"" height = ""500"" style=""border:5px solid black"">","","",""
"","316.515000000436","practice-block","11","49180","0.0-11.0","SS1604514083036","<img src='images/practice/practice_background.jpeg' width ='500' height = '500' style='border:5px solid black'>","40","null","images/practice/practice_target.jpg","null","null","null","null","","200","516.515000000436","","","","","",""
"[{""page_index"":0,""viewing_time"":3304}]","3304","task-instructions","12","52486","0.0-12.0","SS1604514083036","","","","","","","","","","","","","","","","",""
"[{""page_index"":0,""viewing_time"":2775.0249999990046},{""page_index"":1,""viewing_time"":3860.035000001517},{""page_index"":2,""viewing_time"":1212.1399999996356}]","7847.459999999046","instructions","13","60337","0.0-13.0","SS1604514083036","","","","","","","","","","","","","","","","",""
"","null","html-keyboard-response","14","61559","0.0-14.0-0.0","SS1604514083036","","null","","","","","","","","","","","","<img src=images/blank.png width =""500"" height = ""500"" style=""border:5px solid black"">","","",""
"","483.39000000123633","stimulus-presentation","15","62248","0.0-14.0-1.0","SS1604514083036","<img src='images/complex/15.png' width ='500' height = '500' style='border:5px solid black'>","40","mixed_simple_deviant","images/complex/12.png","images/complex/15.png","images/simple/17.png,images/simple/18.png,images/simple/5.png,images/simple/12.png,images/simple/15.png,images/simple/4.png,images/simple/10.png","0","null","","200","683.3900000012363","","","","background","",""
"","null","html-keyboard-response","16","63541","0.0-14.0-0.1","SS1604514083036","","null","","","","","","","","","","","","<img src=images/blank.png width =""500"" height = ""500"" style=""border:5px solid black"">","","",""
"","214.9250000002212","stimulus-presentation","17","63959","0.0-14.0-1.1","SS1604514083036","<img src='images/complex/15.png' width ='500' height = '500' style='border:5px solid black'>","40","mixed_simple_deviant","images/complex/12.png","images/complex/15.png","images/simple/17.png,images/simple/18.png,images/simple/5.png,images/simple/12.png,images/simple/15.png,images/simple/4.png,images/simple/10.png","0","null","","200","414.9250000002212","","","","background","",""
"","null","html-keyboard-response","18","65151","0.0-14.0-0.2","SS1604514083036","","null","","","","","","","","","","","","<img src=images/blank.png width =""500"" height = ""500"" style=""border:5px solid black"">","","",""
"","2099.175000001196","stimulus-presentation","19","67456","0.0-14.0-1.2","SS1604514083036","<img src='images/complex/12.png' width ='500' height = '500' style='border:5px solid black'>","40","mixed_simple_deviant","images/complex/12.png","images/complex/15.png","images/simple/17.png,images/simple/18.png,images/simple/5.png,images/simple/12.png,images/simple/15.png,images/simple/4.png,images/simple/10.png","0","null","","200","2299.175000001196","yes","264.93500000105996","","target","",""
"","null","html-keyboard-response","20","68336","0.0-14.0-0.3","SS1604514083036","","null","","","","","","","","","","","","<img src=images/blank.png width =""500"" height = ""500"" style=""border:5px solid black"">","","",""
"","513.184999999794","stimulus-presentation","21","69055","0.0-14.0-1.3","SS1604514083036","<img src='images/simple/12.png' width ='500' height = '500' style='border:5px solid black'>","40","mixed_simple_deviant","images/complex/12.png","images/complex/15.png","images/simple/17.png,images/simple/18.png,images/simple/5.png,images/simple/12.png,images/simple/15.png,images/simple/4.png,images/simple/10.png","0","null","","200","713.184999999794","","","","deviant","",""
"","null","html-keyboard-response","22","69973","0.0-14.0-0.4","SS1604514083036","","null","","","","","","","","","","","","<img src=images/blank.png width =""500"" height = ""500"" style=""border:5px solid black"">","","",""
"","395.9899999990739","stimulus-presentation","23","70574","0.0-14.0-1.4","SS1604514083036","<img src='images/complex/15.png' width ='500' height = '500' style='border:5px solid black'>","40","mixed_simple_deviant","images/complex/12.png","images/complex/15.png","images/simple/17.png,images/simple/18.png,images/simple/5.png,images/simple/12.png,images/simple/15.png,images/simple/4.png,images/simple/10.png","0","null","","200","595.9899999990739","","","","background","",""
"","null","html-keyboard-response","24","71700","0.0-14.0-0.5","SS1604514083036","","null","","","","","","","","","","","","<img src=images/blank.png width =""500"" height = ""500"" style=""border:5px solid black"">","","",""
"","252.23499999992782","stimulus-presentation","25","72157","0.0-14.0-1.5","SS1604514083036","<img src='images/complex/15.png' width ='500' height = '500' style='border:5px solid black'>","40","mixed_simple_deviant","images/complex/12.png","images/complex/15.png","images/simple/17.png,images/simple/18.png,images/simple/5.png,images/simple/12.png,images/simple/15.png,images/simple/4.png,images/simple/10.png","0","null","","200","452.2349999999278","","","","background","",""
"","null","html-keyboard-response","26","73245","0.0-14.0-0.6","SS1604514083036","","null","","","","","","","","","","","","<img src=images/blank.png width =""500"" height = ""500"" style=""border:5px solid black"">","","",""
"","299.04499999975087","stimulus-presentation","27","73749","0.0-14.0-1.6","SS1604514083036","<img src='images/complex/15.png' width ='500' height = '500' style='border:5px solid black'>","40","mixed_simple_deviant","images/complex/12.png","images/complex/15.png","images/simple/17.png,images/simple/18.png,images/simple/5.png,images/simple/12.png,images/simple/15.png,images/simple/4.png,images/simple/10.png","0","null","","200","499.04499999975087","","","","background","",""
"","null","html-keyboard-response","28","74690","0.0-14.0-0.7","SS1604514083036","","null","","","","","","","","","","","","<img src=images/blank.png width =""500"" height = ""500"" style=""border:5px solid black"">","","",""
"","365.16499999925145","stimulus-presentation","29","75262","0.0-14.0-1.7","SS1604514083036","<img src='images/simple/4.png' width ='500' height = '500' style='border:5px solid black'>","40","mixed_simple_deviant","images/complex/12.png","images/complex/15.png","images/simple/17.png,images/simple/18.png,images/simple/5.png,images/simple/12.png,images/simple/15.png,images/simple/4.png,images/simple/10.png","0","null","","200","565.1649999992514","","","","deviant","",""
"","null","html-keyboard-response","30","76505","0.0-14.0-0.8","SS1604514083036","","null","","","","","","","","","","","","<img src=images/blank.png width =""500"" height = ""500"" style=""border:5px solid black"">","","",""
"","234.75499999949534","stimulus-presentation","31","76943","0.0-14.0-1.8","SS1604514083036","<img src='images/complex/15.png' width ='500' height = '500' style='border:5px solid black'>","40","mixed_simple_deviant","images/complex/12.png","images/complex/15.png","images/simple/17.png,images/simple/18.png,images/simple/5.png,images/simple/12.png,images/simple/15.png,images/simple/4.png,images/simple/10.png","0","null","","200","434.75499999949534","","","","background","",""
"","null","html-keyboard-response","32","78203","0.0-14.0-0.9","SS1604514083036","","null","","","","","","","","","","","","<img src=images/blank.png width =""500"" height = ""500"" style=""border:5px solid black"">","","",""
"","212.29000000130327","stimulus-presentation","33","78622","0.0-14.0-1.9","SS1604514083036","<img src='images/complex/15.png' width ='500' height = '500' style='border:5px solid black'>","40","mixed_simple_deviant","images/complex/12.png","images/complex/15.png","images/simple/17.png,images/simple/18.png,images/simple/5.png,images/simple/12.png,images/simple/15.png,images/simple/4.png,images/simple/10.png","0","null","","200","412.29000000130327","","","","background","",""
"","null","html-keyboard-response","34","79802","0.0-14.0-0.10","SS1604514083036","","null","","","","","","","","","","","","<img src=images/blank.png width =""500"" height = ""500"" style=""border:5px solid black"">","","",""
"","174.4250000010652","stimulus-presentation","35","80181","0.0-14.0-1.10","SS1604514083036","<img src='images/complex/15.png' width ='500' height = '500' style='border:5px solid black'>","40","mixed_simple_deviant","images/complex/12.png","images/complex/15.png","images/simple/17.png,images/simple/18.png,images/simple/5.png,images/simple/12.png,images/simple/15.png,images/simple/4.png,images/simple/10.png","0","null","","200","374.4250000010652","","","","background","",""
"","null","html-keyboard-response","36","81151","0.0-14.0-0.11","SS1604514083036","","null","","","","","","","","","","","","<img src=images/blank.png width =""500"" height = ""500"" style=""border:5px solid black"">","","",""
"","147.10999999988417","stimulus-presentation","37","81500","0.0-14.0-1.11","SS1604514083036","<img src='images/complex/15.png' width ='500' height = '500' style='border:5px solid black'>","40","mixed_simple_deviant","images/complex/12.png","images/complex/15.png","images/simple/17.png,images/simple/18.png,images/simple/5.png,images/simple/12.png,images/simple/15.png,images/simple/4.png,images/simple/10.png","0","null","","200","347.10999999988417","","","","background","",""
"","null","html-keyboard-response","38","82619","0.0-14.0-0.12","SS1604514083036","","null","","","","","","","","","","","","<img src=images/blank.png width =""500"" height = ""500"" style=""border:5px solid black"">","","",""
"","223.08499999962805","stimulus-presentation","39","83046","0.0-14.0-1.12","SS1604514083036","<img src='images/complex/15.png' width ='500' height = '500' style='border:5px solid black'>","40","mixed_simple_deviant","images/complex/12.png","images/complex/15.png","images/simple/17.png,images/simple/18.png,images/simple/5.png,images/simple/12.png,images/simple/15.png,images/simple/4.png,images/simple/10.png","0","null","","200","423.08499999962805","","","","background","",""
"","null","html-keyboard-response","40","84284","0.0-14.0-0.13","SS1604514083036","","null","","","","","","","","","","","","<img src=images/blank.png width =""500"" height = ""500"" style=""border:5px solid black"">","","",""
"","1203.7150000014663","stimulus-presentation","41","85692","0.0-14.0-1.13","SS1604514083036","<img src='images/complex/12.png' width ='500' height = '500' style='border:5px solid black'>","40","mixed_simple_deviant","images/complex/12.png","images/complex/15.png","images/simple/17.png,images/simple/18.png,images/simple/5.png,images/simple/12.png,images/simple/15.png,images/simple/4.png,images/simple/10.png","0","null","","200","1403.7150000014663","yes","292.31000000072527","","target","",""
"","null","html-keyboard-response","42","86912","0.0-14.0-0.14","SS1604514083036","","null","","","","","","","","","","","","<img src=images/blank.png width =""500"" height = ""500"" style=""border:5px solid black"">","","",""
"","179.99500000041735","stimulus-presentation","43","87294","0.0-14.0-1.14","SS1604514083036","<img src='images/complex/15.png' width ='500' height = '500' style='border:5px solid black'>","40","mixed_simple_deviant","images/complex/12.png","images/complex/15.png","images/simple/17.png,images/simple/18.png,images/simple/5.png,images/simple/12.png,images/simple/15.png,images/simple/4.png,images/simple/10.png","0","null","","200","379.99500000041735","","","","background","",""
"","null","html-keyboard-response","44","88238","0.0-14.0-0.15","SS1604514083036","","null","","","","","","","","","","","","<img src=images/blank.png width =""500"" height = ""500"" style=""border:5px solid black"">","","",""
"","96.784999999727","stimulus-presentation","45","88540","0.0-14.0-1.15","SS1604514083036","<img src='images/complex/15.png' width ='500' height = '500' style='border:5px solid black'>","40","mixed_simple_deviant","images/complex/12.png","images/complex/15.png","images/simple/17.png,images/simple/18.png,images/simple/5.png,images/simple/12.png,images/simple/15.png,images/simple/4.png,images/simple/10.png","0","null","","200","296.784999999727","","","","background","",""
"","null","html-keyboard-response","46","89515","0.0-14.0-0.16","SS1604514083036","","null","","","","","","","","","","","","<img src=images/blank.png width =""500"" height = ""500"" style=""border:5px solid black"">","","",""
"","224.94999999980791","stimulus-presentation","47","89942","0.0-14.0-1.16","SS1604514083036","<img src='images/simple/15.png' width ='500' height = '500' style='border:5px solid black'>","40","mixed_simple_deviant","images/complex/12.png","images/complex/15.png","images/simple/17.png,images/simple/18.png,images/simple/5.png,images/simple/12.png,images/simple/15.png,images/simple/4.png,images/simple/10.png","0","null","","200","424.9499999998079","","","","deviant","",""
"","null","html-keyboard-response","48","90908","0.0-14.0-0.17","SS1604514083036","","null","","","","","","","","","","","","<img src=images/blank.png width =""500"" height = ""500"" style=""border:5px solid black"">","","",""
"","171.92500000055588","stimulus-presentation","49","91286","0.0-14.0-1.17","SS1604514083036","<img src='images/complex/15.png' width ='500' height = '500' style='border:5px solid black'>","40","mixed_simple_deviant","images/complex/12.png","images/complex/15.png","images/simple/17.png,images/simple/18.png,images/simple/5.png,images/simple/12.png,images/simple/15.png,images/simple/4.png,images/simple/10.png","0","null","","200","371.9250000005559","","","","background","",""
"","null","html-keyboard-response","50","92095","0.0-14.0-0.18","SS1604514083036","","null","","","","","","","","","","","","<img src=images/blank.png width =""500"" height = ""500"" style=""border:5px solid black"">","","",""
"","174.87500000061118","stimulus-presentation","51","92477","0.0-14.0-1.18","SS1604514083036","<img src='images/complex/15.png' width ='500' height = '500' style='border:5px solid black'>","40","mixed_simple_deviant","images/complex/12.png","images/complex/15.png","images/simple/17.png,images/simple/18.png,images/simple/5.png,images/simple/12.png,images/simple/15.png,images/simple/4.png,images/simple/10.png","0","null","","200","374.8750000006112","","","","background","",""
"","null","html-keyboard-response","52","93475","0.0-14.0-0.19","SS1604514083036","","null","","","","","","","","","","","","<img src=images/blank.png width =""500"" height = ""500"" style=""border:5px solid black"">","","",""
"","118.33000000115135","stimulus-presentation","53","93796","0.0-14.0-1.19","SS1604514083036","<img src='images/complex/12.png' width ='500' height = '500' style='border:5px solid black'>","40","mixed_simple_deviant","images/complex/12.png","images/complex/15.png","images/simple/17.png,images/simple/18.png,images/simple/5.png,images/simple/12.png,images/simple/15.png,images/simple/4.png,images/simple/10.png","0","null","","200","318.33000000115135","","","","target","",""
"","null","html-keyboard-response","54","95078","0.0-14.0-0.20","SS1604514083036","","null","","","","","","","","","","","","<img src=images/blank.png width =""500"" height = ""500"" style=""border:5px solid black"">","","",""
"","1160.6549999996787","stimulus-presentation","55","96446","0.0-14.0-1.20","SS1604514083036","<img src='images/complex/15.png' width ='500' height = '500' style='border:5px solid black'>","40","mixed_simple_deviant","images/complex/12.png","images/complex/15.png","images/simple/17.png,images/simple/18.png,images/simple/5.png,images/simple/12.png,images/simple/15.png,images/simple/4.png,images/simple/10.png","0","null","","200","1360.6549999996787","","","","background","",""
"","null","html-keyboard-response","56","97288","0.0-14.0-0.21","SS1604514083036","","null","","","","","","","","","","","","<img src=images/blank.png width =""500"" height = ""500"" style=""border:5px solid black"">","","",""
"","3020.6899999993766","stimulus-presentation","57","100516","0.0-14.0-1.21","SS1604514083036","<img src='images/complex/12.png' width ='500' height = '500' style='border:5px solid black'>","40","mixed_simple_deviant","images/complex/12.png","images/complex/15.png","images/simple/17.png,images/simple/18.png,images/simple/5.png,images/simple/12.png,images/simple/15.png,images/simple/4.png,images/simple/10.png","0","null","","200","3220.6899999993766","yes","325.18999999956577","","target","",""
"","null","html-keyboard-response","58","101502","0.0-14.0-0.22","SS1604514083036","","null","","","","","","","","","","","","<img src=images/blank.png width =""500"" height = ""500"" style=""border:5px solid black"">","","",""
"","1027.2299999996903","stimulus-presentation","59","102733","0.0-14.0-1.22","SS1604514083036","<img src='images/complex/12.png' width ='500' height = '500' style='border:5px solid black'>","40","mixed_simple_deviant","images/complex/12.png","images/complex/15.png","images/simple/17.png,images/simple/18.png,images/simple/5.png,images/simple/12.png,images/simple/15.png,images/simple/4.png,images/simple/10.png","0","null","","200","1227.2299999996903","yes","347.8999999988446","","target","",""
"","null","html-keyboard-response","60","103631","0.0-14.0-0.23","SS1604514083036","","null","","","","","","","","","","","","<img src=images/blank.png width =""500"" height = ""500"" style=""border:5px solid black"">","","",""
"","288.14000000056694","stimulus-presentation","61","104126","0.0-14.0-1.23","SS1604514083036","<img src='images/complex/15.png' width ='500' height = '500' style='border:5px solid black'>","40","mixed_simple_deviant","images/complex/12.png","images/complex/15.png","images/simple/17.png,images/simple/18.png,images/simple/5.png,images/simple/12.png,images/simple/15.png,images/simple/4.png,images/simple/10.png","0","null","","200","488.14000000056694","","","","background","",""
"","null","html-keyboard-response","62","105262","0.0-14.0-0.24","SS1604514083036","","null","","","","","","","","","","","","<img src=images/blank.png width =""500"" height = ""500"" style=""border:5px solid black"">","","",""
"","334.805000000415","stimulus-presentation","63","105805","0.0-14.0-1.24","SS1604514083036","<img src='images/simple/17.png' width ='500' height = '500' style='border:5px solid black'>","40","mixed_simple_deviant","images/complex/12.png","images/complex/15.png","images/simple/17.png,images/simple/18.png,images/simple/5.png,images/simple/12.png,images/simple/15.png,images/simple/4.png,images/simple/10.png","0","null","","200","534.805000000415","","","","deviant","",""
"","null","html-keyboard-response","64","106986","0.0-14.0-0.25","SS1604514083036","","null","","","","","","","","","","","","<img src=images/blank.png width =""500"" height = ""500"" style=""border:5px solid black"">","","",""
"","1403.3299999991868","stimulus-presentation","65","108596","0.0-14.0-1.25","SS1604514083036","<img src='images/complex/12.png' width ='500' height = '500' style='border:5px solid black'>","40","mixed_simple_deviant","images/complex/12.png","images/complex/15.png","images/simple/17.png,images/simple/18.png,images/simple/5.png,images/simple/12.png,images/simple/15.png,images/simple/4.png,images/simple/10.png","0","null","","200","1603.3299999991868","yes","307.90499999966414","","target","",""
"","null","html-keyboard-response","66","109796","0.0-14.0-0.26","SS1604514083036","","null","","","","","","","","","","","","<img src=images/blank.png width =""500"" height = ""500"" style=""border:5px solid black"">","","",""
"","619.0000000005966","stimulus-presentation","67","110621","0.0-14.0-1.26","SS1604514083036","<img src='images/complex/12.png' width ='500' height = '500' style='border:5px solid black'>","40","mixed_simple_deviant","images/complex/12.png","images/complex/15.png","images/simple/17.png,images/simple/18.png,images/simple/5.png,images/simple/12.png,images/simple/15.png,images/simple/4.png,images/simple/10.png","0","null","","200","819.0000000005966","yes","243.91000000105123","","target","",""
"","null","html-keyboard-response","68","111466","0.0-14.0-0.27","SS1604514083036","","null","","","","","","","","","","","","<img src=images/blank.png width =""500"" height = ""500"" style=""border:5px solid black"">","","",""
"","349.5999999995547","stimulus-presentation","69","112022","0.0-14.0-1.27","SS1604514083036","<img src='images/complex/15.png' width ='500' height = '500' style='border:5px solid black'>","40","mixed_simple_deviant","images/complex/12.png","images/complex/15.png","images/simple/17.png,images/simple/18.png,images/simple/5.png,images/simple/12.png,images/simple/15.png,images/simple/4.png,images/simple/10.png","0","null","","200","549.5999999995547","","","","background","",""
"","null","html-keyboard-response","70","113007","0.0-14.0-0.28","SS1604514083036","","null","","","","","","","","","","","","<img src=images/blank.png width =""500"" height = ""500"" style=""border:5px solid black"">","","",""
"","262.99999999901047","stimulus-presentation","71","113477","0.0-14.0-1.28","SS1604514083036","<img src='images/complex/15.png' width ='500' height = '500' style='border:5px solid black'>","40","mixed_simple_deviant","images/complex/12.png","images/complex/15.png","images/simple/17.png,images/simple/18.png,images/simple/5.png,images/simple/12.png,images/simple/15.png,images/simple/4.png,images/simple/10.png","0","null","","200","462.99999999901047","","","","background","",""
"","null","html-keyboard-response","72","114705","0.0-14.0-0.29","SS1604514083036","","null","","","","","","","","","","","","<img src=images/blank.png width =""500"" height = ""500"" style=""border:5px solid black"">","","",""
"","228.37000000072294","stimulus-presentation","73","115141","0.0-14.0-1.29","SS1604514083036","<img src='images/complex/15.png' width ='500' height = '500' style='border:5px solid black'>","40","mixed_simple_deviant","images/complex/12.png","images/complex/15.png","images/simple/17.png,images/simple/18.png,images/simple/5.png,images/simple/12.png,images/simple/15.png,images/simple/4.png,images/simple/10.png","0","null","","200","428.37000000072294","","","","background","",""
"","null","html-keyboard-response","74","116429","0.0-14.0-0.30","SS1604514083036","","null","","","","","","","","","","","","<img src=images/blank.png width =""500"" height = ""500"" style=""border:5px solid black"">","","",""
"","239.40500000026077","stimulus-presentation","75","116876","0.0-14.0-1.30","SS1604514083036","<img src='images/complex/15.png' width ='500' height = '500' style='border:5px solid black'>","40","mixed_simple_deviant","images/complex/12.png","images/complex/15.png","images/simple/17.png,images/simple/18.png,images/simple/5.png,images/simple/12.png,images/simple/15.png,images/simple/4.png,images/simple/10.png","0","null","","200","439.40500000026077","","","","background","",""
"","null","html-keyboard-response","76","118056","0.0-14.0-0.31","SS1604514083036","","null","","","","","","","","","","","","<img src=images/blank.png width =""500"" height = ""500"" style=""border:5px solid black"">","","",""
"","190.005000000383","stimulus-presentation","77","118452","0.0-14.0-1.31","SS1604514083036","<img src='images/complex/15.png' width ='500' height = '500' style='border:5px solid black'>","40","mixed_simple_deviant","images/complex/12.png","images/complex/15.png","images/simple/17.png,images/simple/18.png,images/simple/5.png,images/simple/12.png,images/simple/15.png,images/simple/4.png,images/simple/10.png","0","null","","200","390.005000000383","","","","background","",""
"","null","html-keyboard-response","78","119368","0.0-14.0-0.32","SS1604514083036","","null","","","","","","","","","","","","<img src=images/blank.png width =""500"" height = ""500"" style=""border:5px solid black"">","","",""
"","219.92999999929452","stimulus-presentation","79","119792","0.0-14.0-1.32","SS1604514083036","<img src='images/complex/15.png' width ='500' height = '500' style='border:5px solid black'>","40","mixed_simple_deviant","images/complex/12.png","images/complex/15.png","images/simple/17.png,images/simple/18.png,images/simple/5.png,images/simple/12.png,images/simple/15.png,images/simple/4.png,images/simple/10.png","0","null","","200","419.9299999992945","","","","background","",""
"","null","html-keyboard-response","80","120874","0.0-14.0-0.33","SS1604514083036","","null","","","","","","","","","","","","<img src=images/blank.png width =""500"" height = ""500"" style=""border:5px solid black"">","","",""
"","205.69999999861466","stimulus-presentation","81","121287","0.0-14.0-1.33","SS1604514083036","<img src='images/complex/15.png' width ='500' height = '500' style='border:5px solid black'>","40","mixed_simple_deviant","images/complex/12.png","images/complex/15.png","images/simple/17.png,images/simple/18.png,images/simple/5.png,images/simple/12.png,images/simple/15.png,images/simple/4.png,images/simple/10.png","0","null","","200","405.69999999861466","","","","background","",""
"","null","html-keyboard-response","82","122415","0.0-14.0-0.34","SS1604514083036","","null","","","","","","","","","","","","<img src=images/blank.png width =""500"" height = ""500"" style=""border:5px solid black"">","","",""
"","212.24500000062108","stimulus-presentation","83","122831","0.0-14.0-1.34","SS1604514083036","<img src='images/simple/18.png' width ='500' height = '500' style='border:5px solid black'>","40","mixed_simple_deviant","images/complex/12.png","images/complex/15.png","images/simple/17.png,images/simple/18.png,images/simple/5.png,images/simple/12.png,images/simple/15.png,images/simple/4.png,images/simple/10.png","0","null","","200","412.2450000006211","","","","deviant","",""
"","null","html-keyboard-response","84","123850","0.0-14.0-0.35","SS1604514083036","","null","","","","","","","","","","","","<img src=images/blank.png width =""500"" height = ""500"" style=""border:5px solid black"">","","",""
"","212.21499999955995","stimulus-presentation","85","124266","0.0-14.0-1.35","SS1604514083036","<img src='images/complex/15.png' width ='500' height = '500' style='border:5px solid black'>","40","mixed_simple_deviant","images/complex/12.png","images/complex/15.png","images/simple/17.png,images/simple/18.png,images/simple/5.png,images/simple/12.png,images/simple/15.png,images/simple/4.png,images/simple/10.png","0","null","","200","412.21499999955995","","","","background","",""
"","null","html-keyboard-response","86","125349","0.0-14.0-0.36","SS1604514083036","","null","","","","","","","","","","","","<img src=images/blank.png width =""500"" height = ""500"" style=""border:5px solid black"">","","",""
"","149.13999999953376","stimulus-presentation","87","125702","0.0-14.0-1.36","SS1604514083036","<img src='images/complex/15.png' width ='500' height = '500' style='border:5px solid black'>","40","mixed_simple_deviant","images/complex/12.png","images/complex/15.png","images/simple/17.png,images/simple/18.png,images/simple/5.png,images/simple/12.png,images/simple/15.png,images/simple/4.png,images/simple/10.png","0","null","","200","349.13999999953376","","","","background","",""
"","null","html-keyboard-response","88","126708","0.0-14.0-0.37","SS1604514083036","","null","","","","","","","","","","","","<img src=images/blank.png width =""500"" height = ""500"" style=""border:5px solid black"">","","",""
"","191.58000000061293","stimulus-presentation","89","127102","0.0-14.0-1.37","SS1604514083036","<img src='images/complex/15.png' width ='500' height = '500' style='border:5px solid black'>","40","mixed_simple_deviant","images/complex/12.png","images/complex/15.png","images/simple/17.png,images/simple/18.png,images/simple/5.png,images/simple/12.png,images/simple/15.png,images/simple/4.png,images/simple/10.png","0","null","","200","391.5800000006129","","","","background","",""
"","null","html-keyboard-response","90","128063","0.0-14.0-0.38","SS1604514083036","","null","","","","","","","","","","","","<img src=images/blank.png width =""500"" height = ""500"" style=""border:5px solid black"">","","",""
"","185.6949999983044","stimulus-presentation","91","128456","0.0-14.0-1.38","SS1604514083036","<img src='images/complex/15.png' width ='500' height = '500' style='border:5px solid black'>","40","mixed_simple_deviant","images/complex/12.png","images/complex/15.png","images/simple/17.png,images/simple/18.png,images/simple/5.png,images/simple/12.png,images/simple/15.png,images/simple/4.png,images/simple/10.png","0","null","","200","385.6949999983044","","","","background","",""
"","null","html-keyboard-response","92","129699","0.0-14.0-0.39","SS1604514083036","","null","","","","","","","","","","","","<img src=images/blank.png width =""500"" height = ""500"" style=""border:5px solid black"">","","",""
"","329.015000001149","stimulus-presentation","93","130232","0.0-14.0-1.39","SS1604514083036","<img src='images/simple/5.png' width ='500' height = '500' style='border:5px solid black'>","40","mixed_simple_deviant","images/complex/12.png","images/complex/15.png","images/simple/17.png,images/simple/18.png,images/simple/5.png,images/simple/12.png,images/simple/15.png,images/simple/4.png,images/simple/10.png","0","null","","200","529.015000001149","","","","deviant","",""
"","null","html-keyboard-response","94","131472","0.0-14.0-0.40","SS1604514083036","","null","","","","","","","","","","","","<img src=images/blank.png width =""500"" height = ""500"" style=""border:5px solid black"">","","",""
"","189.83499999923515","stimulus-presentation","95","131870","0.0-14.0-1.40","SS1604514083036","<img src='images/complex/15.png' width ='500' height = '500' style='border:5px solid black'>","40","mixed_simple_deviant","images/complex/12.png","images/complex/15.png","images/simple/17.png,images/simple/18.png,images/simple/5.png,images/simple/12.png,images/simple/15.png,images/simple/4.png,images/simple/10.png","0","null","","200","389.83499999923515","","","","background","",""
"","null","html-keyboard-response","96","133020","0.0-14.0-0.41","SS1604514083036","","null","","","","","","","","","","","","<img src=images/blank.png width =""500"" height = ""500"" style=""border:5px solid black"">","","",""
"","210.48999999949592","stimulus-presentation","97","133438","0.0-14.0-1.41","SS1604514083036","<img src='images/complex/15.png' width ='500' height = '500' style='border:5px solid black'>","40","mixed_simple_deviant","images/complex/12.png","images/complex/15.png","images/simple/17.png,images/simple/18.png,images/simple/5.png,images/simple/12.png,images/simple/15.png,images/simple/4.png,images/simple/10.png","0","null","","200","410.4899999994959","","","","background","",""
"","null","html-keyboard-response","98","134376","0.0-14.0-0.42","SS1604514083036","","null","","","","","","","","","","","","<img src=images/blank.png width =""500"" height = ""500"" style=""border:5px solid black"">","","",""
"","235.10499999974854","stimulus-presentation","99","134817","0.0-14.0-1.42","SS1604514083036","<img src='images/complex/15.png' width ='500' height = '500' style='border:5px solid black'>","40","mixed_simple_deviant","images/complex/12.png","images/complex/15.png","images/simple/17.png,images/simple/18.png,images/simple/5.png,images/simple/12.png,images/simple/15.png,images/simple/4.png,images/simple/10.png","0","null","","200","435.10499999974854","","","","background","",""
"","null","html-keyboard-response","100","136061","0.0-14.0-0.43","SS1604514083036","","null","","","","","","","","","","","","<img src=images/blank.png width =""500"" height = ""500"" style=""border:5px solid black"">","","",""
"","219.61999999984982","stimulus-presentation","101","136488","0.0-14.0-1.43","SS1604514083036","<img src='images/simple/10.png' width ='500' height = '500' style='border:5px solid black'>","40","mixed_simple_deviant","images/complex/12.png","images/complex/15.png","images/simple/17.png,images/simple/18.png,images/simple/5.png,images/simple/12.png,images/simple/15.png,images/simple/4.png,images/simple/10.png","0","null","","200","419.6199999998498","","","","deviant","",""
"","null","html-keyboard-response","102","137770","0.0-14.0-0.44","SS1604514083036","","null","","","","","","","","","","","","<img src=images/blank.png width =""500"" height = ""500"" style=""border:5px solid black"">","","",""
"","217.9799999994284","stimulus-presentation","103","138191","0.0-14.0-1.44","SS1604514083036","<img src='images/complex/15.png' width ='500' height = '500' style='border:5px solid black'>","40","mixed_simple_deviant","images/complex/12.png","images/complex/15.png","images/simple/17.png,images/simple/18.png,images/simple/5.png,images/simple/12.png,images/simple/15.png,images/simple/4.png,images/simple/10.png","0","null","","200","417.9799999994284","","","","background","",""
"","null","html-keyboard-response","104","139304","0.0-14.0-0.45","SS1604514083036","","null","","","","","","","","","","","","<img src=images/blank.png width =""500"" height = ""500"" style=""border:5px solid black"">","","",""
"","153.1000000013737","stimulus-presentation","105","139664","0.0-14.0-1.45","SS1604514083036","<img src='images/complex/15.png' width ='500' height = '500' style='border:5px solid black'>","40","mixed_simple_deviant","images/complex/12.png","images/complex/15.png","images/simple/17.png,images/simple/18.png,images/simple/5.png,images/simple/12.png,images/simple/15.png,images/simple/4.png,images/simple/10.png","0","null","","200","353.1000000013737","","","","background","",""
"","null","html-keyboard-response","106","140720","0.0-14.0-0.46","SS1604514083036","","null","","","","","","","","","","","","<img src=images/blank.png width =""500"" height = ""500"" style=""border:5px solid black"">","","",""
"","162.1649999997171","stimulus-presentation","107","141085","0.0-14.0-1.46","SS1604514083036","<img src='images/complex/15.png' width ='500' height = '500' style='border:5px solid black'>","40","mixed_simple_deviant","images/complex/12.png","images/complex/15.png","images/simple/17.png,images/simple/18.png,images/simple/5.png,images/simple/12.png,images/simple/15.png,images/simple/4.png,images/simple/10.png","0","null","","200","362.1649999997171","","","","background","",""
"","null","html-keyboard-response","108","142121","0.0-14.0-0.47","SS1604514083036","","null","","","","","","","","","","","","<img src=images/blank.png width =""500"" height = ""500"" style=""border:5px solid black"">","","",""
"","234.44000000017695","stimulus-presentation","109","142558","0.0-14.0-1.47","SS1604514083036","<img src='images/complex/15.png' width ='500' height = '500' style='border:5px solid black'>","40","mixed_simple_deviant","images/complex/12.png","images/complex/15.png","images/simple/17.png,images/simple/18.png,images/simple/5.png,images/simple/12.png,images/simple/15.png,images/simple/4.png,images/simple/10.png","0","null","","200","434.44000000017695","","","","background","",""
"","null","html-keyboard-response","110","143841","0.0-14.0-0.48","SS1604514083036","","null","","","","","","","","","","","","<img src=images/blank.png width =""500"" height = ""500"" style=""border:5px solid black"">","","",""
"","190.0500000010361","stimulus-presentation","111","144239","0.0-14.0-1.48","SS1604514083036","<img src='images/complex/15.png' width ='500' height = '500' style='border:5px solid black'>","40","mixed_simple_deviant","images/complex/12.png","images/complex/15.png","images/simple/17.png,images/simple/18.png,images/simple/5.png,images/simple/12.png,images/simple/15.png,images/simple/4.png,images/simple/10.png","0","null","","200","390.0500000010361","","","","background","",""
"[{""page_index"":0,""viewing_time"":4131}]","4131","task-instructions","112","148378","0.0-15.0","SS1604514083036","","","","","","","","","","","","","","","","",""
"[{""page_index"":0,""viewing_time"":3128.735000000219},{""page_index"":1,""viewing_time"":2759.5700000001816},{""page_index"":2,""viewing_time"":1256.199999999808}]","7144.775000000664","instructions","113","155526","0.0-16.0","SS1604514083036","","","","","","","","","","","","","","","","",""
"","null","html-keyboard-response","114","156706","0.0-17.0-0.0","SS1604514083036","","null","","","","","","","","","","","","<img src=images/blank.png width =""500"" height = ""500"" style=""border:5px solid black"">","","",""
"","322.1349999984959","stimulus-presentation","115","157238","0.0-17.0-1.0","SS1604514083036","<img src='images/complex/14.png' width ='500' height = '500' style='border:5px solid black'>","40","mixed_complex_deviant","images/simple/1.png","images/simple/2.png","images/complex/14.png,images/complex/9.png,images/complex/11.png,images/complex/1.png,images/complex/5.png,images/complex/6.png,images/complex/2.png","1","null","","200","522.1349999984959","","","","deviant","",""
"","null","html-keyboard-response","116","158507","0.0-17.0-0.1","SS1604514083036","","null","","","","","","","","","","","","<img src=images/blank.png width =""500"" height = ""500"" style=""border:5px solid black"">","","",""
"","704.0450000003912","stimulus-presentation","117","159414","0.0-17.0-1.1","SS1604514083036","<img src='images/simple/1.png' width ='500' height = '500' style='border:5px solid black'>","40","mixed_complex_deviant","images/simple/1.png","images/simple/2.png","images/complex/14.png,images/complex/9.png,images/complex/11.png,images/complex/1.png,images/complex/5.png,images/complex/6.png,images/complex/2.png","1","null","","200","904.0450000003912","yes","369.2649999993446","","target","",""
"","null","html-keyboard-response","118","160431","0.0-17.0-0.2","SS1604514083036","","null","","","","","","","","","","","","<img src=images/blank.png width =""500"" height = ""500"" style=""border:5px solid black"">","","",""
"","239.3950000004843","stimulus-presentation","119","160879","0.0-17.0-1.2","SS1604514083036","<img src='images/simple/2.png' width ='500' height = '500' style='border:5px solid black'>","40","mixed_complex_deviant","images/simple/1.png","images/simple/2.png","images/complex/14.png,images/complex/9.png,images/complex/11.png,images/complex/1.png,images/complex/5.png,images/complex/6.png,images/complex/2.png","1","null","","200","439.3950000004843","","","","background","",""
"","null","html-keyboard-response","120","161962","0.0-17.0-0.3","SS1604514083036","","null","","","","","","","","","","","","<img src=images/blank.png width =""500"" height = ""500"" style=""border:5px solid black"">","","",""
"","191.0600000009872","stimulus-presentation","121","162359","0.0-17.0-1.3","SS1604514083036","<img src='images/simple/2.png' width ='500' height = '500' style='border:5px solid black'>","40","mixed_complex_deviant","images/simple/1.png","images/simple/2.png","images/complex/14.png,images/complex/9.png,images/complex/11.png,images/complex/1.png,images/complex/5.png,images/complex/6.png,images/complex/2.png","1","null","","200","391.0600000009872","","","","background","",""
"","null","html-keyboard-response","122","163349","0.0-17.0-0.4","SS1604514083036","","null","","","","","","","","","","","","<img src=images/blank.png width =""500"" height = ""500"" style=""border:5px solid black"">","","",""
"","160.8699999997043","stimulus-presentation","123","163718","0.0-17.0-1.4","SS1604514083036","<img src='images/simple/2.png' width ='500' height = '500' style='border:5px solid black'>","40","mixed_complex_deviant","images/simple/1.png","images/simple/2.png","images/complex/14.png,images/complex/9.png,images/complex/11.png,images/complex/1.png,images/complex/5.png,images/complex/6.png,images/complex/2.png","1","null","","200","360.8699999997043","","","","background","",""
"","null","html-keyboard-response","124","164750","0.0-17.0-0.5","SS1604514083036","","null","","","","","","","","","","","","<img src=images/blank.png width =""500"" height = ""500"" style=""border:5px solid black"">","","",""
"","122.1399999994901","stimulus-presentation","125","165080","0.0-17.0-1.5","SS1604514083036","<img src='images/simple/2.png' width ='500' height = '500' style='border:5px solid black'>","40","mixed_complex_deviant","images/simple/1.png","images/simple/2.png","images/complex/14.png,images/complex/9.png,images/complex/11.png,images/complex/1.png,images/complex/5.png,images/complex/6.png,images/complex/2.png","1","null","","200","322.1399999994901","","","","background","",""
"","null","html-keyboard-response","126","166117","0.0-17.0-0.6","SS1604514083036","","null","","","","","","","","","","","","<img src=images/blank.png width =""500"" height = ""500"" style=""border:5px solid black"">","","",""
"","169.13999999995576","stimulus-presentation","127","166493","0.0-17.0-1.6","SS1604514083036","<img src='images/simple/2.png' width ='500' height = '500' style='border:5px solid black'>","40","mixed_complex_deviant","images/simple/1.png","images/simple/2.png","images/complex/14.png,images/complex/9.png,images/complex/11.png,images/complex/1.png,images/complex/5.png,images/complex/6.png,images/complex/2.png","1","null","","200","369.13999999995576","","","","background","",""
"","null","html-keyboard-response","128","167463","0.0-17.0-0.7","SS1604514083036","","null","","","","","","","","","","","","<img src=images/blank.png width =""500"" height = ""500"" style=""border:5px solid black"">","","",""
"","181.15500000020256","stimulus-presentation","129","167854","0.0-17.0-1.7","SS1604514083036","<img src='images/simple/2.png' width ='500' height = '500' style='border:5px solid black'>","40","mixed_complex_deviant","images/simple/1.png","images/simple/2.png","images/complex/14.png,images/complex/9.png,images/complex/11.png,images/complex/1.png,images/complex/5.png,images/complex/6.png,images/complex/2.png","1","null","","200","381.15500000020256","","","","background","",""
"","null","html-keyboard-response","130","169107","0.0-17.0-0.8","SS1604514083036","","null","","","","","","","","","","","","<img src=images/blank.png width =""500"" height = ""500"" style=""border:5px solid black"">","","",""
"","358.1300000005285","stimulus-presentation","131","169672","0.0-17.0-1.8","SS1604514083036","<img src='images/complex/1.png' width ='500' height = '500' style='border:5px solid black'>","40","mixed_complex_deviant","images/simple/1.png","images/simple/2.png","images/complex/14.png,images/complex/9.png,images/complex/11.png,images/complex/1.png,images/complex/5.png,images/complex/6.png,images/complex/2.png","1","null","","200","558.1300000005285","","","","deviant","",""
"","null","html-keyboard-response","132","170771","0.0-17.0-0.9","SS1604514083036","","null","","","","","","","","","","","","<img src=images/blank.png width =""500"" height = ""500"" style=""border:5px solid black"">","","",""
"","237.18000000008033","stimulus-presentation","133","171215","0.0-17.0-1.9","SS1604514083036","<img src='images/simple/2.png' width ='500' height = '500' style='border:5px solid black'>","40","mixed_complex_deviant","images/simple/1.png","images/simple/2.png","images/complex/14.png,images/complex/9.png,images/complex/11.png,images/complex/1.png,images/complex/5.png,images/complex/6.png,images/complex/2.png","1","null","","200","437.1800000000803","","","","background","",""
"","null","html-keyboard-response","134","172380","0.0-17.0-0.10","SS1604514083036","","null","","","","","","","","","","","","<img src=images/blank.png width =""500"" height = ""500"" style=""border:5px solid black"">","","",""
"","210.12000000156695","stimulus-presentation","135","172798","0.0-17.0-1.10","SS1604514083036","<img src='images/simple/2.png' width ='500' height = '500' style='border:5px solid black'>","40","mixed_complex_deviant","images/simple/1.png","images/simple/2.png","images/complex/14.png,images/complex/9.png,images/complex/11.png,images/complex/1.png,images/complex/5.png,images/complex/6.png,images/complex/2.png","1","null","","200","410.12000000156695","","","","background","",""
"","null","html-keyboard-response","136","173660","0.0-17.0-0.11","SS1604514083036","","null","","","","","","","","","","","","<img src=images/blank.png width =""500"" height = ""500"" style=""border:5px solid black"">","","",""
"","379.8599999991129","stimulus-presentation","137","174247","0.0-17.0-1.11","SS1604514083036","<img src='images/complex/6.png' width ='500' height = '500' style='border:5px solid black'>","40","mixed_complex_deviant","images/simple/1.png","images/simple/2.png","images/complex/14.png,images/complex/9.png,images/complex/11.png,images/complex/1.png,images/complex/5.png,images/complex/6.png,images/complex/2.png","1","null","","200","579.8599999991129","","","","deviant","",""
"","null","html-keyboard-response","138","175513","0.0-17.0-0.12","SS1604514083036","","null","","","","","","","","","","","","<img src=images/blank.png width =""500"" height = ""500"" style=""border:5px solid black"">","","",""
"","218.0649999991292","stimulus-presentation","139","175934","0.0-17.0-1.12","SS1604514083036","<img src='images/simple/2.png' width ='500' height = '500' style='border:5px solid black'>","40","mixed_complex_deviant","images/simple/1.png","images/simple/2.png","images/complex/14.png,images/complex/9.png,images/complex/11.png,images/complex/1.png,images/complex/5.png,images/complex/6.png,images/complex/2.png","1","null","","200","418.0649999991292","","","","background","",""
"","null","html-keyboard-response","140","177058","0.0-17.0-0.13","SS1604514083036","","null","","","","","","","","","","","","<img src=images/blank.png width =""500"" height = ""500"" style=""border:5px solid black"">","","",""
"","200.3450000011071","stimulus-presentation","141","177469","0.0-17.0-1.13","SS1604514083036","<img src='images/simple/2.png' width ='500' height = '500' style='border:5px solid black'>","40","mixed_complex_deviant","images/simple/1.png","images/simple/2.png","images/complex/14.png,images/complex/9.png,images/complex/11.png,images/complex/1.png,images/complex/5.png,images/complex/6.png,images/complex/2.png","1","null","","200","400.3450000011071","","","","background","",""
"","null","html-keyboard-response","142","178414","0.0-17.0-0.14","SS1604514083036","","null","","","","","","","","","","","","<img src=images/blank.png width =""500"" height = ""500"" style=""border:5px solid black"">","","",""
"","232.6400000001595","stimulus-presentation","143","178857","0.0-17.0-1.14","SS1604514083036","<img src='images/simple/2.png' width ='500' height = '500' style='border:5px solid black'>","40","mixed_complex_deviant","images/simple/1.png","images/simple/2.png","images/complex/14.png,images/complex/9.png,images/complex/11.png,images/complex/1.png,images/complex/5.png,images/complex/6.png,images/complex/2.png","1","null","","200","432.6400000001595","","","","background","",""
"","null","html-keyboard-response","144","179896","0.0-17.0-0.15","SS1604514083036","","null","","","","","","","","","","","","<img src=images/blank.png width =""500"" height = ""500"" style=""border:5px solid black"">","","",""
"","226.9550000000745","stimulus-presentation","145","180328","0.0-17.0-1.15","SS1604514083036","<img src='images/simple/2.png' width ='500' height = '500' style='border:5px solid black'>","40","mixed_complex_deviant","images/simple/1.png","images/simple/2.png","images/complex/14.png,images/complex/9.png,images/complex/11.png,images/complex/1.png,images/complex/5.png,images/complex/6.png,images/complex/2.png","1","null","","200","426.9550000000745","","","","background","",""
"","null","html-keyboard-response","146","181325","0.0-17.0-0.16","SS1604514083036","","null","","","","","","","","","","","","<img src=images/blank.png width =""500"" height = ""500"" style=""border:5px solid black"">","","",""
"","227.12000000136322","stimulus-presentation","147","181760","0.0-17.0-1.16","SS1604514083036","<img src='images/simple/2.png' width ='500' height = '500' style='border:5px solid black'>","40","mixed_complex_deviant","images/simple/1.png","images/simple/2.png","images/complex/14.png,images/complex/9.png,images/complex/11.png,images/complex/1.png,images/complex/5.png,images/complex/6.png,images/complex/2.png","1","null","","200","427.1200000013632","","","","background","",""
"","null","html-keyboard-response","148","182696","0.0-17.0-0.17","SS1604514083036","","null","","","","","","","","","","","","<img src=images/blank.png width =""500"" height = ""500"" style=""border:5px solid black"">","","",""
"","192.37000000066473","stimulus-presentation","149","183096","0.0-17.0-1.17","SS1604514083036","<img src='images/simple/2.png' width ='500' height = '500' style='border:5px solid black'>","40","mixed_complex_deviant","images/simple/1.png","images/simple/2.png","images/complex/14.png,images/complex/9.png,images/complex/11.png,images/complex/1.png,images/complex/5.png,images/complex/6.png,images/complex/2.png","1","null","","200","392.37000000066473","","","","background","",""
"","null","html-keyboard-response","150","184174","0.0-17.0-0.18","SS1604514083036","","null","","","","","","","","","","","","<img src=images/blank.png width =""500"" height = ""500"" style=""border:5px solid black"">","","",""
"","145.92999999877065","stimulus-presentation","151","184526","0.0-17.0-1.18","SS1604514083036","<img src='images/simple/2.png' width ='500' height = '500' style='border:5px solid black'>","40","mixed_complex_deviant","images/simple/1.png","images/simple/2.png","images/complex/14.png,images/complex/9.png,images/complex/11.png,images/complex/1.png,images/complex/5.png,images/complex/6.png,images/complex/2.png","1","null","","200","345.92999999877065","","","","background","",""
"","null","html-keyboard-response","152","185670","0.0-17.0-0.19","SS1604514083036","","null","","","","","","","","","","","","<img src=images/blank.png width =""500"" height = ""500"" style=""border:5px solid black"">","","",""
"","671.0800000000745","stimulus-presentation","153","186551","0.0-17.0-1.19","SS1604514083036","<img src='images/simple/1.png' width ='500' height = '500' style='border:5px solid black'>","40","mixed_complex_deviant","images/simple/1.png","images/simple/2.png","images/complex/14.png,images/complex/9.png,images/complex/11.png,images/complex/1.png,images/complex/5.png,images/complex/6.png,images/complex/2.png","1","null","","200","871.0800000000745","yes","368.4699999994482","","target","",""
"","null","html-keyboard-response","154","187776","0.0-17.0-0.20","SS1604514083036","","null","","","","","","","","","","","","<img src=images/blank.png width =""500"" height = ""500"" style=""border:5px solid black"">","","",""
"","285.6900000005844","stimulus-presentation","155","188272","0.0-17.0-1.20","SS1604514083036","<img src='images/simple/2.png' width ='500' height = '500' style='border:5px solid black'>","40","mixed_complex_deviant","images/simple/1.png","images/simple/2.png","images/complex/14.png,images/complex/9.png,images/complex/11.png,images/complex/1.png,images/complex/5.png,images/complex/6.png,images/complex/2.png","1","null","","200","485.6900000005844","","","","background","",""
"","null","html-keyboard-response","156","189202","0.0-17.0-0.21","SS1604514083036","","null","","","","","","","","","","","","<img src=images/blank.png width =""500"" height = ""500"" style=""border:5px solid black"">","","",""
"","285.8300000007148","stimulus-presentation","157","189695","0.0-17.0-1.21","SS1604514083036","<img src='images/simple/2.png' width ='500' height = '500' style='border:5px solid black'>","40","mixed_complex_deviant","images/simple/1.png","images/simple/2.png","images/complex/14.png,images/complex/9.png,images/complex/11.png,images/complex/1.png,images/complex/5.png,images/complex/6.png,images/complex/2.png","1","null","","200","485.8300000007148","","","","background","",""
"","null","html-keyboard-response","158","190914","0.0-17.0-0.22","SS1604514083036","","null","","","","","","","","","","","","<img src=images/blank.png width =""500"" height = ""500"" style=""border:5px solid black"">","","",""
"","372.3300000001618","stimulus-presentation","159","191494","0.0-17.0-1.22","SS1604514083036","<img src='images/complex/9.png' width ='500' height = '500' style='border:5px solid black'>","40","mixed_complex_deviant","images/simple/1.png","images/simple/2.png","images/complex/14.png,images/complex/9.png,images/complex/11.png,images/complex/1.png,images/complex/5.png,images/complex/6.png,images/complex/2.png","1","null","","200","572.3300000001618","","","","deviant","",""
"","null","html-keyboard-response","160","192659","0.0-17.0-0.23","SS1604514083036","","null","","","","","","","","","","","","<img src=images/blank.png width =""500"" height = ""500"" style=""border:5px solid black"">","","",""
"","220.3600000011793","stimulus-presentation","161","193088","0.0-17.0-1.23","SS1604514083036","<img src='images/simple/2.png' width ='500' height = '500' style='border:5px solid black'>","40","mixed_complex_deviant","images/simple/1.png","images/simple/2.png","images/complex/14.png,images/complex/9.png,images/complex/11.png,images/complex/1.png,images/complex/5.png,images/complex/6.png,images/complex/2.png","1","null","","200","420.3600000011793","","","","background","",""
"","null","html-keyboard-response","162","194265","0.0-17.0-0.24","SS1604514083036","","null","","","","","","","","","","","","<img src=images/blank.png width =""500"" height = ""500"" style=""border:5px solid black"">","","",""
"","183.68499999996857","stimulus-presentation","163","194656","0.0-17.0-1.24","SS1604514083036","<img src='images/simple/2.png' width ='500' height = '500' style='border:5px solid black'>","40","mixed_complex_deviant","images/simple/1.png","images/simple/2.png","images/complex/14.png,images/complex/9.png,images/complex/11.png,images/complex/1.png,images/complex/5.png,images/complex/6.png,images/complex/2.png","1","null","","200","383.68499999996857","","","","background","",""
"","null","html-keyboard-response","164","195656","0.0-17.0-0.25","SS1604514083036","","null","","","","","","","","","","","","<img src=images/blank.png width =""500"" height = ""500"" style=""border:5px solid black"">","","",""
"","183.71999999909895","stimulus-presentation","165","196048","0.0-17.0-1.25","SS1604514083036","<img src='images/simple/2.png' width ='500' height = '500' style='border:5px solid black'>","40","mixed_complex_deviant","images/simple/1.png","images/simple/2.png","images/complex/14.png,images/complex/9.png,images/complex/11.png,images/complex/1.png,images/complex/5.png,images/complex/6.png,images/complex/2.png","1","null","","200","383.71999999909895","","","","background","",""
"","null","html-keyboard-response","166","197135","0.0-17.0-0.26","SS1604514083036","","null","","","","","","","","","","","","<img src=images/blank.png width =""500"" height = ""500"" style=""border:5px solid black"">","","",""
"","596.8699999993842","stimulus-presentation","167","197936","0.0-17.0-1.26","SS1604514083036","<img src='images/simple/1.png' width ='500' height = '500' style='border:5px solid black'>","40","mixed_complex_deviant","images/simple/1.png","images/simple/2.png","images/complex/14.png,images/complex/9.png,images/complex/11.png,images/complex/1.png,images/complex/5.png,images/complex/6.png,images/complex/2.png","1","null","","200","796.8699999993842","yes","292.76000000027125","","target","",""
"","null","html-keyboard-response","168","199174","0.0-17.0-0.27","SS1604514083036","","null","","","","","","","","","","","","<img src=images/blank.png width =""500"" height = ""500"" style=""border:5px solid black"">","","",""
"","501.57500000021537","stimulus-presentation","169","199883","0.0-17.0-1.27","SS1604514083036","<img src='images/simple/2.png' width ='500' height = '500' style='border:5px solid black'>","40","mixed_complex_deviant","images/simple/1.png","images/simple/2.png","images/complex/14.png,images/complex/9.png,images/complex/11.png,images/complex/1.png,images/complex/5.png,images/complex/6.png,images/complex/2.png","1","null","","200","701.5750000002154","","","","background","",""
"","null","html-keyboard-response","170","200966","0.0-17.0-0.28","SS1604514083036","","null","","","","","","","","","","","","<img src=images/blank.png width =""500"" height = ""500"" style=""border:5px solid black"">","","",""
"","204.77000000028056","stimulus-presentation","171","201383","0.0-17.0-1.28","SS1604514083036","<img src='images/simple/2.png' width ='500' height = '500' style='border:5px solid black'>","40","mixed_complex_deviant","images/simple/1.png","images/simple/2.png","images/complex/14.png,images/complex/9.png,images/complex/11.png,images/complex/1.png,images/complex/5.png,images/complex/6.png,images/complex/2.png","1","null","","200","404.77000000028056","","","","background","",""
"","null","html-keyboard-response","172","202482","0.0-17.0-0.29","SS1604514083036","","null","","","","","","","","","","","","<img src=images/blank.png width =""500"" height = ""500"" style=""border:5px solid black"">","","",""
"","610.1199999993551","stimulus-presentation","173","203296","0.0-17.0-1.29","SS1604514083036","<img src='images/simple/1.png' width ='500' height = '500' style='border:5px solid black'>","40","mixed_complex_deviant","images/simple/1.png","images/simple/2.png","images/complex/14.png,images/complex/9.png,images/complex/11.png,images/complex/1.png,images/complex/5.png,images/complex/6.png,images/complex/2.png","1","null","","200","810.1199999993551","yes","346.22999999916647","","target","",""
"","null","html-keyboard-response","174","204416","0.0-17.0-0.30","SS1604514083036","","null","","","","","","","","","","","","<img src=images/blank.png width =""500"" height = ""500"" style=""border:5px solid black"">","","",""
"","588.3599999997532","stimulus-presentation","175","205217","0.0-17.0-1.30","SS1604514083036","<img src='images/simple/1.png' width ='500' height = '500' style='border:5px solid black'>","40","mixed_complex_deviant","images/simple/1.png","images/simple/2.png","images/complex/14.png,images/complex/9.png,images/complex/11.png,images/complex/1.png,images/complex/5.png,images/complex/6.png,images/complex/2.png","1","null","","200","788.3599999997532","yes","283.71499999955995","","target","",""
"","null","html-keyboard-response","176","206247","0.0-17.0-0.31","SS1604514083036","","null","","","","","","","","","","","","<img src=images/blank.png width =""500"" height = ""500"" style=""border:5px solid black"">","","",""
"","382.7850000016042","stimulus-presentation","177","206840","0.0-17.0-1.31","SS1604514083036","<img src='images/simple/2.png' width ='500' height = '500' style='border:5px solid black'>","40","mixed_complex_deviant","images/simple/1.png","images/simple/2.png","images/complex/14.png,images/complex/9.png,images/complex/11.png,images/complex/1.png,images/complex/5.png,images/complex/6.png,images/complex/2.png","1","null","","200","582.7850000016042","","","","background","",""
"","null","html-keyboard-response","178","208140","0.0-17.0-0.32","SS1604514083036","","null","","","","","","","","","","","","<img src=images/blank.png width =""500"" height = ""500"" style=""border:5px solid black"">","","",""
"","421.3650000001653","stimulus-presentation","179","208766","0.0-17.0-1.32","SS1604514083036","<img src='images/complex/11.png' width ='500' height = '500' style='border:5px solid black'>","40","mixed_complex_deviant","images/simple/1.png","images/simple/2.png","images/complex/14.png,images/complex/9.png,images/complex/11.png,images/complex/1.png,images/complex/5.png,images/complex/6.png,images/complex/2.png","1","null","","200","621.3650000001653","","","","deviant","",""
"","null","html-keyboard-response","180","209943","0.0-17.0-0.33","SS1604514083036","","null","","","","","","","","","","","","<img src=images/blank.png width =""500"" height = ""500"" style=""border:5px solid black"">","","",""
"","266.26000000035856","stimulus-presentation","181","210422","0.0-17.0-1.33","SS1604514083036","<img src='images/simple/2.png' width ='500' height = '500' style='border:5px solid black'>","40","mixed_complex_deviant","images/simple/1.png","images/simple/2.png","images/complex/14.png,images/complex/9.png,images/complex/11.png,images/complex/1.png,images/complex/5.png,images/complex/6.png,images/complex/2.png","1","null","","200","466.26000000035856","","","","background","",""
"","null","html-keyboard-response","182","211398","0.0-17.0-0.34","SS1604514083036","","null","","","","","","","","","","","","<img src=images/blank.png width =""500"" height = ""500"" style=""border:5px solid black"">","","",""
"","642.6850000007253","stimulus-presentation","183","212248","0.0-17.0-1.34","SS1604514083036","<img src='images/simple/1.png' width ='500' height = '500' style='border:5px solid black'>","40","mixed_complex_deviant","images/simple/1.png","images/simple/2.png","images/complex/14.png,images/complex/9.png,images/complex/11.png,images/complex/1.png,images/complex/5.png,images/complex/6.png,images/complex/2.png","1","null","","200","842.6850000007253","yes","338.1100000006263","","target","",""
"","null","html-keyboard-response","184","213409","0.0-17.0-0.35","SS1604514083036","","null","","","","","","","","","","","","<img src=images/blank.png width =""500"" height = ""500"" style=""border:5px solid black"">","","",""
"","737.0250000003434","stimulus-presentation","185","214360","0.0-17.0-1.35","SS1604514083036","<img src='images/simple/2.png' width ='500' height = '500' style='border:5px solid black'>","40","mixed_complex_deviant","images/simple/1.png","images/simple/2.png","images/complex/14.png,images/complex/9.png,images/complex/11.png,images/complex/1.png,images/complex/5.png,images/complex/6.png,images/complex/2.png","1","null","","200","937.0250000003434","","","","background","",""
"","null","html-keyboard-response","186","215253","0.0-17.0-0.36","SS1604514083036","","null","","","","","","","","","","","","<img src=images/blank.png width =""500"" height = ""500"" style=""border:5px solid black"">","","",""
"","202.92499999961","stimulus-presentation","187","215664","0.0-17.0-1.36","SS1604514083036","<img src='images/simple/2.png' width ='500' height = '500' style='border:5px solid black'>","40","mixed_complex_deviant","images/simple/1.png","images/simple/2.png","images/complex/14.png,images/complex/9.png,images/complex/11.png,images/complex/1.png,images/complex/5.png,images/complex/6.png,images/complex/2.png","1","null","","200","402.92499999961","","","","background","",""
"","null","html-keyboard-response","188","216569","0.0-17.0-0.37","SS1604514083036","","null","","","","","","","","","","","","<img src=images/blank.png width =""500"" height = ""500"" style=""border:5px solid black"">","","",""
"","203.13500000155182","stimulus-presentation","189","216977","0.0-17.0-1.37","SS1604514083036","<img src='images/simple/2.png' width ='500' height = '500' style='border:5px solid black'>","40","mixed_complex_deviant","images/simple/1.png","images/simple/2.png","images/complex/14.png,images/complex/9.png,images/complex/11.png,images/complex/1.png,images/complex/5.png,images/complex/6.png,images/complex/2.png","1","null","","200","403.1350000015518","","","","background","",""
"","null","html-keyboard-response","190","218057","0.0-17.0-0.38","SS1604514083036","","null","","","","","","","","","","","","<img src=images/blank.png width =""500"" height = ""500"" style=""border:5px solid black"">","","",""
"","373.43999999942025","stimulus-presentation","191","218639","0.0-17.0-1.38","SS1604514083036","<img src='images/complex/2.png' width ='500' height = '500' style='border:5px solid black'>","40","mixed_complex_deviant","images/simple/1.png","images/simple/2.png","images/complex/14.png,images/complex/9.png,images/complex/11.png,images/complex/1.png,images/complex/5.png,images/complex/6.png,images/complex/2.png","1","null","","200","573.4399999994203","","","","deviant","",""
"","null","html-keyboard-response","192","219682","0.0-17.0-0.39","SS1604514083036","","null","","","","","","","","","","","","<img src=images/blank.png width =""500"" height = ""500"" style=""border:5px solid black"">","","",""
"","1889.7199999992154","stimulus-presentation","193","221775","0.0-17.0-1.39","SS1604514083036","<img src='images/simple/1.png' width ='500' height = '500' style='border:5px solid black'>","40","mixed_complex_deviant","images/simple/1.png","images/simple/2.png","images/complex/14.png,images/complex/9.png,images/complex/11.png,images/complex/1.png,images/complex/5.png,images/complex/6.png,images/complex/2.png","1","null","","200","2089.7199999992154","yes","330.7749999985681","","target","",""
"","null","html-keyboard-response","194","222913","0.0-17.0-0.40","SS1604514083036","","null","","","","","","","","","","","","<img src=images/blank.png width =""500"" height = ""500"" style=""border:5px solid black"">","","",""
"","291.69499999989057","stimulus-presentation","195","223408","0.0-17.0-1.40","SS1604514083036","<img src='images/simple/2.png' width ='500' height = '500' style='border:5px solid black'>","40","mixed_complex_deviant","images/simple/1.png","images/simple/2.png","images/complex/14.png,images/complex/9.png,images/complex/11.png,images/complex/1.png,images/complex/5.png,images/complex/6.png,images/complex/2.png","1","null","","200","491.69499999989057","","","","background","",""
"","null","html-keyboard-response","196","224253","0.0-17.0-0.41","SS1604514083036","","null","","","","","","","","","","","","<img src=images/blank.png width =""500"" height = ""500"" style=""border:5px solid black"">","","",""
"","246.03999999997905","stimulus-presentation","197","224712","0.0-17.0-1.41","SS1604514083036","<img src='images/simple/2.png' width ='500' height = '500' style='border:5px solid black'>","40","mixed_complex_deviant","images/simple/1.png","images/simple/2.png","images/complex/14.png,images/complex/9.png,images/complex/11.png,images/complex/1.png,images/complex/5.png,images/complex/6.png,images/complex/2.png","1","null","","200","446.03999999997905","","","","background","",""
"","null","html-keyboard-response","198","225731","0.0-17.0-0.42","SS1604514083036","","null","","","","","","","","","","","","<img src=images/blank.png width =""500"" height = ""500"" style=""border:5px solid black"">","","",""
"","192.7849999992759","stimulus-presentation","199","226128","0.0-17.0-1.42","SS1604514083036","<img src='images/simple/2.png' width ='500' height = '500' style='border:5px solid black'>","40","mixed_complex_deviant","images/simple/1.png","images/simple/2.png","images/complex/14.png,images/complex/9.png,images/complex/11.png,images/complex/1.png,images/complex/5.png,images/complex/6.png,images/complex/2.png","1","null","","200","392.7849999992759","","","","background","",""
"","null","html-keyboard-response","200","227095","0.0-17.0-0.43","SS1604514083036","","null","","","","","","","","","","","","<img src=images/blank.png width =""500"" height = ""500"" style=""border:5px solid black"">","","",""
"","248.62500000017462","stimulus-presentation","201","227551","0.0-17.0-1.43","SS1604514083036","<img src='images/simple/2.png' width ='500' height = '500' style='border:5px solid black'>","40","mixed_complex_deviant","images/simple/1.png","images/simple/2.png","images/complex/14.png,images/complex/9.png,images/complex/11.png,images/complex/1.png,images/complex/5.png,images/complex/6.png,images/complex/2.png","1","null","","200","448.6250000001746","","","","background","",""
"","null","html-keyboard-response","202","228726","0.0-17.0-0.44","SS1604514083036","","null","","","","","","","","","","","","<img src=images/blank.png width =""500"" height = ""500"" style=""border:5px solid black"">","","",""
"","484.824999999546","stimulus-presentation","203","229424","0.0-17.0-1.44","SS1604514083036","<img src='images/complex/5.png' width ='500' height = '500' style='border:5px solid black'>","40","mixed_complex_deviant","images/simple/1.png","images/simple/2.png","images/complex/14.png,images/complex/9.png,images/complex/11.png,images/complex/1.png,images/complex/5.png,images/complex/6.png,images/complex/2.png","1","null","","200","684.824999999546","","","","deviant","",""
"","null","html-keyboard-response","204","230343","0.0-17.0-0.45","SS1604514083036","","null","","","","","","","","","","","","<img src=images/blank.png width =""500"" height = ""500"" style=""border:5px solid black"">","","",""
"","256.59500000075786","stimulus-presentation","205","230807","0.0-17.0-1.45","SS1604514083036","<img src='images/simple/2.png' width ='500' height = '500' style='border:5px solid black'>","40","mixed_complex_deviant","images/simple/1.png","images/simple/2.png","images/complex/14.png,images/complex/9.png,images/complex/11.png,images/complex/1.png,images/complex/5.png,images/complex/6.png,images/complex/2.png","1","null","","200","456.59500000075786","","","","background","",""
"","null","html-keyboard-response","206","232058","0.0-17.0-0.46","SS1604514083036","","null","","","","","","","","","","","","<img src=images/blank.png width =""500"" height = ""500"" style=""border:5px solid black"">","","",""
"","252.69000000116648","stimulus-presentation","207","232519","0.0-17.0-1.46","SS1604514083036","<img src='images/simple/2.png' width ='500' height = '500' style='border:5px solid black'>","40","mixed_complex_deviant","images/simple/1.png","images/simple/2.png","images/complex/14.png,images/complex/9.png,images/complex/11.png,images/complex/1.png,images/complex/5.png,images/complex/6.png,images/complex/2.png","1","null","","200","452.6900000011665","","","","background","",""
"","null","html-keyboard-response","208","233585","0.0-17.0-0.47","SS1604514083036","","null","","","","","","","","","","","","<img src=images/blank.png width =""500"" height = ""500"" style=""border:5px solid black"">","","",""
"","225.83499999926426","stimulus-presentation","209","234014","0.0-17.0-1.47","SS1604514083036","<img src='images/simple/2.png' width ='500' height = '500' style='border:5px solid black'>","40","mixed_complex_deviant","images/simple/1.png","images/simple/2.png","images/complex/14.png,images/complex/9.png,images/complex/11.png,images/complex/1.png,images/complex/5.png,images/complex/6.png,images/complex/2.png","1","null","","200","425.83499999926426","","","","background","",""
"","null","html-keyboard-response","210","234990","0.0-17.0-0.48","SS1604514083036","","null","","","","","","","","","","","","<img src=images/blank.png width =""500"" height = ""500"" style=""border:5px solid black"">","","",""
"","208.53499999974156","stimulus-presentation","211","235407","0.0-17.0-1.48","SS1604514083036","<img src='images/simple/2.png' width ='500' height = '500' style='border:5px solid black'>","40","mixed_complex_deviant","images/simple/1.png","images/simple/2.png","images/complex/14.png,images/complex/9.png,images/complex/11.png,images/complex/1.png,images/complex/5.png,images/complex/6.png,images/complex/2.png","1","null","","200","408.53499999974156","","","","background","",""
"[{""page_index"":0,""viewing_time"":3305}]","3306","task-instructions","212","238715","0.0-18.0","SS1604514083036","","","","","","","","","","","","","","","","",""
"[{""page_index"":0,""viewing_time"":2319.349999999744},{""page_index"":1,""viewing_time"":1907.655000000901},{""page_index"":2,""viewing_time"":1324.0599999990081}]","5551.294999999285","instructions","213","244271","0.0-19.0","SS1604514083036","","","","","","","","","","","","","","","","",""
"","null","html-keyboard-response","214","245307","0.0-20.0-0.0","SS1604514083036","","null","","","","","","","","","","","","<img src=images/blank.png width =""500"" height = ""500"" style=""border:5px solid black"">","","",""
"","428.9300000000512","stimulus-presentation","215","245945","0.0-20.0-1.0","SS1604514083036","<img src='images/complex/8.png' width ='500' height = '500' style='border:5px solid black'>","40","all_complex","images/complex/18.png","images/complex/16.png","images/complex/10.png,images/complex/13.png,images/complex/7.png,images/complex/4.png,images/complex/17.png,images/complex/3.png,images/complex/8.png","2","null","","200","628.9300000000512","","","","deviant","",""
"","null","html-keyboard-response","216","247038","0.0-20.0-0.1","SS1604514083036","","null","","","","","","","","","","","","<img src=images/blank.png width =""500"" height = ""500"" style=""border:5px solid black"">","","",""
"","248.95500000094762","stimulus-presentation","217","247495","0.0-20.0-1.1","SS1604514083036","<img src='images/complex/16.png' width ='500' height = '500' style='border:5px solid black'>","40","all_complex","images/complex/18.png","images/complex/16.png","images/complex/10.png,images/complex/13.png,images/complex/7.png,images/complex/4.png,images/complex/17.png,images/complex/3.png,images/complex/8.png","2","null","","200","448.9550000009476","","","","background","",""
"","null","html-keyboard-response","218","248541","0.0-20.0-0.2","SS1604514083036","","null","","","","","","","","","","","","<img src=images/blank.png width =""500"" height = ""500"" style=""border:5px solid black"">","","",""
"","222.6699999991979","stimulus-presentation","219","248969","0.0-20.0-1.2","SS1604514083036","<img src='images/complex/16.png' width ='500' height = '500' style='border:5px solid black'>","40","all_complex","images/complex/18.png","images/complex/16.png","images/complex/10.png,images/complex/13.png,images/complex/7.png,images/complex/4.png,images/complex/17.png,images/complex/3.png,images/complex/8.png","2","null","","200","422.6699999991979","","","","background","",""
"","null","html-keyboard-response","220","250076","0.0-20.0-0.3","SS1604514083036","","null","","","","","","","","","","","","<img src=images/blank.png width =""500"" height = ""500"" style=""border:5px solid black"">","","",""
"","184.66999999870313","stimulus-presentation","221","250470","0.0-20.0-1.3","SS1604514083036","<img src='images/complex/16.png' width ='500' height = '500' style='border:5px solid black'>","40","all_complex","images/complex/18.png","images/complex/16.png","images/complex/10.png,images/complex/13.png,images/complex/7.png,images/complex/4.png,images/complex/17.png,images/complex/3.png,images/complex/8.png","2","null","","200","384.66999999870313","","","","background","",""
"","null","html-keyboard-response","222","251527","0.0-20.0-0.4","SS1604514083036","","null","","","","","","","","","","","","<img src=images/blank.png width =""500"" height = ""500"" style=""border:5px solid black"">","","",""
"","1686.5799999996088","stimulus-presentation","223","253419","0.0-20.0-1.4","SS1604514083036","<img src='images/complex/18.png' width ='500' height = '500' style='border:5px solid black'>","40","all_complex","images/complex/18.png","images/complex/16.png","images/complex/10.png,images/complex/13.png,images/complex/7.png,images/complex/4.png,images/complex/17.png,images/complex/3.png,images/complex/8.png","2","null","","200","1886.5799999996088","yes","842.9950000008976","","target","",""
"","null","html-keyboard-response","224","254602","0.0-20.0-0.5","SS1604514083036","","null","","","","","","","","","","","","<img src=images/blank.png width =""500"" height = ""500"" style=""border:5px solid black"">","","",""
"","314.1649999997462","stimulus-presentation","225","255121","0.0-20.0-1.5","SS1604514083036","<img src='images/complex/16.png' width ='500' height = '500' style='border:5px solid black'>","40","all_complex","images/complex/18.png","images/complex/16.png","images/complex/10.png,images/complex/13.png,images/complex/7.png,images/complex/4.png,images/complex/17.png,images/complex/3.png,images/complex/8.png","2","null","","200","514.1649999997462","","","","background","",""
"","null","html-keyboard-response","226","256342","0.0-20.0-0.6","SS1604514083036","","null","","","","","","","","","","","","<img src=images/blank.png width =""500"" height = ""500"" style=""border:5px solid black"">","","",""
"","231.4900000001362","stimulus-presentation","227","256783","0.0-20.0-1.6","SS1604514083036","<img src='images/complex/16.png' width ='500' height = '500' style='border:5px solid black'>","40","all_complex","images/complex/18.png","images/complex/16.png","images/complex/10.png,images/complex/13.png,images/complex/7.png,images/complex/4.png,images/complex/17.png,images/complex/3.png,images/complex/8.png","2","null","","200","431.4900000001362","","","","background","",""
"","null","html-keyboard-response","228","257963","0.0-20.0-0.7","SS1604514083036","","null","","","","","","","","","","","","<img src=images/blank.png width =""500"" height = ""500"" style=""border:5px solid black"">","","",""
"","155.73000000038883","stimulus-presentation","229","258329","0.0-20.0-1.7","SS1604514083036","<img src='images/complex/16.png' width ='500' height = '500' style='border:5px solid black'>","40","all_complex","images/complex/18.png","images/complex/16.png","images/complex/10.png,images/complex/13.png,images/complex/7.png,images/complex/4.png,images/complex/17.png,images/complex/3.png,images/complex/8.png","2","null","","200","355.7300000003888","","","","background","",""
"","null","html-keyboard-response","230","259601","0.0-20.0-0.8","SS1604514083036","","null","","","","","","","","","","","","<img src=images/blank.png width =""500"" height = ""500"" style=""border:5px solid black"">","","",""
"","374.6849999988917","stimulus-presentation","231","260185","0.0-20.0-1.8","SS1604514083036","<img src='images/complex/10.png' width ='500' height = '500' style='border:5px solid black'>","40","all_complex","images/complex/18.png","images/complex/16.png","images/complex/10.png,images/complex/13.png,images/complex/7.png,images/complex/4.png,images/complex/17.png,images/complex/3.png,images/complex/8.png","2","null","","200","574.6849999988917","","","","deviant","",""
"","null","html-keyboard-response","232","261095","0.0-20.0-0.9","SS1604514083036","","null","","","","","","","","","","","","<img src=images/blank.png width =""500"" height = ""500"" style=""border:5px solid black"">","","",""
"","320.6100000006263","stimulus-presentation","233","261625","0.0-20.0-1.9","SS1604514083036","<img src='images/complex/16.png' width ='500' height = '500' style='border:5px solid black'>","40","all_complex","images/complex/18.png","images/complex/16.png","images/complex/10.png,images/complex/13.png,images/complex/7.png,images/complex/4.png,images/complex/17.png,images/complex/3.png,images/complex/8.png","2","null","","200","520.6100000006263","","","","background","",""
"","null","html-keyboard-response","234","262504","0.0-20.0-0.10","SS1604514083036","","null","","","","","","","","","","","","<img src=images/blank.png width =""500"" height = ""500"" style=""border:5px solid black"">","","",""
"","196.1900000005262","stimulus-presentation","235","262912","0.0-20.0-1.10","SS1604514083036","<img src='images/complex/16.png' width ='500' height = '500' style='border:5px solid black'>","40","all_complex","images/complex/18.png","images/complex/16.png","images/complex/10.png,images/complex/13.png,images/complex/7.png,images/complex/4.png,images/complex/17.png,images/complex/3.png,images/complex/8.png","2","null","","200","396.1900000005262","","","","background","",""
"","null","html-keyboard-response","236","263913","0.0-20.0-0.11","SS1604514083036","","null","","","","","","","","","","","","<img src=images/blank.png width =""500"" height = ""500"" style=""border:5px solid black"">","","",""
"","555.6200000009849","stimulus-presentation","237","264683","0.0-20.0-1.11","SS1604514083036","<img src='images/complex/16.png' width ='500' height = '500' style='border:5px solid black'>","40","all_complex","images/complex/18.png","images/complex/16.png","images/complex/10.png,images/complex/13.png,images/complex/7.png,images/complex/4.png,images/complex/17.png,images/complex/3.png,images/complex/8.png","2","null","","200","755.6200000009849","","","","background","",""
"","null","html-keyboard-response","238","265913","0.0-20.0-0.12","SS1604514083036","","null","","","","","","","","","","","","<img src=images/blank.png width =""500"" height = ""500"" style=""border:5px solid black"">","","",""
"","175.55999999964843","stimulus-presentation","239","266297","0.0-20.0-1.12","SS1604514083036","<img src='images/complex/16.png' width ='500' height = '500' style='border:5px solid black'>","40","all_complex","images/complex/18.png","images/complex/16.png","images/complex/10.png,images/complex/13.png,images/complex/7.png,images/complex/4.png,images/complex/17.png,images/complex/3.png,images/complex/8.png","2","null","","200","375.5599999996484","","","","background","",""
"","null","html-keyboard-response","240","267527","0.0-20.0-0.13","SS1604514083036","","null","","","","","","","","","","","","<img src=images/blank.png width =""500"" height = ""500"" style=""border:5px solid black"">","","",""
"","164.7600000015227","stimulus-presentation","241","267896","0.0-20.0-1.13","SS1604514083036","<img src='images/complex/16.png' width ='500' height = '500' style='border:5px solid black'>","40","all_complex","images/complex/18.png","images/complex/16.png","images/complex/10.png,images/complex/13.png,images/complex/7.png,images/complex/4.png,images/complex/17.png,images/complex/3.png,images/complex/8.png","2","null","","200","364.7600000015227","","","","background","",""
"","null","html-keyboard-response","242","268846","0.0-20.0-0.14","SS1604514083036","","null","","","","","","","","","","","","<img src=images/blank.png width =""500"" height = ""500"" style=""border:5px solid black"">","","",""
"","161.61499999905936","stimulus-presentation","243","269217","0.0-20.0-1.14","SS1604514083036","<img src='images/complex/16.png' width ='500' height = '500' style='border:5px solid black'>","40","all_complex","images/complex/18.png","images/complex/16.png","images/complex/10.png,images/complex/13.png,images/complex/7.png,images/complex/4.png,images/complex/17.png,images/complex/3.png,images/complex/8.png","2","null","","200","361.61499999905936","","","","background","",""
"","null","html-keyboard-response","244","270448","0.0-20.0-0.15","SS1604514083036","","null","","","","","","","","","","","","<img src=images/blank.png width =""500"" height = ""500"" style=""border:5px solid black"">","","",""
"","352.38500000012573","stimulus-presentation","245","271009","0.0-20.0-1.15","SS1604514083036","<img src='images/complex/16.png' width ='500' height = '500' style='border:5px solid black'>","40","all_complex","images/complex/18.png","images/complex/16.png","images/complex/10.png,images/complex/13.png,images/complex/7.png,images/complex/4.png,images/complex/17.png,images/complex/3.png,images/complex/8.png","2","null","","200","552.3850000001257","","","","background","",""
"","null","html-keyboard-response","246","272252","0.0-20.0-0.16","SS1604514083036","","null","","","","","","","","","","","","<img src=images/blank.png width =""500"" height = ""500"" style=""border:5px solid black"">","","",""
"","179.83500000083586","stimulus-presentation","247","272640","0.0-20.0-1.16","SS1604514083036","<img src='images/complex/16.png' width ='500' height = '500' style='border:5px solid black'>","40","all_complex","images/complex/18.png","images/complex/16.png","images/complex/10.png,images/complex/13.png,images/complex/7.png,images/complex/4.png,images/complex/17.png,images/complex/3.png,images/complex/8.png","2","null","","200","379.83500000083586","","","","background","",""
"","null","html-keyboard-response","248","273837","0.0-20.0-0.17","SS1604514083036","","null","","","","","","","","","","","","<img src=images/blank.png width =""500"" height = ""500"" style=""border:5px solid black"">","","",""
"","830.1800000008661","stimulus-presentation","249","274874","0.0-20.0-1.17","SS1604514083036","<img src='images/complex/18.png' width ='500' height = '500' style='border:5px solid black'>","40","all_complex","images/complex/18.png","images/complex/16.png","images/complex/10.png,images/complex/13.png,images/complex/7.png,images/complex/4.png,images/complex/17.png,images/complex/3.png,images/complex/8.png","2","null","","200","1030.1800000008661","yes","572.2999999998137","","target","",""
"","null","html-keyboard-response","250","275717","0.0-20.0-0.18","SS1604514083036","","null","","","","","","","","","","","","<img src=images/blank.png width =""500"" height = ""500"" style=""border:5px solid black"">","","",""
"","724.4099999989267","stimulus-presentation","251","276648","0.0-20.0-1.18","SS1604514083036","<img src='images/complex/18.png' width ='500' height = '500' style='border:5px solid black'>","40","all_complex","images/complex/18.png","images/complex/16.png","images/complex/10.png,images/complex/13.png,images/complex/7.png,images/complex/4.png,images/complex/17.png,images/complex/3.png,images/complex/8.png","2","null","","200","924.4099999989267","yes","371.2949999989942","","target","",""
"","null","html-keyboard-response","252","277606","0.0-20.0-0.19","SS1604514083036","","null","","","","","","","","","","","","<img src=images/blank.png width =""500"" height = ""500"" style=""border:5px solid black"">","","",""
"","357.5350000010221","stimulus-presentation","253","278177","0.0-20.0-1.19","SS1604514083036","<img src='images/complex/16.png' width ='500' height = '500' style='border:5px solid black'>","40","all_complex","images/complex/18.png","images/complex/16.png","images/complex/10.png,images/complex/13.png,images/complex/7.png,images/complex/4.png,images/complex/17.png,images/complex/3.png,images/complex/8.png","2","null","","200","557.5350000010221","","","","background","",""
"","null","html-keyboard-response","254","279408","0.0-20.0-0.20","SS1604514083036","","null","","","","","","","","","","","","<img src=images/blank.png width =""500"" height = ""500"" style=""border:5px solid black"">","","",""
"","364.6650000009686","stimulus-presentation","255","279977","0.0-20.0-1.20","SS1604514083036","<img src='images/complex/17.png' width ='500' height = '500' style='border:5px solid black'>","40","all_complex","images/complex/18.png","images/complex/16.png","images/complex/10.png,images/complex/13.png,images/complex/7.png,images/complex/4.png,images/complex/17.png,images/complex/3.png,images/complex/8.png","2","null","","200","564.6650000009686","","","","deviant","",""
"","null","html-keyboard-response","256","280879","0.0-20.0-0.21","SS1604514083036","","null","","","","","","","","","","","","<img src=images/blank.png width =""500"" height = ""500"" style=""border:5px solid black"">","","",""
"","160.7850000000326","stimulus-presentation","257","281247","0.0-20.0-1.21","SS1604514083036","<img src='images/complex/16.png' width ='500' height = '500' style='border:5px solid black'>","40","all_complex","images/complex/18.png","images/complex/16.png","images/complex/10.png,images/complex/13.png,images/complex/7.png,images/complex/4.png,images/complex/17.png,images/complex/3.png,images/complex/8.png","2","null","","200","360.7850000000326","","","","background","",""
"","null","html-keyboard-response","258","282537","0.0-20.0-0.22","SS1604514083036","","null","","","","","","","","","","","","<img src=images/blank.png width =""500"" height = ""500"" style=""border:5px solid black"">","","",""
"","186.89000000082888","stimulus-presentation","259","282928","0.0-20.0-1.22","SS1604514083036","<img src='images/complex/16.png' width ='500' height = '500' style='border:5px solid black'>","40","all_complex","images/complex/18.png","images/complex/16.png","images/complex/10.png,images/complex/13.png,images/complex/7.png,images/complex/4.png,images/complex/17.png,images/complex/3.png,images/complex/8.png","2","null","","200","386.8900000008289","","","","background","",""
"","null","html-keyboard-response","260","283997","0.0-20.0-0.23","SS1604514083036","","null","","","","","","","","","","","","<img src=images/blank.png width =""500"" height = ""500"" style=""border:5px solid black"">","","",""
"","996.465000000142","stimulus-presentation","261","285202","0.0-20.0-1.23","SS1604514083036","<img src='images/complex/18.png' width ='500' height = '500' style='border:5px solid black'>","40","all_complex","images/complex/18.png","images/complex/16.png","images/complex/10.png,images/complex/13.png,images/complex/7.png,images/complex/4.png,images/complex/17.png,images/complex/3.png,images/complex/8.png","2","null","","200","1196.465000000142","yes","625.1700000011479","","target","",""
"","null","html-keyboard-response","262","286335","0.0-20.0-0.24","SS1604514083036","","null","","","","","","","","","","","","<img src=images/blank.png width =""500"" height = ""500"" style=""border:5px solid black"">","","",""
"","313.36000000010245","stimulus-presentation","263","286857","0.0-20.0-1.24","SS1604514083036","<img src='images/complex/4.png' width ='500' height = '500' style='border:5px solid black'>","40","all_complex","images/complex/18.png","images/complex/16.png","images/complex/10.png,images/complex/13.png,images/complex/7.png,images/complex/4.png,images/complex/17.png,images/complex/3.png,images/complex/8.png","2","null","","200","513.3600000001024","","","","deviant","",""
"","null","html-keyboard-response","264","287782","0.0-20.0-0.25","SS1604514083036","","null","","","","","","","","","","","","<img src=images/blank.png width =""500"" height = ""500"" style=""border:5px solid black"">","","",""
"","246.9249999994645","stimulus-presentation","265","288233","0.0-20.0-1.25","SS1604514083036","<img src='images/complex/16.png' width ='500' height = '500' style='border:5px solid black'>","40","all_complex","images/complex/18.png","images/complex/16.png","images/complex/10.png,images/complex/13.png,images/complex/7.png,images/complex/4.png,images/complex/17.png,images/complex/3.png,images/complex/8.png","2","null","","200","446.9249999994645","","","","background","",""
"","null","html-keyboard-response","266","289200","0.0-20.0-0.26","SS1604514083036","","null","","","","","","","","","","","","<img src=images/blank.png width =""500"" height = ""500"" style=""border:5px solid black"">","","",""
"","294.9950000002282","stimulus-presentation","267","289703","0.0-20.0-1.26","SS1604514083036","<img src='images/complex/16.png' width ='500' height = '500' style='border:5px solid black'>","40","all_complex","images/complex/18.png","images/complex/16.png","images/complex/10.png,images/complex/13.png,images/complex/7.png,images/complex/4.png,images/complex/17.png,images/complex/3.png,images/complex/8.png","2","null","","200","494.9950000002282","","","","background","",""
"","null","html-keyboard-response","268","290743","0.0-20.0-0.27","SS1604514083036","","null","","","","","","","","","","","","<img src=images/blank.png width =""500"" height = ""500"" style=""border:5px solid black"">","","",""
"","168.81999999895925","stimulus-presentation","269","291121","0.0-20.0-1.27","SS1604514083036","<img src='images/complex/16.png' width ='500' height = '500' style='border:5px solid black'>","40","all_complex","images/complex/18.png","images/complex/16.png","images/complex/10.png,images/complex/13.png,images/complex/7.png,images/complex/4.png,images/complex/17.png,images/complex/3.png,images/complex/8.png","2","null","","200","368.81999999895925","","","","background","",""
"","null","html-keyboard-response","270","292178","0.0-20.0-0.28","SS1604514083036","","null","","","","","","","","","","","","<img src=images/blank.png width =""500"" height = ""500"" style=""border:5px solid black"">","","",""
"","172.61999999941327","stimulus-presentation","271","292559","0.0-20.0-1.28","SS1604514083036","<img src='images/complex/16.png' width ='500' height = '500' style='border:5px solid black'>","40","all_complex","images/complex/18.png","images/complex/16.png","images/complex/10.png,images/complex/13.png,images/complex/7.png,images/complex/4.png,images/complex/17.png,images/complex/3.png,images/complex/8.png","2","null","","200","372.61999999941327","","","","background","",""
"","null","html-keyboard-response","272","293464","0.0-20.0-0.29","SS1604514083036","","null","","","","","","","","","","","","<img src=images/blank.png width =""500"" height = ""500"" style=""border:5px solid black"">","","",""
"","163.74999999970896","stimulus-presentation","273","293839","0.0-20.0-1.29","SS1604514083036","<img src='images/complex/16.png' width ='500' height = '500' style='border:5px solid black'>","40","all_complex","images/complex/18.png","images/complex/16.png","images/complex/10.png,images/complex/13.png,images/complex/7.png,images/complex/4.png,images/complex/17.png,images/complex/3.png,images/complex/8.png","2","null","","200","363.74999999970896","","","","background","",""
"","null","html-keyboard-response","274","295065","0.0-20.0-0.30","SS1604514083036","","null","","","","","","","","","","","","<img src=images/blank.png width =""500"" height = ""500"" style=""border:5px solid black"">","","",""
"","982.3999999989755","stimulus-presentation","275","296257","0.0-20.0-1.30","SS1604514083036","<img src='images/complex/18.png' width ='500' height = '500' style='border:5px solid black'>","40","all_complex","images/complex/18.png","images/complex/16.png","images/complex/10.png,images/complex/13.png,images/complex/7.png,images/complex/4.png,images/complex/17.png,images/complex/3.png,images/complex/8.png","2","null","","200","1182.3999999989755","yes","608.5649999986636","","target","",""
"","null","html-keyboard-response","276","297335","0.0-20.0-0.31","SS1604514083036","","null","","","","","","","","","","","","<img src=images/blank.png width =""500"" height = ""500"" style=""border:5px solid black"">","","",""
"","280.6400000008289","stimulus-presentation","277","297823","0.0-20.0-1.31","SS1604514083036","<img src='images/complex/16.png' width ='500' height = '500' style='border:5px solid black'>","40","all_complex","images/complex/18.png","images/complex/16.png","images/complex/10.png,images/complex/13.png,images/complex/7.png,images/complex/4.png,images/complex/17.png,images/complex/3.png,images/complex/8.png","2","null","","200","480.6400000008289","","","","background","",""
"","null","html-keyboard-response","278","299083","0.0-20.0-0.32","SS1604514083036","","null","","","","","","","","","","","","<img src=images/blank.png width =""500"" height = ""500"" style=""border:5px solid black"">","","",""
"","210.81499999854714","stimulus-presentation","279","299502","0.0-20.0-1.32","SS1604514083036","<img src='images/complex/16.png' width ='500' height = '500' style='border:5px solid black'>","40","all_complex","images/complex/18.png","images/complex/16.png","images/complex/10.png,images/complex/13.png,images/complex/7.png,images/complex/4.png,images/complex/17.png,images/complex/3.png,images/complex/8.png","2","null","","200","410.81499999854714","","","","background","",""
"","null","html-keyboard-response","280","300661","0.0-20.0-0.33","SS1604514083036","","null","","","","","","","","","","","","<img src=images/blank.png width =""500"" height = ""500"" style=""border:5px solid black"">","","",""
"","317.1050000000978","stimulus-presentation","281","301192","0.0-20.0-1.33","SS1604514083036","<img src='images/complex/7.png' width ='500' height = '500' style='border:5px solid black'>","40","all_complex","images/complex/18.png","images/complex/16.png","images/complex/10.png,images/complex/13.png,images/complex/7.png,images/complex/4.png,images/complex/17.png,images/complex/3.png,images/complex/8.png","2","null","","200","517.1050000000978","","","","deviant","",""
"","null","html-keyboard-response","282","302045","0.0-20.0-0.34","SS1604514083036","","null","","","","","","","","","","","","<img src=images/blank.png width =""500"" height = ""500"" style=""border:5px solid black"">","","",""
