"view_history","rt","trial_type","trial_index","time_elapsed","internal_node_id","subject","trial_stimulus","key_press","task_type","task_target_stimulus","task_background_stimulus","task_deviant_stimuli","task_order_number","block_order_number","trial_order_number","minimum_viewing_duration","trial_looking_time","trial_pressed_space_bar","trial_space_bar_rt","stimulus","trial_stimulus_type","responses","question_order"
"[{""page_index"":0,""viewing_time"":9811.925000001793}]","9813.15000000177","instructions","0","9832","0.0-0.0","SS1603399414985","","","","","","","","","","","","","","","","",""
"[{""page_index"":0,""viewing_time"":17638.930000000983},{""page_index"":1,""viewing_time"":1849.1050000011455},{""page_index"":2,""viewing_time"":1677.32000000251},{""page_index"":3,""viewing_time"":93806.96499999613},{""page_index"":4,""viewing_time"":2863.710000005085},{""page_index"":5,""viewing_time"":1908.9349999994738},{""page_index"":6,""viewing_time"":1192.6600000006147},{""page_index"":7,""viewing_time"":2336.1299999960465},{""page_index"":8,""viewing_time"":952.0400000037625}]","124226.36000000057","instructions","1","134060","0.0-1.0","SS1603399414985","","","","","","","","","","","","","","","","",""
"[{""page_index"":0,""viewing_time"":1080.3599999926519},{""page_index"":1,""viewing_time"":2545.1650000031805},{""page_index"":2,""viewing_time"":997.7700000017649}]","4623.540000000503","instructions","2","138689","0.0-2.0","SS1603399414985","","","","","","","","","","","","","","","","",""
"","3927.350000012666","practice-block","3","142823","0.0-3.0","SS1603399414985","<img src='images/practice/practice_background.jpeg' width ='500' height = '500' style='border:5px solid black'>","40","null","images/practice/practice_target.jpg","null","null","null","null","","200","4127.350000012666","","","","","",""
"","null","html-keyboard-response","4","143924","0.0-4.0","SS1603399414985","","null","","","","","","","","","","","","<img src=images/blank.png width =""500"" height = ""500"" style=""border:5px solid black"">","","",""
"","433.01000000792556","practice-block","5","144572","0.0-5.0","SS1603399414985","<img src='images/practice/practice_background.jpeg' width ='500' height = '500' style='border:5px solid black'>","40","null","images/practice/practice_target.jpg","null","null","null","null","","200","633.0100000079256","","","","","",""
"","null","html-keyboard-response","6","145805","0.0-6.0","SS1603399414985","","null","","","","","","","","","","","","<img src=images/blank.png width =""500"" height = ""500"" style=""border:5px solid black"">","","",""
"","293.47999999299645","practice-block","7","146309","0.0-7.0","SS1603399414985","<img src='images/practice/practice_deviant.jpeg' width ='500' height = '500' style='border:5px solid black'>","40","null","images/practice/practice_target.jpg","null","null","null","null","","200","493.47999999299645","","","","","",""
"","null","html-keyboard-response","8","147156","0.0-8.0","SS1603399414985","","null","","","","","","","","","","","","<img src=images/blank.png width =""500"" height = ""500"" style=""border:5px solid black"">","","",""
"","156954.70000000205","practice-block","9","304325","0.0-9.0-0.0","SS1603399414985","<img src='images/practice/practice_target.jpg' width ='500' height = '500' style='border:5px solid black'>","40","null","images/practice/practice_target.jpg","null","null","null","null","","200","157154.70000000205","yes","555.04999999539","","","",""
"","null","html-keyboard-response","10","305254","0.0-10.0","SS1603399414985","","null","","","","","","","","","","","","<img src=images/blank.png width =""500"" height = ""500"" style=""border:5px solid black"">","","",""
"","104.77000000537373","practice-block","11","305572","0.0-11.0","SS1603399414985","<img src='images/practice/practice_background.jpeg' width ='500' height = '500' style='border:5px solid black'>","40","null","images/practice/practice_target.jpg","null","null","null","null","","200","304.77000000537373","","","","","",""
"[{""page_index"":0,""viewing_time"":1071}]","1071","task-instructions","12","306652","0.0-12.0","SS1603399414985","","","","","","","","","","","","","","","","",""
"[{""page_index"":0,""viewing_time"":1535.8200000046054},{""page_index"":1,""viewing_time"":5021.689999994123},{""page_index"":0,""viewing_time"":5829.060000003665},{""page_index"":1,""viewing_time"":2698.9699999976438},{""page_index"":2,""viewing_time"":992.259999999078}]","16078.529999998864","instructions","13","322733","0.0-13.0","SS1603399414985","","","","","","","","","","","","","","","","",""
"","null","html-keyboard-response","14","323679","0.0-14.0-0.0","SS1603399414985","","null","","","","","","","","","","","","<img src=images/blank.png width =""500"" height = ""500"" style=""border:5px solid black"">","","",""
"","700.154999998631","stimulus-presentation","15","324599","0.0-14.0-1.0","SS1603399414985","<img src='images/complex/11.png' width ='500' height = '500' style='border:5px solid black'>","40","mixed_simple_deviant","images/complex/12.png","images/complex/11.png","images/simple/18.png,images/simple/16.png,images/simple/15.png,images/simple/17.png,images/simple/3.png,images/simple/10.png,images/simple/9.png","0","null","","200","900.154999998631","","","","background","",""
"","null","html-keyboard-response","16","325602","0.0-14.0-0.1","SS1603399414985","","null","","","","","","","","","","","","<img src=images/blank.png width =""500"" height = ""500"" style=""border:5px solid black"">","","",""
"","554.6449999965262","stimulus-presentation","17","326373","0.0-14.0-1.1","SS1603399414985","<img src='images/simple/15.png' width ='500' height = '500' style='border:5px solid black'>","40","mixed_simple_deviant","images/complex/12.png","images/complex/11.png","images/simple/18.png,images/simple/16.png,images/simple/15.png,images/simple/17.png,images/simple/3.png,images/simple/10.png,images/simple/9.png","0","null","","200","754.6449999965262","","","","deviant","",""
"","null","html-keyboard-response","18","327537","0.0-14.0-0.2","SS1603399414985","","null","","","","","","","","","","","","<img src=images/blank.png width =""500"" height = ""500"" style=""border:5px solid black"">","","",""
"","3804.485000000568","stimulus-presentation","19","331563","0.0-14.0-1.2","SS1603399414985","<img src='images/complex/11.png' width ='500' height = '500' style='border:5px solid black'>","40","mixed_simple_deviant","images/complex/12.png","images/complex/11.png","images/simple/18.png,images/simple/16.png,images/simple/15.png,images/simple/17.png,images/simple/3.png,images/simple/10.png,images/simple/9.png","0","null","","200","4004.485000000568","","","","background","",""
"","null","html-keyboard-response","20","332743","0.0-14.0-0.3","SS1603399414985","","null","","","","","","","","","","","","<img src=images/blank.png width =""500"" height = ""500"" style=""border:5px solid black"">","","",""
"","1791.769999996177","stimulus-presentation","21","334750","0.0-14.0-1.3","SS1603399414985","<img src='images/complex/11.png' width ='500' height = '500' style='border:5px solid black'>","40","mixed_simple_deviant","images/complex/12.png","images/complex/11.png","images/simple/18.png,images/simple/16.png,images/simple/15.png,images/simple/17.png,images/simple/3.png,images/simple/10.png,images/simple/9.png","0","null","","200","1991.769999996177","","","","background","",""
"","null","html-keyboard-response","22","335586","0.0-14.0-0.4","SS1603399414985","","null","","","","","","","","","","","","<img src=images/blank.png width =""500"" height = ""500"" style=""border:5px solid black"">","","",""
"","148.85499999218155","stimulus-presentation","23","335949","0.0-14.0-1.4","SS1603399414985","<img src='images/complex/11.png' width ='500' height = '500' style='border:5px solid black'>","40","mixed_simple_deviant","images/complex/12.png","images/complex/11.png","images/simple/18.png,images/simple/16.png,images/simple/15.png,images/simple/17.png,images/simple/3.png,images/simple/10.png,images/simple/9.png","0","null","","200","348.85499999218155","","","","background","",""
"","null","html-keyboard-response","24","337258","0.0-14.0-0.5","SS1603399414985","","null","","","","","","","","","","","","<img src=images/blank.png width =""500"" height = ""500"" style=""border:5px solid black"">","","",""
"","170.5800000054296","stimulus-presentation","25","337645","0.0-14.0-1.5","SS1603399414985","<img src='images/complex/11.png' width ='500' height = '500' style='border:5px solid black'>","40","mixed_simple_deviant","images/complex/12.png","images/complex/11.png","images/simple/18.png,images/simple/16.png,images/simple/15.png,images/simple/17.png,images/simple/3.png,images/simple/10.png,images/simple/9.png","0","null","","200","370.5800000054296","","","","background","",""
"","null","html-keyboard-response","26","338925","0.0-14.0-0.6","SS1603399414985","","null","","","","","","","","","","","","<img src=images/blank.png width =""500"" height = ""500"" style=""border:5px solid black"">","","",""
"","168.19500000565313","stimulus-presentation","27","339303","0.0-14.0-1.6","SS1603399414985","<img src='images/complex/11.png' width ='500' height = '500' style='border:5px solid black'>","40","mixed_simple_deviant","images/complex/12.png","images/complex/11.png","images/simple/18.png,images/simple/16.png,images/simple/15.png,images/simple/17.png,images/simple/3.png,images/simple/10.png,images/simple/9.png","0","null","","200","368.1950000056531","","","","background","",""
"","null","html-keyboard-response","28","340516","0.0-14.0-0.7","SS1603399414985","","null","","","","","","","","","","","","<img src=images/blank.png width =""500"" height = ""500"" style=""border:5px solid black"">","","",""
"","647.8799999895273","stimulus-presentation","29","341382","0.0-14.0-1.7","SS1603399414985","<img src='images/simple/17.png' width ='500' height = '500' style='border:5px solid black'>","40","mixed_simple_deviant","images/complex/12.png","images/complex/11.png","images/simple/18.png,images/simple/16.png,images/simple/15.png,images/simple/17.png,images/simple/3.png,images/simple/10.png,images/simple/9.png","0","null","","200","847.8799999895273","","","","deviant","",""
"","null","html-keyboard-response","30","342424","0.0-14.0-0.8","SS1603399414985","","null","","","","","","","","","","","","<img src=images/blank.png width =""500"" height = ""500"" style=""border:5px solid black"">","","",""
"","264.1949999961071","stimulus-presentation","31","342905","0.0-14.0-1.8","SS1603399414985","<img src='images/complex/11.png' width ='500' height = '500' style='border:5px solid black'>","40","mixed_simple_deviant","images/complex/12.png","images/complex/11.png","images/simple/18.png,images/simple/16.png,images/simple/15.png,images/simple/17.png,images/simple/3.png,images/simple/10.png,images/simple/9.png","0","null","","200","464.1949999961071","","","","background","",""
"","null","html-keyboard-response","32","344010","0.0-14.0-0.9","SS1603399414985","","null","","","","","","","","","","","","<img src=images/blank.png width =""500"" height = ""500"" style=""border:5px solid black"">","","",""
"","126.64000000222586","stimulus-presentation","33","344357","0.0-14.0-1.9","SS1603399414985","<img src='images/complex/12.png' width ='500' height = '500' style='border:5px solid black'>","40","mixed_simple_deviant","images/complex/12.png","images/complex/11.png","images/simple/18.png,images/simple/16.png,images/simple/15.png,images/simple/17.png,images/simple/3.png,images/simple/10.png,images/simple/9.png","0","null","","200","326.64000000222586","","","","target","",""
"","null","html-keyboard-response","34","345273","0.0-14.0-0.10","SS1603399414985","","null","","","","","","","","","","","","<img src=images/blank.png width =""500"" height = ""500"" style=""border:5px solid black"">","","",""
"","2874.145000008866","stimulus-presentation","35","348366","0.0-14.0-1.10","SS1603399414985","<img src='images/complex/12.png' width ='500' height = '500' style='border:5px solid black'>","40","mixed_simple_deviant","images/complex/12.png","images/complex/11.png","images/simple/18.png,images/simple/16.png,images/simple/15.png,images/simple/17.png,images/simple/3.png,images/simple/10.png,images/simple/9.png","0","null","","200","3074.145000008866","yes","802.0550000073854","","target","",""
"","null","html-keyboard-response","36","349205","0.0-14.0-0.11","SS1603399414985","","null","","","","","","","","","","","","<img src=images/blank.png width =""500"" height = ""500"" style=""border:5px solid black"">","","",""
"","363.6150000093039","stimulus-presentation","37","349789","0.0-14.0-1.11","SS1603399414985","<img src='images/complex/11.png' width ='500' height = '500' style='border:5px solid black'>","40","mixed_simple_deviant","images/complex/12.png","images/complex/11.png","images/simple/18.png,images/simple/16.png,images/simple/15.png,images/simple/17.png,images/simple/3.png,images/simple/10.png,images/simple/9.png","0","null","","200","563.6150000093039","","","","background","",""
"","null","html-keyboard-response","38","350736","0.0-14.0-0.12","SS1603399414985","","null","","","","","","","","","","","","<img src=images/blank.png width =""500"" height = ""500"" style=""border:5px solid black"">","","",""
"","193.19999999424908","stimulus-presentation","39","351149","0.0-14.0-1.12","SS1603399414985","<img src='images/complex/11.png' width ='500' height = '500' style='border:5px solid black'>","40","mixed_simple_deviant","images/complex/12.png","images/complex/11.png","images/simple/18.png,images/simple/16.png,images/simple/15.png,images/simple/17.png,images/simple/3.png,images/simple/10.png,images/simple/9.png","0","null","","200","393.1999999942491","","","","background","",""
"","null","html-keyboard-response","40","352144","0.0-14.0-0.13","SS1603399414985","","null","","","","","","","","","","","","<img src=images/blank.png width =""500"" height = ""500"" style=""border:5px solid black"">","","",""
"","196.94500000332482","stimulus-presentation","41","352564","0.0-14.0-1.13","SS1603399414985","<img src='images/complex/11.png' width ='500' height = '500' style='border:5px solid black'>","40","mixed_simple_deviant","images/complex/12.png","images/complex/11.png","images/simple/18.png,images/simple/16.png,images/simple/15.png,images/simple/17.png,images/simple/3.png,images/simple/10.png,images/simple/9.png","0","null","","200","396.9450000033248","","","","background","",""
"","null","html-keyboard-response","42","353721","0.0-14.0-0.14","SS1603399414985","","null","","","","","","","","","","","","<img src=images/blank.png width =""500"" height = ""500"" style=""border:5px solid black"">","","",""
"","188.7750000023516","stimulus-presentation","43","354130","0.0-14.0-1.14","SS1603399414985","<img src='images/complex/12.png' width ='500' height = '500' style='border:5px solid black'>","40","mixed_simple_deviant","images/complex/12.png","images/complex/11.png","images/simple/18.png,images/simple/16.png,images/simple/15.png,images/simple/17.png,images/simple/3.png,images/simple/10.png,images/simple/9.png","0","null","","200","388.7750000023516","","","","target","",""
"","null","html-keyboard-response","44","355401","0.0-14.0-0.15","SS1603399414985","","null","","","","","","","","","","","","<img src=images/blank.png width =""500"" height = ""500"" style=""border:5px solid black"">","","",""
"","192.28499999735504","stimulus-presentation","45","355813","0.0-14.0-1.15","SS1603399414985","<img src='images/simple/16.png' width ='500' height = '500' style='border:5px solid black'>","40","mixed_simple_deviant","images/complex/12.png","images/complex/11.png","images/simple/18.png,images/simple/16.png,images/simple/15.png,images/simple/17.png,images/simple/3.png,images/simple/10.png,images/simple/9.png","0","null","","200","392.28499999735504","","","","deviant","",""
"","null","html-keyboard-response","46","356778","0.0-14.0-0.16","SS1603399414985","","null","","","","","","","","","","","","<img src=images/blank.png width =""500"" height = ""500"" style=""border:5px solid black"">","","",""
"","126.66999999783002","stimulus-presentation","47","357125","0.0-14.0-1.16","SS1603399414985","<img src='images/complex/11.png' width ='500' height = '500' style='border:5px solid black'>","40","mixed_simple_deviant","images/complex/12.png","images/complex/11.png","images/simple/18.png,images/simple/16.png,images/simple/15.png,images/simple/17.png,images/simple/3.png,images/simple/10.png,images/simple/9.png","0","null","","200","326.66999999783","","","","background","",""
"","null","html-keyboard-response","48","358304","0.0-14.0-0.17","SS1603399414985","","null","","","","","","","","","","","","<img src=images/blank.png width =""500"" height = ""500"" style=""border:5px solid black"">","","",""
"","742.6799999957439","stimulus-presentation","49","359270","0.0-14.0-1.17","SS1603399414985","<img src='images/complex/12.png' width ='500' height = '500' style='border:5px solid black'>","40","mixed_simple_deviant","images/complex/12.png","images/complex/11.png","images/simple/18.png,images/simple/16.png,images/simple/15.png,images/simple/17.png,images/simple/3.png,images/simple/10.png,images/simple/9.png","0","null","","200","942.6799999957439","yes","150.4949999944074","","target","",""
"","null","html-keyboard-response","50","360117","0.0-14.0-0.18","SS1603399414985","","null","","","","","","","","","","","","<img src=images/blank.png width =""500"" height = ""500"" style=""border:5px solid black"">","","",""
"","156.4500000094995","stimulus-presentation","51","360494","0.0-14.0-1.18","SS1603399414985","<img src='images/complex/11.png' width ='500' height = '500' style='border:5px solid black'>","40","mixed_simple_deviant","images/complex/12.png","images/complex/11.png","images/simple/18.png,images/simple/16.png,images/simple/15.png,images/simple/17.png,images/simple/3.png,images/simple/10.png,images/simple/9.png","0","null","","200","356.4500000094995","","","","background","",""
"","null","html-keyboard-response","52","361741","0.0-14.0-0.19","SS1603399414985","","null","","","","","","","","","","","","<img src=images/blank.png width =""500"" height = ""500"" style=""border:5px solid black"">","","",""
"","390.1600000099279","stimulus-presentation","53","362365","0.0-14.0-1.19","SS1603399414985","<img src='images/complex/11.png' width ='500' height = '500' style='border:5px solid black'>","40","mixed_simple_deviant","images/complex/12.png","images/complex/11.png","images/simple/18.png,images/simple/16.png,images/simple/15.png,images/simple/17.png,images/simple/3.png,images/simple/10.png,images/simple/9.png","0","null","","200","590.1600000099279","","","","background","",""
"","null","html-keyboard-response","54","363464","0.0-14.0-0.20","SS1603399414985","","null","","","","","","","","","","","","<img src=images/blank.png width =""500"" height = ""500"" style=""border:5px solid black"">","","",""
"","193.7199999956647","stimulus-presentation","55","363883","0.0-14.0-1.20","SS1603399414985","<img src='images/complex/11.png' width ='500' height = '500' style='border:5px solid black'>","40","mixed_simple_deviant","images/complex/12.png","images/complex/11.png","images/simple/18.png,images/simple/16.png,images/simple/15.png,images/simple/17.png,images/simple/3.png,images/simple/10.png,images/simple/9.png","0","null","","200","393.7199999956647","","","","background","",""
"","null","html-keyboard-response","56","364788","0.0-14.0-0.21","SS1603399414985","","null","","","","","","","","","","","","<img src=images/blank.png width =""500"" height = ""500"" style=""border:5px solid black"">","","",""
"","184.3900000094436","stimulus-presentation","57","365202","0.0-14.0-1.21","SS1603399414985","<img src='images/complex/11.png' width ='500' height = '500' style='border:5px solid black'>","40","mixed_simple_deviant","images/complex/12.png","images/complex/11.png","images/simple/18.png,images/simple/16.png,images/simple/15.png,images/simple/17.png,images/simple/3.png,images/simple/10.png,images/simple/9.png","0","null","","200","384.3900000094436","","","","background","",""
"","null","html-keyboard-response","58","366417","0.0-14.0-0.22","SS1603399414985","","null","","","","","","","","","","","","<img src=images/blank.png width =""500"" height = ""500"" style=""border:5px solid black"">","","",""
"","229.42499999771826","stimulus-presentation","59","366868","0.0-14.0-1.22","SS1603399414985","<img src='images/simple/3.png' width ='500' height = '500' style='border:5px solid black'>","40","mixed_simple_deviant","images/complex/12.png","images/complex/11.png","images/simple/18.png,images/simple/16.png,images/simple/15.png,images/simple/17.png,images/simple/3.png,images/simple/10.png,images/simple/9.png","0","null","","200","429.42499999771826","","","","deviant","",""
"","null","html-keyboard-response","60","367776","0.0-14.0-0.23","SS1603399414985","","null","","","","","","","","","","","","<img src=images/blank.png width =""500"" height = ""500"" style=""border:5px solid black"">","","",""
"","227.66000000410713","stimulus-presentation","61","368229","0.0-14.0-1.23","SS1603399414985","<img src='images/complex/11.png' width ='500' height = '500' style='border:5px solid black'>","40","mixed_simple_deviant","images/complex/12.png","images/complex/11.png","images/simple/18.png,images/simple/16.png,images/simple/15.png,images/simple/17.png,images/simple/3.png,images/simple/10.png,images/simple/9.png","0","null","","200","427.66000000410713","","","","background","",""
"","null","html-keyboard-response","62","369175","0.0-14.0-0.24","SS1603399414985","","null","","","","","","","","","","","","<img src=images/blank.png width =""500"" height = ""500"" style=""border:5px solid black"">","","",""
"","171.9450000091456","stimulus-presentation","63","369575","0.0-14.0-1.24","SS1603399414985","<img src='images/complex/11.png' width ='500' height = '500' style='border:5px solid black'>","40","mixed_simple_deviant","images/complex/12.png","images/complex/11.png","images/simple/18.png,images/simple/16.png,images/simple/15.png,images/simple/17.png,images/simple/3.png,images/simple/10.png,images/simple/9.png","0","null","","200","371.9450000091456","","","","background","",""
"","null","html-keyboard-response","64","370599","0.0-14.0-0.25","SS1603399414985","","null","","","","","","","","","","","","<img src=images/blank.png width =""500"" height = ""500"" style=""border:5px solid black"">","","",""
"","725.0700000004144","stimulus-presentation","65","371551","0.0-14.0-1.25","SS1603399414985","<img src='images/complex/12.png' width ='500' height = '500' style='border:5px solid black'>","40","mixed_simple_deviant","images/complex/12.png","images/complex/11.png","images/simple/18.png,images/simple/16.png,images/simple/15.png,images/simple/17.png,images/simple/3.png,images/simple/10.png,images/simple/9.png","0","null","","200","925.0700000004144","yes","283.68500000215136","","target","",""
"","null","html-keyboard-response","66","372488","0.0-14.0-0.26","SS1603399414985","","null","","","","","","","","","","","","<img src=images/blank.png width =""500"" height = ""500"" style=""border:5px solid black"">","","",""
"","126.99000000429805","stimulus-presentation","67","372843","0.0-14.0-1.26","SS1603399414985","<img src='images/complex/11.png' width ='500' height = '500' style='border:5px solid black'>","40","mixed_simple_deviant","images/complex/12.png","images/complex/11.png","images/simple/18.png,images/simple/16.png,images/simple/15.png,images/simple/17.png,images/simple/3.png,images/simple/10.png,images/simple/9.png","0","null","","200","326.99000000429805","","","","background","",""
"","null","html-keyboard-response","68","373707","0.0-14.0-0.27","SS1603399414985","","null","","","","","","","","","","","","<img src=images/blank.png width =""500"" height = ""500"" style=""border:5px solid black"">","","",""
"","189.18000000121538","stimulus-presentation","69","374125","0.0-14.0-1.27","SS1603399414985","<img src='images/complex/11.png' width ='500' height = '500' style='border:5px solid black'>","40","mixed_simple_deviant","images/complex/12.png","images/complex/11.png","images/simple/18.png,images/simple/16.png,images/simple/15.png,images/simple/17.png,images/simple/3.png,images/simple/10.png,images/simple/9.png","0","null","","200","389.1800000012154","","","","background","",""
"","null","html-keyboard-response","70","375318","0.0-14.0-0.28","SS1603399414985","","null","","","","","","","","","","","","<img src=images/blank.png width =""500"" height = ""500"" style=""border:5px solid black"">","","",""
"","149.40999999816995","stimulus-presentation","71","375698","0.0-14.0-1.28","SS1603399414985","<img src='images/simple/18.png' width ='500' height = '500' style='border:5px solid black'>","40","mixed_simple_deviant","images/complex/12.png","images/complex/11.png","images/simple/18.png,images/simple/16.png,images/simple/15.png,images/simple/17.png,images/simple/3.png,images/simple/10.png,images/simple/9.png","0","null","","200","349.40999999816995","","","","deviant","",""
"","null","html-keyboard-response","72","376729","0.0-14.0-0.29","SS1603399414985","","null","","","","","","","","","","","","<img src=images/blank.png width =""500"" height = ""500"" style=""border:5px solid black"">","","",""
"","378.7999999913154","stimulus-presentation","73","377333","0.0-14.0-1.29","SS1603399414985","<img src='images/complex/11.png' width ='500' height = '500' style='border:5px solid black'>","40","mixed_simple_deviant","images/complex/12.png","images/complex/11.png","images/simple/18.png,images/simple/16.png,images/simple/15.png,images/simple/17.png,images/simple/3.png,images/simple/10.png,images/simple/9.png","0","null","","200","578.7999999913154","","","","background","",""
"","null","html-keyboard-response","74","378309","0.0-14.0-0.30","SS1603399414985","","null","","","","","","","","","","","","<img src=images/blank.png width =""500"" height = ""500"" style=""border:5px solid black"">","","",""
"","268.9350000000559","stimulus-presentation","75","378805","0.0-14.0-1.30","SS1603399414985","<img src='images/complex/11.png' width ='500' height = '500' style='border:5px solid black'>","40","mixed_simple_deviant","images/complex/12.png","images/complex/11.png","images/simple/18.png,images/simple/16.png,images/simple/15.png,images/simple/17.png,images/simple/3.png,images/simple/10.png,images/simple/9.png","0","null","","200","468.9350000000559","","","","background","",""
"","null","html-keyboard-response","76","380085","0.0-14.0-0.31","SS1603399414985","","null","","","","","","","","","","","","<img src=images/blank.png width =""500"" height = ""500"" style=""border:5px solid black"">","","",""
"","345.44000000460073","stimulus-presentation","77","380661","0.0-14.0-1.31","SS1603399414985","<img src='images/complex/11.png' width ='500' height = '500' style='border:5px solid black'>","40","mixed_simple_deviant","images/complex/12.png","images/complex/11.png","images/simple/18.png,images/simple/16.png,images/simple/15.png,images/simple/17.png,images/simple/3.png,images/simple/10.png,images/simple/9.png","0","null","","200","545.4400000046007","","","","background","",""
"","null","html-keyboard-response","78","381512","0.0-14.0-0.32","SS1603399414985","","null","","","","","","","","","","","","<img src=images/blank.png width =""500"" height = ""500"" style=""border:5px solid black"">","","",""
"","310.4599999933271","stimulus-presentation","79","382054","0.0-14.0-1.32","SS1603399414985","<img src='images/simple/10.png' width ='500' height = '500' style='border:5px solid black'>","40","mixed_simple_deviant","images/complex/12.png","images/complex/11.png","images/simple/18.png,images/simple/16.png,images/simple/15.png,images/simple/17.png,images/simple/3.png,images/simple/10.png,images/simple/9.png","0","null","","200","510.4599999933271","","","","deviant","",""
"","null","html-keyboard-response","80","383128","0.0-14.0-0.33","SS1603399414985","","null","","","","","","","","","","","","<img src=images/blank.png width =""500"" height = ""500"" style=""border:5px solid black"">","","",""
"","2761.0549999953946","stimulus-presentation","81","386121","0.0-14.0-1.33","SS1603399414985","<img src='images/complex/11.png' width ='500' height = '500' style='border:5px solid black'>","40","mixed_simple_deviant","images/complex/12.png","images/complex/11.png","images/simple/18.png,images/simple/16.png,images/simple/15.png,images/simple/17.png,images/simple/3.png,images/simple/10.png,images/simple/9.png","0","null","","200","2961.0549999953946","","","","background","",""
"","null","html-keyboard-response","82","387095","0.0-14.0-0.34","SS1603399414985","","null","","","","","","","","","","","","<img src=images/blank.png width =""500"" height = ""500"" style=""border:5px solid black"">","","",""
"","193.44999999157153","stimulus-presentation","83","387526","0.0-14.0-1.34","SS1603399414985","<img src='images/complex/11.png' width ='500' height = '500' style='border:5px solid black'>","40","mixed_simple_deviant","images/complex/12.png","images/complex/11.png","images/simple/18.png,images/simple/16.png,images/simple/15.png,images/simple/17.png,images/simple/3.png,images/simple/10.png,images/simple/9.png","0","null","","200","393.44999999157153","","","","background","",""
"","null","html-keyboard-response","84","388655","0.0-14.0-0.35","SS1603399414985","","null","","","","","","","","","","","","<img src=images/blank.png width =""500"" height = ""500"" style=""border:5px solid black"">","","",""
"","123.60499998612795","stimulus-presentation","85","389006","0.0-14.0-1.35","SS1603399414985","<img src='images/complex/11.png' width ='500' height = '500' style='border:5px solid black'>","40","mixed_simple_deviant","images/complex/12.png","images/complex/11.png","images/simple/18.png,images/simple/16.png,images/simple/15.png,images/simple/17.png,images/simple/3.png,images/simple/10.png,images/simple/9.png","0","null","","200","323.60499998612795","","","","background","",""
"","null","html-keyboard-response","86","389966","0.0-14.0-0.36","SS1603399414985","","null","","","","","","","","","","","","<img src=images/blank.png width =""500"" height = ""500"" style=""border:5px solid black"">","","",""
"","132.60499999159947","stimulus-presentation","87","390333","0.0-14.0-1.36","SS1603399414985","<img src='images/complex/12.png' width ='500' height = '500' style='border:5px solid black'>","40","mixed_simple_deviant","images/complex/12.png","images/complex/11.png","images/simple/18.png,images/simple/16.png,images/simple/15.png,images/simple/17.png,images/simple/3.png,images/simple/10.png,images/simple/9.png","0","null","","200","332.60499999159947","","","","target","",""
"","null","html-keyboard-response","88","391552","0.0-14.0-0.37","SS1603399414985","","null","","","","","","","","","","","","<img src=images/blank.png width =""500"" height = ""500"" style=""border:5px solid black"">","","",""
"","246.60500000754837","stimulus-presentation","89","392038","0.0-14.0-1.37","SS1603399414985","<img src='images/complex/11.png' width ='500' height = '500' style='border:5px solid black'>","40","mixed_simple_deviant","images/complex/12.png","images/complex/11.png","images/simple/18.png,images/simple/16.png,images/simple/15.png,images/simple/17.png,images/simple/3.png,images/simple/10.png,images/simple/9.png","0","null","","200","446.60500000754837","","","","background","",""
"","null","html-keyboard-response","90","392970","0.0-14.0-0.38","SS1603399414985","","null","","","","","","","","","","","","<img src=images/blank.png width =""500"" height = ""500"" style=""border:5px solid black"">","","",""
"","232.79500000353437","stimulus-presentation","91","393438","0.0-14.0-1.38","SS1603399414985","<img src='images/simple/9.png' width ='500' height = '500' style='border:5px solid black'>","40","mixed_simple_deviant","images/complex/12.png","images/complex/11.png","images/simple/18.png,images/simple/16.png,images/simple/15.png,images/simple/17.png,images/simple/3.png,images/simple/10.png,images/simple/9.png","0","null","","200","432.79500000353437","","","","deviant","",""
"","null","html-keyboard-response","92","394570","0.0-14.0-0.39","SS1603399414985","","null","","","","","","","","","","","","<img src=images/blank.png width =""500"" height = ""500"" style=""border:5px solid black"">","","",""
"","215.490000002319","stimulus-presentation","93","395013","0.0-14.0-1.39","SS1603399414985","<img src='images/complex/11.png' width ='500' height = '500' style='border:5px solid black'>","40","mixed_simple_deviant","images/complex/12.png","images/complex/11.png","images/simple/18.png,images/simple/16.png,images/simple/15.png,images/simple/17.png,images/simple/3.png,images/simple/10.png,images/simple/9.png","0","null","","200","415.490000002319","","","","background","",""
"","null","html-keyboard-response","94","396257","0.0-14.0-0.40","SS1603399414985","","null","","","","","","","","","","","","<img src=images/blank.png width =""500"" height = ""500"" style=""border:5px solid black"">","","",""
"","2631.2900000048103","stimulus-presentation","95","399125","0.0-14.0-1.40","SS1603399414985","<img src='images/complex/12.png' width ='500' height = '500' style='border:5px solid black'>","40","mixed_simple_deviant","images/complex/12.png","images/complex/11.png","images/simple/18.png,images/simple/16.png,images/simple/15.png,images/simple/17.png,images/simple/3.png,images/simple/10.png,images/simple/9.png","0","null","","200","2831.2900000048103","yes","1870.405000008759","","target","",""
"","null","html-keyboard-response","96","400147","0.0-14.0-0.41","SS1603399414985","","null","","","","","","","","","","","","<img src=images/blank.png width =""500"" height = ""500"" style=""border:5px solid black"">","","",""
"","181.1299999972107","stimulus-presentation","97","400573","0.0-14.0-1.41","SS1603399414985","<img src='images/complex/11.png' width ='500' height = '500' style='border:5px solid black'>","40","mixed_simple_deviant","images/complex/12.png","images/complex/11.png","images/simple/18.png,images/simple/16.png,images/simple/15.png,images/simple/17.png,images/simple/3.png,images/simple/10.png,images/simple/9.png","0","null","","200","381.1299999972107","","","","background","",""
"","null","html-keyboard-response","98","401676","0.0-14.0-0.42","SS1603399414985","","null","","","","","","","","","","","","<img src=images/blank.png width =""500"" height = ""500"" style=""border:5px solid black"">","","",""
"","5869.7249999968335","stimulus-presentation","99","407757","0.0-14.0-1.42","SS1603399414985","<img src='images/complex/11.png' width ='500' height = '500' style='border:5px solid black'>","40","mixed_simple_deviant","images/complex/12.png","images/complex/11.png","images/simple/18.png,images/simple/16.png,images/simple/15.png,images/simple/17.png,images/simple/3.png,images/simple/10.png,images/simple/9.png","0","null","","200","6069.7249999968335","","","","background","",""
"","null","html-keyboard-response","100","408744","0.0-14.0-0.43","SS1603399414985","","null","","","","","","","","","","","","<img src=images/blank.png width =""500"" height = ""500"" style=""border:5px solid black"">","","",""
"","398.2399999949848","stimulus-presentation","101","409381","0.0-14.0-1.43","SS1603399414985","<img src='images/complex/11.png' width ='500' height = '500' style='border:5px solid black'>","40","mixed_simple_deviant","images/complex/12.png","images/complex/11.png","images/simple/18.png,images/simple/16.png,images/simple/15.png,images/simple/17.png,images/simple/3.png,images/simple/10.png,images/simple/9.png","0","null","","200","598.2399999949848","","","","background","",""
"","null","html-keyboard-response","102","410354","0.0-14.0-0.44","SS1603399414985","","null","","","","","","","","","","","","<img src=images/blank.png width =""500"" height = ""500"" style=""border:5px solid black"">","","",""
"","207.9200000007404","stimulus-presentation","103","410793","0.0-14.0-1.44","SS1603399414985","<img src='images/complex/11.png' width ='500' height = '500' style='border:5px solid black'>","40","mixed_simple_deviant","images/complex/12.png","images/complex/11.png","images/simple/18.png,images/simple/16.png,images/simple/15.png,images/simple/17.png,images/simple/3.png,images/simple/10.png,images/simple/9.png","0","null","","200","407.9200000007404","","","","background","",""
"","null","html-keyboard-response","104","411763","0.0-14.0-0.45","SS1603399414985","","null","","","","","","","","","","","","<img src=images/blank.png width =""500"" height = ""500"" style=""border:5px solid black"">","","",""
"","257.4200000090059","stimulus-presentation","105","412253","0.0-14.0-1.45","SS1603399414985","<img src='images/complex/11.png' width ='500' height = '500' style='border:5px solid black'>","40","mixed_simple_deviant","images/complex/12.png","images/complex/11.png","images/simple/18.png,images/simple/16.png,images/simple/15.png,images/simple/17.png,images/simple/3.png,images/simple/10.png,images/simple/9.png","0","null","","200","457.4200000090059","","","","background","",""
"","null","html-keyboard-response","106","413477","0.0-14.0-0.46","SS1603399414985","","null","","","","","","","","","","","","<img src=images/blank.png width =""500"" height = ""500"" style=""border:5px solid black"">","","",""
"","245.89500000001863","stimulus-presentation","107","413957","0.0-14.0-1.46","SS1603399414985","<img src='images/complex/11.png' width ='500' height = '500' style='border:5px solid black'>","40","mixed_simple_deviant","images/complex/12.png","images/complex/11.png","images/simple/18.png,images/simple/16.png,images/simple/15.png,images/simple/17.png,images/simple/3.png,images/simple/10.png,images/simple/9.png","0","null","","200","445.8950000000186","","","","background","",""
"","null","html-keyboard-response","108","415049","0.0-14.0-0.47","SS1603399414985","","null","","","","","","","","","","","","<img src=images/blank.png width =""500"" height = ""500"" style=""border:5px solid black"">","","",""
"","243.4650000068359","stimulus-presentation","109","415533","0.0-14.0-1.47","SS1603399414985","<img src='images/complex/11.png' width ='500' height = '500' style='border:5px solid black'>","40","mixed_simple_deviant","images/complex/12.png","images/complex/11.png","images/simple/18.png,images/simple/16.png,images/simple/15.png,images/simple/17.png,images/simple/3.png,images/simple/10.png,images/simple/9.png","0","null","","200","443.4650000068359","","","","background","",""
"","null","html-keyboard-response","110","416649","0.0-14.0-0.48","SS1603399414985","","null","","","","","","","","","","","","<img src=images/blank.png width =""500"" height = ""500"" style=""border:5px solid black"">","","",""
"","162.35499999311287","stimulus-presentation","111","417055","0.0-14.0-1.48","SS1603399414985","<img src='images/complex/11.png' width ='500' height = '500' style='border:5px solid black'>","40","mixed_simple_deviant","images/complex/12.png","images/complex/11.png","images/simple/18.png,images/simple/16.png,images/simple/15.png,images/simple/17.png,images/simple/3.png,images/simple/10.png,images/simple/9.png","0","null","","200","362.35499999311287","","","","background","",""
"[{""page_index"":0,""viewing_time"":3970}]","3971","task-instructions","112","421061","0.0-15.0","SS1603399414985","","","","","","","","","","","","","","","","",""
"[{""page_index"":0,""viewing_time"":894.3399999989197},{""page_index"":1,""viewing_time"":2287.255000002915},{""page_index"":2,""viewing_time"":735.7950000005076}]","3918.294999995851","instructions","113","424989","0.0-16.0","SS1603399414985","","","","","","","","","","","","","","","","",""
"","null","html-keyboard-response","114","426316","0.0-17.0-0.0","SS1603399414985","","null","","","","","","","","","","","","<img src=images/blank.png width =""500"" height = ""500"" style=""border:5px solid black"">","","",""
"","437.82000000646804","stimulus-presentation","115","426989","0.0-17.0-1.0","SS1603399414985","<img src='images/simple/6.png' width ='500' height = '500' style='border:5px solid black'>","40","mixed_complex_deviant","images/simple/12.png","images/simple/6.png","images/complex/6.png,images/complex/15.png,images/complex/2.png,images/complex/9.png,images/complex/4.png,images/complex/8.png,images/complex/14.png","1","null","","200","637.820000006468","","","","background","",""
"","null","html-keyboard-response","116","428168","0.0-17.0-0.1","SS1603399414985","","null","","","","","","","","","","","","<img src=images/blank.png width =""500"" height = ""500"" style=""border:5px solid black"">","","",""
"","173.71500001172535","stimulus-presentation","117","428581","0.0-17.0-1.1","SS1603399414985","<img src='images/simple/6.png' width ='500' height = '500' style='border:5px solid black'>","40","mixed_complex_deviant","images/simple/12.png","images/simple/6.png","images/complex/6.png,images/complex/15.png,images/complex/2.png,images/complex/9.png,images/complex/4.png,images/complex/8.png,images/complex/14.png","1","null","","200","373.71500001172535","","","","background","",""
"","null","html-keyboard-response","118","429514","0.0-17.0-0.2","SS1603399414985","","null","","","","","","","","","","","","<img src=images/blank.png width =""500"" height = ""500"" style=""border:5px solid black"">","","",""
"","119.37500000931323","stimulus-presentation","119","429867","0.0-17.0-1.2","SS1603399414985","<img src='images/simple/6.png' width ='500' height = '500' style='border:5px solid black'>","40","mixed_complex_deviant","images/simple/12.png","images/simple/6.png","images/complex/6.png,images/complex/15.png,images/complex/2.png,images/complex/9.png,images/complex/4.png,images/complex/8.png,images/complex/14.png","1","null","","200","319.3750000093132","","","","background","",""
"","null","html-keyboard-response","120","430938","0.0-17.0-0.3","SS1603399414985","","null","","","","","","","","","","","","<img src=images/blank.png width =""500"" height = ""500"" style=""border:5px solid black"">","","",""
"","135.3499999968335","stimulus-presentation","121","431309","0.0-17.0-1.3","SS1603399414985","<img src='images/simple/12.png' width ='500' height = '500' style='border:5px solid black'>","40","mixed_complex_deviant","images/simple/12.png","images/simple/6.png","images/complex/6.png,images/complex/15.png,images/complex/2.png,images/complex/9.png,images/complex/4.png,images/complex/8.png,images/complex/14.png","1","null","","200","335.3499999968335","","","","target","",""
"","null","html-keyboard-response","122","432483","0.0-17.0-0.4","SS1603399414985","","null","","","","","","","","","","","","<img src=images/blank.png width =""500"" height = ""500"" style=""border:5px solid black"">","","",""
"","324.9050000013085","stimulus-presentation","123","433046","0.0-17.0-1.4","SS1603399414985","<img src='images/simple/6.png' width ='500' height = '500' style='border:5px solid black'>","40","mixed_complex_deviant","images/simple/12.png","images/simple/6.png","images/complex/6.png,images/complex/15.png,images/complex/2.png,images/complex/9.png,images/complex/4.png,images/complex/8.png,images/complex/14.png","1","null","","200","524.9050000013085","","","","background","",""
"","null","html-keyboard-response","124","434119","0.0-17.0-0.5","SS1603399414985","","null","","","","","","","","","","","","<img src=images/blank.png width =""500"" height = ""500"" style=""border:5px solid black"">","","",""
"","42.6749999896856","stimulus-presentation","125","434389","0.0-17.0-1.5","SS1603399414985","<img src='images/simple/6.png' width ='500' height = '500' style='border:5px solid black'>","40","mixed_complex_deviant","images/simple/12.png","images/simple/6.png","images/complex/6.png,images/complex/15.png,images/complex/2.png,images/complex/9.png,images/complex/4.png,images/complex/8.png,images/complex/14.png","1","null","","200","242.6749999896856","","","","background","",""
"","null","html-keyboard-response","126","435265","0.0-17.0-0.6","SS1603399414985","","null","","","","","","","","","","","","<img src=images/blank.png width =""500"" height = ""500"" style=""border:5px solid black"">","","",""
"","86.70500000880565","stimulus-presentation","127","435589","0.0-17.0-1.6","SS1603399414985","<img src='images/complex/14.png' width ='500' height = '500' style='border:5px solid black'>","40","mixed_complex_deviant","images/simple/12.png","images/simple/6.png","images/complex/6.png,images/complex/15.png,images/complex/2.png,images/complex/9.png,images/complex/4.png,images/complex/8.png,images/complex/14.png","1","null","","200","286.70500000880565","","","","deviant","",""
"","null","html-keyboard-response","128","436683","0.0-17.0-0.7","SS1603399414985","","null","","","","","","","","","","","","<img src=images/blank.png width =""500"" height = ""500"" style=""border:5px solid black"">","","",""
"","163.84500000276603","stimulus-presentation","129","437085","0.0-17.0-1.7","SS1603399414985","<img src='images/simple/6.png' width ='500' height = '500' style='border:5px solid black'>","40","mixed_complex_deviant","images/simple/12.png","images/simple/6.png","images/complex/6.png,images/complex/15.png,images/complex/2.png,images/complex/9.png,images/complex/4.png,images/complex/8.png,images/complex/14.png","1","null","","200","363.845000002766","","","","background","",""
"","null","html-keyboard-response","130","438039","0.0-17.0-0.8","SS1603399414985","","null","","","","","","","","","","","","<img src=images/blank.png width =""500"" height = ""500"" style=""border:5px solid black"">","","",""
"","1125.514999992447","stimulus-presentation","131","439413","0.0-17.0-1.8","SS1603399414985","<img src='images/simple/12.png' width ='500' height = '500' style='border:5px solid black'>","40","mixed_complex_deviant","images/simple/12.png","images/simple/6.png","images/complex/6.png,images/complex/15.png,images/complex/2.png,images/complex/9.png,images/complex/4.png,images/complex/8.png,images/complex/14.png","1","null","","200","1325.514999992447","yes","333.7349999928847","","target","",""
"","null","html-keyboard-response","132","440615","0.0-17.0-0.9","SS1603399414985","","null","","","","","","","","","","","","<img src=images/blank.png width =""500"" height = ""500"" style=""border:5px solid black"">","","",""
"","143.98500000243075","stimulus-presentation","133","440997","0.0-17.0-1.9","SS1603399414985","<img src='images/simple/6.png' width ='500' height = '500' style='border:5px solid black'>","40","mixed_complex_deviant","images/simple/12.png","images/simple/6.png","images/complex/6.png,images/complex/15.png,images/complex/2.png,images/complex/9.png,images/complex/4.png,images/complex/8.png,images/complex/14.png","1","null","","200","343.98500000243075","","","","background","",""
"","null","html-keyboard-response","134","442194","0.0-17.0-0.10","SS1603399414985","","null","","","","","","","","","","","","<img src=images/blank.png width =""500"" height = ""500"" style=""border:5px solid black"">","","",""
"","929.5149999961723","stimulus-presentation","135","443357","0.0-17.0-1.10","SS1603399414985","<img src='images/simple/6.png' width ='500' height = '500' style='border:5px solid black'>","40","mixed_complex_deviant","images/simple/12.png","images/simple/6.png","images/complex/6.png,images/complex/15.png,images/complex/2.png,images/complex/9.png,images/complex/4.png,images/complex/8.png,images/complex/14.png","1","null","","200","1129.5149999961723","","","","background","",""
"","null","html-keyboard-response","136","444215","0.0-17.0-0.11","SS1603399414985","","null","","","","","","","","","","","","<img src=images/blank.png width =""500"" height = ""500"" style=""border:5px solid black"">","","",""
"","882.3300000076415","stimulus-presentation","137","445341","0.0-17.0-1.11","SS1603399414985","<img src='images/simple/12.png' width ='500' height = '500' style='border:5px solid black'>","40","mixed_complex_deviant","images/simple/12.png","images/simple/6.png","images/complex/6.png,images/complex/15.png,images/complex/2.png,images/complex/9.png,images/complex/4.png,images/complex/8.png,images/complex/14.png","1","null","","200","1082.3300000076415","yes","258.97000000986736","","target","",""
"","null","html-keyboard-response","138","446611","0.0-17.0-0.12","SS1603399414985","","null","","","","","","","","","","","","<img src=images/blank.png width =""500"" height = ""500"" style=""border:5px solid black"">","","",""
"","1352.0299999945564","stimulus-presentation","139","448205","0.0-17.0-1.12","SS1603399414985","<img src='images/simple/12.png' width ='500' height = '500' style='border:5px solid black'>","40","mixed_complex_deviant","images/simple/12.png","images/simple/6.png","images/complex/6.png,images/complex/15.png,images/complex/2.png,images/complex/9.png,images/complex/4.png,images/complex/8.png,images/complex/14.png","1","null","","200","1552.0299999945564","yes","216.06999999494292","","target","",""
"","null","html-keyboard-response","140","449062","0.0-17.0-0.13","SS1603399414985","","null","","","","","","","","","","","","<img src=images/blank.png width =""500"" height = ""500"" style=""border:5px solid black"">","","",""
"","148.61000000382774","stimulus-presentation","141","449445","0.0-17.0-1.13","SS1603399414985","<img src='images/simple/6.png' width ='500' height = '500' style='border:5px solid black'>","40","mixed_complex_deviant","images/simple/12.png","images/simple/6.png","images/complex/6.png,images/complex/15.png,images/complex/2.png,images/complex/9.png,images/complex/4.png,images/complex/8.png,images/complex/14.png","1","null","","200","348.61000000382774","","","","background","",""
"","null","html-keyboard-response","142","450782","0.0-17.0-0.14","SS1603399414985","","null","","","","","","","","","","","","<img src=images/blank.png width =""500"" height = ""500"" style=""border:5px solid black"">","","",""
"","84.02500000374857","stimulus-presentation","143","451101","0.0-17.0-1.14","SS1603399414985","<img src='images/complex/15.png' width ='500' height = '500' style='border:5px solid black'>","40","mixed_complex_deviant","images/simple/12.png","images/simple/6.png","images/complex/6.png,images/complex/15.png,images/complex/2.png,images/complex/9.png,images/complex/4.png,images/complex/8.png,images/complex/14.png","1","null","","200","284.0250000037486","","","","deviant","",""
"","null","html-keyboard-response","144","452108","0.0-17.0-0.15","SS1603399414985","","null","","","","","","","","","","","","<img src=images/blank.png width =""500"" height = ""500"" style=""border:5px solid black"">","","",""
"","133.719999997993","stimulus-presentation","145","452480","0.0-17.0-1.15","SS1603399414985","<img src='images/simple/6.png' width ='500' height = '500' style='border:5px solid black'>","40","mixed_complex_deviant","images/simple/12.png","images/simple/6.png","images/complex/6.png,images/complex/15.png,images/complex/2.png,images/complex/9.png,images/complex/4.png,images/complex/8.png,images/complex/14.png","1","null","","200","333.719999997993","","","","background","",""
"","null","html-keyboard-response","146","453373","0.0-17.0-0.16","SS1603399414985","","null","","","","","","","","","","","","<img src=images/blank.png width =""500"" height = ""500"" style=""border:5px solid black"">","","",""
"","127.03000000328757","stimulus-presentation","147","453749","0.0-17.0-1.16","SS1603399414985","<img src='images/simple/6.png' width ='500' height = '500' style='border:5px solid black'>","40","mixed_complex_deviant","images/simple/12.png","images/simple/6.png","images/complex/6.png,images/complex/15.png,images/complex/2.png,images/complex/9.png,images/complex/4.png,images/complex/8.png,images/complex/14.png","1","null","","200","327.03000000328757","","","","background","",""
"","null","html-keyboard-response","148","454741","0.0-17.0-0.17","SS1603399414985","","null","","","","","","","","","","","","<img src=images/blank.png width =""500"" height = ""500"" style=""border:5px solid black"">","","",""
"","202.74999999674037","stimulus-presentation","149","455190","0.0-17.0-1.17","SS1603399414985","<img src='images/simple/6.png' width ='500' height = '500' style='border:5px solid black'>","40","mixed_complex_deviant","images/simple/12.png","images/simple/6.png","images/complex/6.png,images/complex/15.png,images/complex/2.png,images/complex/9.png,images/complex/4.png,images/complex/8.png,images/complex/14.png","1","null","","200","402.74999999674037","","","","background","",""
"","null","html-keyboard-response","150","456203","0.0-17.0-0.18","SS1603399414985","","null","","","","","","","","","","","","<img src=images/blank.png width =""500"" height = ""500"" style=""border:5px solid black"">","","",""
"","115.73499999940395","stimulus-presentation","151","456560","0.0-17.0-1.18","SS1603399414985","<img src='images/simple/6.png' width ='500' height = '500' style='border:5px solid black'>","40","mixed_complex_deviant","images/simple/12.png","images/simple/6.png","images/complex/6.png,images/complex/15.png,images/complex/2.png,images/complex/9.png,images/complex/4.png,images/complex/8.png,images/complex/14.png","1","null","","200","315.73499999940395","","","","background","",""
"","null","html-keyboard-response","152","457503","0.0-17.0-0.19","SS1603399414985","","null","","","","","","","","","","","","<img src=images/blank.png width =""500"" height = ""500"" style=""border:5px solid black"">","","",""
"","217.36500000406522","stimulus-presentation","153","457958","0.0-17.0-1.19","SS1603399414985","<img src='images/complex/6.png' width ='500' height = '500' style='border:5px solid black'>","40","mixed_complex_deviant","images/simple/12.png","images/simple/6.png","images/complex/6.png,images/complex/15.png,images/complex/2.png,images/complex/9.png,images/complex/4.png,images/complex/8.png,images/complex/14.png","1","null","","200","417.3650000040652","","","","deviant","",""
"","null","html-keyboard-response","154","458864","0.0-17.0-0.20","SS1603399414985","","null","","","","","","","","","","","","<img src=images/blank.png width =""500"" height = ""500"" style=""border:5px solid black"">","","",""
"","164.7499999962747","stimulus-presentation","155","459270","0.0-17.0-1.20","SS1603399414985","<img src='images/simple/6.png' width ='500' height = '500' style='border:5px solid black'>","40","mixed_complex_deviant","images/simple/12.png","images/simple/6.png","images/complex/6.png,images/complex/15.png,images/complex/2.png,images/complex/9.png,images/complex/4.png,images/complex/8.png,images/complex/14.png","1","null","","200","364.7499999962747","","","","background","",""
"","null","html-keyboard-response","156","460597","0.0-17.0-0.21","SS1603399414985","","null","","","","","","","","","","","","<img src=images/blank.png width =""500"" height = ""500"" style=""border:5px solid black"">","","",""
"","170.1699999975972","stimulus-presentation","157","460998","0.0-17.0-1.21","SS1603399414985","<img src='images/simple/6.png' width ='500' height = '500' style='border:5px solid black'>","40","mixed_complex_deviant","images/simple/12.png","images/simple/6.png","images/complex/6.png,images/complex/15.png,images/complex/2.png,images/complex/9.png,images/complex/4.png,images/complex/8.png,images/complex/14.png","1","null","","200","370.1699999975972","","","","background","",""
"","null","html-keyboard-response","158","462179","0.0-17.0-0.22","SS1603399414985","","null","","","","","","","","","","","","<img src=images/blank.png width =""500"" height = ""500"" style=""border:5px solid black"">","","",""
"","235.2050000044983","stimulus-presentation","159","462660","0.0-17.0-1.22","SS1603399414985","<img src='images/complex/4.png' width ='500' height = '500' style='border:5px solid black'>","40","mixed_complex_deviant","images/simple/12.png","images/simple/6.png","images/complex/6.png,images/complex/15.png,images/complex/2.png,images/complex/9.png,images/complex/4.png,images/complex/8.png,images/complex/14.png","1","null","","200","435.2050000044983","","","","deviant","",""
"","null","html-keyboard-response","160","463509","0.0-17.0-0.23","SS1603399414985","","null","","","","","","","","","","","","<img src=images/blank.png width =""500"" height = ""500"" style=""border:5px solid black"">","","",""
"","601.8399999884423","stimulus-presentation","161","464350","0.0-17.0-1.23","SS1603399414985","<img src='images/simple/12.png' width ='500' height = '500' style='border:5px solid black'>","40","mixed_complex_deviant","images/simple/12.png","images/simple/6.png","images/complex/6.png,images/complex/15.png,images/complex/2.png,images/complex/9.png,images/complex/4.png,images/complex/8.png,images/complex/14.png","1","null","","200","801.8399999884423","yes","265.5549999908544","","target","",""
"","null","html-keyboard-response","162","465408","0.0-17.0-0.24","SS1603399414985","","null","","","","","","","","","","","","<img src=images/blank.png width =""500"" height = ""500"" style=""border:5px solid black"">","","",""
"","94.95500000775792","stimulus-presentation","163","465749","0.0-17.0-1.24","SS1603399414985","<img src='images/simple/6.png' width ='500' height = '500' style='border:5px solid black'>","40","mixed_complex_deviant","images/simple/12.png","images/simple/6.png","images/complex/6.png,images/complex/15.png,images/complex/2.png,images/complex/9.png,images/complex/4.png,images/complex/8.png,images/complex/14.png","1","null","","200","294.9550000077579","","","","background","",""
"","null","html-keyboard-response","164","466869","0.0-17.0-0.25","SS1603399414985","","null","","","","","","","","","","","","<img src=images/blank.png width =""500"" height = ""500"" style=""border:5px solid black"">","","",""
"","199.62499999383","stimulus-presentation","165","467285","0.0-17.0-1.25","SS1603399414985","<img src='images/simple/6.png' width ='500' height = '500' style='border:5px solid black'>","40","mixed_complex_deviant","images/simple/12.png","images/simple/6.png","images/complex/6.png,images/complex/15.png,images/complex/2.png,images/complex/9.png,images/complex/4.png,images/complex/8.png,images/complex/14.png","1","null","","200","399.62499999383","","","","background","",""
"","null","html-keyboard-response","166","468478","0.0-17.0-0.26","SS1603399414985","","null","","","","","","","","","","","","<img src=images/blank.png width =""500"" height = ""500"" style=""border:5px solid black"">","","",""
"","194.1450000012992","stimulus-presentation","167","468910","0.0-17.0-1.26","SS1603399414985","<img src='images/simple/6.png' width ='500' height = '500' style='border:5px solid black'>","40","mixed_complex_deviant","images/simple/12.png","images/simple/6.png","images/complex/6.png,images/complex/15.png,images/complex/2.png,images/complex/9.png,images/complex/4.png,images/complex/8.png,images/complex/14.png","1","null","","200","394.1450000012992","","","","background","",""
"","null","html-keyboard-response","168","469823","0.0-17.0-0.27","SS1603399414985","","null","","","","","","","","","","","","<img src=images/blank.png width =""500"" height = ""500"" style=""border:5px solid black"">","","",""
"","594.5950000023004","stimulus-presentation","169","470661","0.0-17.0-1.27","SS1603399414985","<img src='images/simple/12.png' width ='500' height = '500' style='border:5px solid black'>","40","mixed_complex_deviant","images/simple/12.png","images/simple/6.png","images/complex/6.png,images/complex/15.png,images/complex/2.png,images/complex/9.png,images/complex/4.png,images/complex/8.png,images/complex/14.png","1","null","","200","794.5950000023004","yes","242.39500000840053","","target","",""
"","null","html-keyboard-response","170","471633","0.0-17.0-0.28","SS1603399414985","","null","","","","","","","","","","","","<img src=images/blank.png width =""500"" height = ""500"" style=""border:5px solid black"">","","",""
"","179.8549999948591","stimulus-presentation","171","472069","0.0-17.0-1.28","SS1603399414985","<img src='images/complex/2.png' width ='500' height = '500' style='border:5px solid black'>","40","mixed_complex_deviant","images/simple/12.png","images/simple/6.png","images/complex/6.png,images/complex/15.png,images/complex/2.png,images/complex/9.png,images/complex/4.png,images/complex/8.png,images/complex/14.png","1","null","","200","379.8549999948591","","","","deviant","",""
"","null","html-keyboard-response","172","472939","0.0-17.0-0.29","SS1603399414985","","null","","","","","","","","","","","","<img src=images/blank.png width =""500"" height = ""500"" style=""border:5px solid black"">","","",""
"","97.16999999363907","stimulus-presentation","173","473281","0.0-17.0-1.29","SS1603399414985","<img src='images/simple/6.png' width ='500' height = '500' style='border:5px solid black'>","40","mixed_complex_deviant","images/simple/12.png","images/simple/6.png","images/complex/6.png,images/complex/15.png,images/complex/2.png,images/complex/9.png,images/complex/4.png,images/complex/8.png,images/complex/14.png","1","null","","200","297.16999999363907","","","","background","",""
"","null","html-keyboard-response","174","474589","0.0-17.0-0.30","SS1603399414985","","null","","","","","","","","","","","","<img src=images/blank.png width =""500"" height = ""500"" style=""border:5px solid black"">","","",""
"","143.13000001129694","stimulus-presentation","175","474974","0.0-17.0-1.30","SS1603399414985","<img src='images/simple/6.png' width ='500' height = '500' style='border:5px solid black'>","40","mixed_complex_deviant","images/simple/12.png","images/simple/6.png","images/complex/6.png,images/complex/15.png,images/complex/2.png,images/complex/9.png,images/complex/4.png,images/complex/8.png,images/complex/14.png","1","null","","200","343.13000001129694","","","","background","",""
"","null","html-keyboard-response","176","476078","0.0-17.0-0.31","SS1603399414985","","null","","","","","","","","","","","","<img src=images/blank.png width =""500"" height = ""500"" style=""border:5px solid black"">","","",""
"","203.2550000003539","stimulus-presentation","177","476525","0.0-17.0-1.31","SS1603399414985","<img src='images/simple/6.png' width ='500' height = '500' style='border:5px solid black'>","40","mixed_complex_deviant","images/simple/12.png","images/simple/6.png","images/complex/6.png,images/complex/15.png,images/complex/2.png,images/complex/9.png,images/complex/4.png,images/complex/8.png,images/complex/14.png","1","null","","200","403.2550000003539","","","","background","",""
"","null","html-keyboard-response","178","477553","0.0-17.0-0.32","SS1603399414985","","null","","","","","","","","","","","","<img src=images/blank.png width =""500"" height = ""500"" style=""border:5px solid black"">","","",""
"","14.009999998961575","stimulus-presentation","179","477807","0.0-17.0-1.32","SS1603399414985","<img src='images/complex/8.png' width ='500' height = '500' style='border:5px solid black'>","40","mixed_complex_deviant","images/simple/12.png","images/simple/6.png","images/complex/6.png,images/complex/15.png,images/complex/2.png,images/complex/9.png,images/complex/4.png,images/complex/8.png,images/complex/14.png","1","null","","200","214.00999999896158","","","","deviant","",""
"","null","html-keyboard-response","180","478914","0.0-17.0-0.33","SS1603399414985","","null","","","","","","","","","","","","<img src=images/blank.png width =""500"" height = ""500"" style=""border:5px solid black"">","","",""
"","95.02500000235159","stimulus-presentation","181","479246","0.0-17.0-1.33","SS1603399414985","<img src='images/simple/6.png' width ='500' height = '500' style='border:5px solid black'>","40","mixed_complex_deviant","images/simple/12.png","images/simple/6.png","images/complex/6.png,images/complex/15.png,images/complex/2.png,images/complex/9.png,images/complex/4.png,images/complex/8.png,images/complex/14.png","1","null","","200","295.0250000023516","","","","background","",""
"","null","html-keyboard-response","182","480140","0.0-17.0-0.34","SS1603399414985","","null","","","","","","","","","","","","<img src=images/blank.png width =""500"" height = ""500"" style=""border:5px solid black"">","","",""
"","197.8499999968335","stimulus-presentation","183","480581","0.0-17.0-1.34","SS1603399414985","<img src='images/simple/6.png' width ='500' height = '500' style='border:5px solid black'>","40","mixed_complex_deviant","images/simple/12.png","images/simple/6.png","images/complex/6.png,images/complex/15.png,images/complex/2.png,images/complex/9.png,images/complex/4.png,images/complex/8.png,images/complex/14.png","1","null","","200","397.8499999968335","","","","background","",""
"","null","html-keyboard-response","184","481810","0.0-17.0-0.35","SS1603399414985","","null","","","","","","","","","","","","<img src=images/blank.png width =""500"" height = ""500"" style=""border:5px solid black"">","","",""
"","495.64000000827946","stimulus-presentation","185","482556","0.0-17.0-1.35","SS1603399414985","<img src='images/simple/6.png' width ='500' height = '500' style='border:5px solid black'>","40","mixed_complex_deviant","images/simple/12.png","images/simple/6.png","images/complex/6.png,images/complex/15.png,images/complex/2.png,images/complex/9.png,images/complex/4.png,images/complex/8.png,images/complex/14.png","1","null","","200","695.6400000082795","","","","background","",""
"","null","html-keyboard-response","186","483763","0.0-17.0-0.36","SS1603399414985","","null","","","","","","","","","","","","<img src=images/blank.png width =""500"" height = ""500"" style=""border:5px solid black"">","","",""
"","342.11000001232605","stimulus-presentation","187","484366","0.0-17.0-1.36","SS1603399414985","<img src='images/simple/6.png' width ='500' height = '500' style='border:5px solid black'>","40","mixed_complex_deviant","images/simple/12.png","images/simple/6.png","images/complex/6.png,images/complex/15.png,images/complex/2.png,images/complex/9.png,images/complex/4.png,images/complex/8.png,images/complex/14.png","1","null","","200","542.110000012326","","","","background","",""
"","null","html-keyboard-response","188","485612","0.0-17.0-0.37","SS1603399414985","","null","","","","","","","","","","","","<img src=images/blank.png width =""500"" height = ""500"" style=""border:5px solid black"">","","",""
"","633.5649999964517","stimulus-presentation","189","486493","0.0-17.0-1.37","SS1603399414985","<img src='images/simple/12.png' width ='500' height = '500' style='border:5px solid black'>","40","mixed_complex_deviant","images/simple/12.png","images/simple/6.png","images/complex/6.png,images/complex/15.png,images/complex/2.png,images/complex/9.png,images/complex/4.png,images/complex/8.png,images/complex/14.png","1","null","","200","833.5649999964517","yes","217.6400000025751","","target","",""
"","null","html-keyboard-response","190","487597","0.0-17.0-0.38","SS1603399414985","","null","","","","","","","","","","","","<img src=images/blank.png width =""500"" height = ""500"" style=""border:5px solid black"">","","",""
"","336.154999997234","stimulus-presentation","191","488158","0.0-17.0-1.38","SS1603399414985","<img src='images/simple/6.png' width ='500' height = '500' style='border:5px solid black'>","40","mixed_complex_deviant","images/simple/12.png","images/simple/6.png","images/complex/6.png,images/complex/15.png,images/complex/2.png,images/complex/9.png,images/complex/4.png,images/complex/8.png,images/complex/14.png","1","null","","200","536.154999997234","","","","background","",""
"","null","html-keyboard-response","192","489133","0.0-17.0-0.39","SS1603399414985","","null","","","","","","","","","","","","<img src=images/blank.png width =""500"" height = ""500"" style=""border:5px solid black"">","","",""
"","301.0599999979604","stimulus-presentation","193","489685","0.0-17.0-1.39","SS1603399414985","<img src='images/simple/6.png' width ='500' height = '500' style='border:5px solid black'>","40","mixed_complex_deviant","images/simple/12.png","images/simple/6.png","images/complex/6.png,images/complex/15.png,images/complex/2.png,images/complex/9.png,images/complex/4.png,images/complex/8.png,images/complex/14.png","1","null","","200","501.0599999979604","","","","background","",""
"","null","html-keyboard-response","194","490794","0.0-17.0-0.40","SS1603399414985","","null","","","","","","","","","","","","<img src=images/blank.png width =""500"" height = ""500"" style=""border:5px solid black"">","","",""
"","291.2300000025425","stimulus-presentation","195","491334","0.0-17.0-1.40","SS1603399414985","<img src='images/complex/9.png' width ='500' height = '500' style='border:5px solid black'>","40","mixed_complex_deviant","images/simple/12.png","images/simple/6.png","images/complex/6.png,images/complex/15.png,images/complex/2.png,images/complex/9.png,images/complex/4.png,images/complex/8.png,images/complex/14.png","1","null","","200","491.2300000025425","","","","deviant","",""
"","null","html-keyboard-response","196","492381","0.0-17.0-0.41","SS1603399414985","","null","","","","","","","","","","","","<img src=images/blank.png width =""500"" height = ""500"" style=""border:5px solid black"">","","",""
"","370.73500000406057","stimulus-presentation","197","492990","0.0-17.0-1.41","SS1603399414985","<img src='images/simple/6.png' width ='500' height = '500' style='border:5px solid black'>","40","mixed_complex_deviant","images/simple/12.png","images/simple/6.png","images/complex/6.png,images/complex/15.png,images/complex/2.png,images/complex/9.png,images/complex/4.png,images/complex/8.png,images/complex/14.png","1","null","","200","570.7350000040606","","","","background","",""
"","null","html-keyboard-response","198","494032","0.0-17.0-0.42","SS1603399414985","","null","","","","","","","","","","","","<img src=images/blank.png width =""500"" height = ""500"" style=""border:5px solid black"">","","",""
"","1104.8099999898113","stimulus-presentation","199","495386","0.0-17.0-1.42","SS1603399414985","<img src='images/simple/6.png' width ='500' height = '500' style='border:5px solid black'>","40","mixed_complex_deviant","images/simple/12.png","images/simple/6.png","images/complex/6.png,images/complex/15.png,images/complex/2.png,images/complex/9.png,images/complex/4.png,images/complex/8.png,images/complex/14.png","1","null","","200","1304.8099999898113","","","","background","",""
"","null","html-keyboard-response","200","496390","0.0-17.0-0.43","SS1603399414985","","null","","","","","","","","","","","","<img src=images/blank.png width =""500"" height = ""500"" style=""border:5px solid black"">","","",""
"","61.799999995855615","stimulus-presentation","201","496711","0.0-17.0-1.43","SS1603399414985","<img src='images/simple/6.png' width ='500' height = '500' style='border:5px solid black'>","40","mixed_complex_deviant","images/simple/12.png","images/simple/6.png","images/complex/6.png,images/complex/15.png,images/complex/2.png,images/complex/9.png,images/complex/4.png,images/complex/8.png,images/complex/14.png","1","null","","200","261.7999999958556","","","","background","",""
"","null","html-keyboard-response","202","497901","0.0-17.0-0.44","SS1603399414985","","null","","","","","","","","","","","","<img src=images/blank.png width =""500"" height = ""500"" style=""border:5px solid black"">","","",""
"","10.039999993750826","stimulus-presentation","203","498166","0.0-17.0-1.44","SS1603399414985","<img src='images/simple/6.png' width ='500' height = '500' style='border:5px solid black'>","40","mixed_complex_deviant","images/simple/12.png","images/simple/6.png","images/complex/6.png,images/complex/15.png,images/complex/2.png,images/complex/9.png,images/complex/4.png,images/complex/8.png,images/complex/14.png","1","null","","200","210.03999999375083","","","","background","",""
"","null","html-keyboard-response","204","499081","0.0-17.0-0.45","SS1603399414985","","null","","","","","","","","","","","","<img src=images/blank.png width =""500"" height = ""500"" style=""border:5px solid black"">","","",""
"","141.44999999552965","stimulus-presentation","205","499470","0.0-17.0-1.45","SS1603399414985","<img src='images/simple/6.png' width ='500' height = '500' style='border:5px solid black'>","40","mixed_complex_deviant","images/simple/12.png","images/simple/6.png","images/complex/6.png,images/complex/15.png,images/complex/2.png,images/complex/9.png,images/complex/4.png,images/complex/8.png,images/complex/14.png","1","null","","200","341.44999999552965","","","","background","",""
"","null","html-keyboard-response","206","500725","0.0-17.0-0.46","SS1603399414985","","null","","","","","","","","","","","","<img src=images/blank.png width =""500"" height = ""500"" style=""border:5px solid black"">","","",""
"","158.11000000394415","stimulus-presentation","207","501141","0.0-17.0-1.46","SS1603399414985","<img src='images/simple/6.png' width ='500' height = '500' style='border:5px solid black'>","40","mixed_complex_deviant","images/simple/12.png","images/simple/6.png","images/complex/6.png,images/complex/15.png,images/complex/2.png,images/complex/9.png,images/complex/4.png,images/complex/8.png,images/complex/14.png","1","null","","200","358.11000000394415","","","","background","",""
"","null","html-keyboard-response","208","502292","0.0-17.0-0.47","SS1603399414985","","null","","","","","","","","","","","","<img src=images/blank.png width =""500"" height = ""500"" style=""border:5px solid black"">","","",""
"","4657.065000006696","stimulus-presentation","209","507201","0.0-17.0-1.47","SS1603399414985","<img src='images/simple/6.png' width ='500' height = '500' style='border:5px solid black'>","40","mixed_complex_deviant","images/simple/12.png","images/simple/6.png","images/complex/6.png,images/complex/15.png,images/complex/2.png,images/complex/9.png,images/complex/4.png,images/complex/8.png,images/complex/14.png","1","null","","200","4857.065000006696","","","","background","",""
"","null","html-keyboard-response","210","508273","0.0-17.0-0.48","SS1603399414985","","null","","","","","","","","","","","","<img src=images/blank.png width =""500"" height = ""500"" style=""border:5px solid black"">","","",""
"","33.28000000328757","stimulus-presentation","211","508550","0.0-17.0-1.48","SS1603399414985","<img src='images/simple/6.png' width ='500' height = '500' style='border:5px solid black'>","40","mixed_complex_deviant","images/simple/12.png","images/simple/6.png","images/complex/6.png,images/complex/15.png,images/complex/2.png,images/complex/9.png,images/complex/4.png,images/complex/8.png,images/complex/14.png","1","null","","200","233.28000000328757","","","","background","",""
"[{""page_index"":0,""viewing_time"":1034}]","1035","task-instructions","212","509638","0.0-18.0","SS1603399414985","","","","","","","","","","","","","","","","",""
"[{""page_index"":0,""viewing_time"":497.82000000413973},{""page_index"":1,""viewing_time"":983.9050000009593},{""page_index"":2,""viewing_time"":640.0350000039907}]","2122.9350000066916","instructions","213","511822","0.0-19.0","SS1603399414985","","","","","","","","","","","","","","","","",""
"","null","html-keyboard-response","214","513104","0.0-20.0-0.0","SS1603399414985","","null","","","","","","","","","","","","<img src=images/blank.png width =""500"" height = ""500"" style=""border:5px solid black"">","","",""
"","1353.5800000099698","stimulus-presentation","215","514686","0.0-20.0-1.0","SS1603399414985","<img src='images/complex/5.png' width ='500' height = '500' style='border:5px solid black'>","40","all_complex","images/complex/3.png","images/complex/17.png","images/complex/16.png,images/complex/10.png,images/complex/5.png,images/complex/13.png,images/complex/18.png,images/complex/7.png,images/complex/1.png","2","null","","200","1553.5800000099698","","","","deviant","",""
"","null","html-keyboard-response","216","515678","0.0-20.0-0.1","SS1603399414985","","null","","","","","","","","","","","","<img src=images/blank.png width =""500"" height = ""500"" style=""border:5px solid black"">","","",""
"","171.52999999234453","stimulus-presentation","217","516101","0.0-20.0-1.1","SS1603399414985","<img src='images/complex/17.png' width ='500' height = '500' style='border:5px solid black'>","40","all_complex","images/complex/3.png","images/complex/17.png","images/complex/16.png,images/complex/10.png,images/complex/5.png,images/complex/13.png,images/complex/18.png,images/complex/7.png,images/complex/1.png","2","null","","200","371.52999999234453","","","","background","",""
"","null","html-keyboard-response","218","517074","0.0-20.0-0.2","SS1603399414985","","null","","","","","","","","","","","","<img src=images/blank.png width =""500"" height = ""500"" style=""border:5px solid black"">","","",""
"","151.83000000251923","stimulus-presentation","219","517441","0.0-20.0-1.2","SS1603399414985","<img src='images/complex/17.png' width ='500' height = '500' style='border:5px solid black'>","40","all_complex","images/complex/3.png","images/complex/17.png","images/complex/16.png,images/complex/10.png,images/complex/5.png,images/complex/13.png,images/complex/18.png,images/complex/7.png,images/complex/1.png","2","null","","200","351.8300000025192","","","","background","",""
"","null","html-keyboard-response","220","518701","0.0-20.0-0.3","SS1603399414985","","null","","","","","","","","","","","","<img src=images/blank.png width =""500"" height = ""500"" style=""border:5px solid black"">","","",""
"","207.1050000085961","stimulus-presentation","221","519158","0.0-20.0-1.3","SS1603399414985","<img src='images/complex/17.png' width ='500' height = '500' style='border:5px solid black'>","40","all_complex","images/complex/3.png","images/complex/17.png","images/complex/16.png,images/complex/10.png,images/complex/5.png,images/complex/13.png,images/complex/18.png,images/complex/7.png,images/complex/1.png","2","null","","200","407.1050000085961","","","","background","",""
"","null","html-keyboard-response","222","520392","0.0-20.0-0.4","SS1603399414985","","null","","","","","","","","","","","","<img src=images/blank.png width =""500"" height = ""500"" style=""border:5px solid black"">","","",""
"","121.59500000416301","stimulus-presentation","223","520757","0.0-20.0-1.4","SS1603399414985","<img src='images/complex/17.png' width ='500' height = '500' style='border:5px solid black'>","40","all_complex","images/complex/3.png","images/complex/17.png","images/complex/16.png,images/complex/10.png,images/complex/5.png,images/complex/13.png,images/complex/18.png,images/complex/7.png,images/complex/1.png","2","null","","200","321.595000004163","","","","background","",""
"","null","html-keyboard-response","224","522070","0.0-20.0-0.5","SS1603399414985","","null","","","","","","","","","","","","<img src=images/blank.png width =""500"" height = ""500"" style=""border:5px solid black"">","","",""
"","113.86500000662636","stimulus-presentation","225","522421","0.0-20.0-1.5","SS1603399414985","<img src='images/complex/17.png' width ='500' height = '500' style='border:5px solid black'>","40","all_complex","images/complex/3.png","images/complex/17.png","images/complex/16.png,images/complex/10.png,images/complex/5.png,images/complex/13.png,images/complex/18.png,images/complex/7.png,images/complex/1.png","2","null","","200","313.86500000662636","","","","background","",""
"","null","html-keyboard-response","226","523504","0.0-20.0-0.6","SS1603399414985","","null","","","","","","","","","","","","<img src=images/blank.png width =""500"" height = ""500"" style=""border:5px solid black"">","","",""
"","133.75999999698251","stimulus-presentation","227","523893","0.0-20.0-1.6","SS1603399414985","<img src='images/complex/17.png' width ='500' height = '500' style='border:5px solid black'>","40","all_complex","images/complex/3.png","images/complex/17.png","images/complex/16.png,images/complex/10.png,images/complex/5.png,images/complex/13.png,images/complex/18.png,images/complex/7.png,images/complex/1.png","2","null","","200","333.7599999969825","","","","background","",""
"","null","html-keyboard-response","228","524788","0.0-20.0-0.7","SS1603399414985","","null","","","","","","","","","","","","<img src=images/blank.png width =""500"" height = ""500"" style=""border:5px solid black"">","","",""
"","126.0550000006333","stimulus-presentation","229","525190","0.0-20.0-1.7","SS1603399414985","<img src='images/complex/17.png' width ='500' height = '500' style='border:5px solid black'>","40","all_complex","images/complex/3.png","images/complex/17.png","images/complex/16.png,images/complex/10.png,images/complex/5.png,images/complex/13.png,images/complex/18.png,images/complex/7.png,images/complex/1.png","2","null","","200","326.0550000006333","","","","background","",""
"","null","html-keyboard-response","230","526400","0.0-20.0-0.8","SS1603399414985","","null","","","","","","","","","","","","<img src=images/blank.png width =""500"" height = ""500"" style=""border:5px solid black"">","","",""
"","92.8799999965122","stimulus-presentation","231","526749","0.0-20.0-1.8","SS1603399414985","<img src='images/complex/17.png' width ='500' height = '500' style='border:5px solid black'>","40","all_complex","images/complex/3.png","images/complex/17.png","images/complex/16.png,images/complex/10.png,images/complex/5.png,images/complex/13.png,images/complex/18.png,images/complex/7.png,images/complex/1.png","2","null","","200","292.8799999965122","","","","background","",""
"","null","html-keyboard-response","232","527710","0.0-20.0-0.9","SS1603399414985","","null","","","","","","","","","","","","<img src=images/blank.png width =""500"" height = ""500"" style=""border:5px solid black"">","","",""
"","327.5849999918137","stimulus-presentation","233","528290","0.0-20.0-1.9","SS1603399414985","<img src='images/complex/10.png' width ='500' height = '500' style='border:5px solid black'>","40","all_complex","images/complex/3.png","images/complex/17.png","images/complex/16.png,images/complex/10.png,images/complex/5.png,images/complex/13.png,images/complex/18.png,images/complex/7.png,images/complex/1.png","2","null","","200","527.5849999918137","","","","deviant","",""
"","null","html-keyboard-response","234","529553","0.0-20.0-0.10","SS1603399414985","","null","","","","","","","","","","","","<img src=images/blank.png width =""500"" height = ""500"" style=""border:5px solid black"">","","",""
"","1065.920000008191","stimulus-presentation","235","530875","0.0-20.0-1.10","SS1603399414985","<img src='images/complex/3.png' width ='500' height = '500' style='border:5px solid black'>","40","all_complex","images/complex/3.png","images/complex/17.png","images/complex/16.png,images/complex/10.png,images/complex/5.png,images/complex/13.png,images/complex/18.png,images/complex/7.png,images/complex/1.png","2","null","","200","1265.920000008191","yes","171.15999999805354","","target","",""
"","null","html-keyboard-response","236","531952","0.0-20.0-0.11","SS1603399414985","","null","","","","","","","","","","","","<img src=images/blank.png width =""500"" height = ""500"" style=""border:5px solid black"">","","",""
"","134.1649999958463","stimulus-presentation","237","532325","0.0-20.0-1.11","SS1603399414985","<img src='images/complex/17.png' width ='500' height = '500' style='border:5px solid black'>","40","all_complex","images/complex/3.png","images/complex/17.png","images/complex/16.png,images/complex/10.png,images/complex/5.png,images/complex/13.png,images/complex/18.png,images/complex/7.png,images/complex/1.png","2","null","","200","334.1649999958463","","","","background","",""
"","null","html-keyboard-response","238","533382","0.0-20.0-0.12","SS1603399414985","","null","","","","","","","","","","","","<img src=images/blank.png width =""500"" height = ""500"" style=""border:5px solid black"">","","",""
"","222.67000000283588","stimulus-presentation","239","533853","0.0-20.0-1.12","SS1603399414985","<img src='images/complex/7.png' width ='500' height = '500' style='border:5px solid black'>","40","all_complex","images/complex/3.png","images/complex/17.png","images/complex/16.png,images/complex/10.png,images/complex/5.png,images/complex/13.png,images/complex/18.png,images/complex/7.png,images/complex/1.png","2","null","","200","422.6700000028359","","","","deviant","",""
"","null","html-keyboard-response","240","535161","0.0-20.0-0.13","SS1603399414985","","null","","","","","","","","","","","","<img src=images/blank.png width =""500"" height = ""500"" style=""border:5px solid black"">","","",""
"","121.16499998955987","stimulus-presentation","241","535525","0.0-20.0-1.13","SS1603399414985","<img src='images/complex/17.png' width ='500' height = '500' style='border:5px solid black'>","40","all_complex","images/complex/3.png","images/complex/17.png","images/complex/16.png,images/complex/10.png,images/complex/5.png,images/complex/13.png,images/complex/18.png,images/complex/7.png,images/complex/1.png","2","null","","200","321.1649999895599","","","","background","",""
"","null","html-keyboard-response","242","536703","0.0-20.0-0.14","SS1603399414985","","null","","","","","","","","","","","","<img src=images/blank.png width =""500"" height = ""500"" style=""border:5px solid black"">","","",""
"","570.0149999902351","stimulus-presentation","243","537525","0.0-20.0-1.14","SS1603399414985","<img src='images/complex/17.png' width ='500' height = '500' style='border:5px solid black'>","40","all_complex","images/complex/3.png","images/complex/17.png","images/complex/16.png,images/complex/10.png,images/complex/5.png,images/complex/13.png,images/complex/18.png,images/complex/7.png,images/complex/1.png","2","null","","200","770.0149999902351","","","","background","",""
"","null","html-keyboard-response","244","538576","0.0-20.0-0.15","SS1603399414985","","null","","","","","","","","","","","","<img src=images/blank.png width =""500"" height = ""500"" style=""border:5px solid black"">","","",""
"","157.5100000045495","stimulus-presentation","245","538986","0.0-20.0-1.15","SS1603399414985","<img src='images/complex/17.png' width ='500' height = '500' style='border:5px solid black'>","40","all_complex","images/complex/3.png","images/complex/17.png","images/complex/16.png,images/complex/10.png,images/complex/5.png,images/complex/13.png,images/complex/18.png,images/complex/7.png,images/complex/1.png","2","null","","200","357.5100000045495","","","","background","",""
"","null","html-keyboard-response","246","540322","0.0-20.0-0.16","SS1603399414985","","null","","","","","","","","","","","","<img src=images/blank.png width =""500"" height = ""500"" style=""border:5px solid black"">","","",""
"","1167.8050000045914","stimulus-presentation","247","541765","0.0-20.0-1.16","SS1603399414985","<img src='images/complex/17.png' width ='500' height = '500' style='border:5px solid black'>","40","all_complex","images/complex/3.png","images/complex/17.png","images/complex/16.png,images/complex/10.png,images/complex/5.png,images/complex/13.png,images/complex/18.png,images/complex/7.png,images/complex/1.png","2","null","","200","1367.8050000045914","","","","background","",""
"","null","html-keyboard-response","248","542886","0.0-20.0-0.17","SS1603399414985","","null","","","","","","","","","","","","<img src=images/blank.png width =""500"" height = ""500"" style=""border:5px solid black"">","","",""
"","53.11000000801869","stimulus-presentation","249","543165","0.0-20.0-1.17","SS1603399414985","<img src='images/complex/17.png' width ='500' height = '500' style='border:5px solid black'>","40","all_complex","images/complex/3.png","images/complex/17.png","images/complex/16.png,images/complex/10.png,images/complex/5.png,images/complex/13.png,images/complex/18.png,images/complex/7.png,images/complex/1.png","2","null","","200","253.1100000080187","","","","background","",""
"","null","html-keyboard-response","250","544406","0.0-20.0-0.18","SS1603399414985","","null","","","","","","","","","","","","<img src=images/blank.png width =""500"" height = ""500"" style=""border:5px solid black"">","","",""
"","107.47000000264961","stimulus-presentation","251","544773","0.0-20.0-1.18","SS1603399414985","<img src='images/complex/17.png' width ='500' height = '500' style='border:5px solid black'>","40","all_complex","images/complex/3.png","images/complex/17.png","images/complex/16.png,images/complex/10.png,images/complex/5.png,images/complex/13.png,images/complex/18.png,images/complex/7.png,images/complex/1.png","2","null","","200","307.4700000026496","","","","background","",""
"","null","html-keyboard-response","252","545670","0.0-20.0-0.19","SS1603399414985","","null","","","","","","","","","","","","<img src=images/blank.png width =""500"" height = ""500"" style=""border:5px solid black"">","","",""
"","275.35499999066815","stimulus-presentation","253","546197","0.0-20.0-1.19","SS1603399414985","<img src='images/complex/17.png' width ='500' height = '500' style='border:5px solid black'>","40","all_complex","images/complex/3.png","images/complex/17.png","images/complex/16.png,images/complex/10.png,images/complex/5.png,images/complex/13.png,images/complex/18.png,images/complex/7.png,images/complex/1.png","2","null","","200","475.35499999066815","","","","background","",""
"","null","html-keyboard-response","254","547504","0.0-20.0-0.20","SS1603399414985","","null","","","","","","","","","","","","<img src=images/blank.png width =""500"" height = ""500"" style=""border:5px solid black"">","","",""
"","241.280000002007","stimulus-presentation","255","547995","0.0-20.0-1.20","SS1603399414985","<img src='images/complex/17.png' width ='500' height = '500' style='border:5px solid black'>","40","all_complex","images/complex/3.png","images/complex/17.png","images/complex/16.png,images/complex/10.png,images/complex/5.png,images/complex/13.png,images/complex/18.png,images/complex/7.png,images/complex/1.png","2","null","","200","441.280000002007","","","","background","",""
"","null","html-keyboard-response","256","548922","0.0-20.0-0.21","SS1603399414985","","null","","","","","","","","","","","","<img src=images/blank.png width =""500"" height = ""500"" style=""border:5px solid black"">","","",""
"","778.9500000071712","stimulus-presentation","257","549933","0.0-20.0-1.21","SS1603399414985","<img src='images/complex/3.png' width ='500' height = '500' style='border:5px solid black'>","40","all_complex","images/complex/3.png","images/complex/17.png","images/complex/16.png,images/complex/10.png,images/complex/5.png,images/complex/13.png,images/complex/18.png,images/complex/7.png,images/complex/1.png","2","null","","200","978.9500000071712","yes","367.5999999977648","","target","",""
"","null","html-keyboard-response","258","550991","0.0-20.0-0.22","SS1603399414985","","null","","","","","","","","","","","","<img src=images/blank.png width =""500"" height = ""500"" style=""border:5px solid black"">","","",""
"","1429.7499999956926","stimulus-presentation","259","552661","0.0-20.0-1.22","SS1603399414985","<img src='images/complex/17.png' width ='500' height = '500' style='border:5px solid black'>","40","all_complex","images/complex/3.png","images/complex/17.png","images/complex/16.png,images/complex/10.png,images/complex/5.png,images/complex/13.png,images/complex/18.png,images/complex/7.png,images/complex/1.png","2","null","","200","1629.7499999956926","","","","background","",""
"","null","html-keyboard-response","260","553584","0.0-20.0-0.23","SS1603399414985","","null","","","","","","","","","","","","<img src=images/blank.png width =""500"" height = ""500"" style=""border:5px solid black"">","","",""
"","246.23499999870546","stimulus-presentation","261","554085","0.0-20.0-1.23","SS1603399414985","<img src='images/complex/16.png' width ='500' height = '500' style='border:5px solid black'>","40","all_complex","images/complex/3.png","images/complex/17.png","images/complex/16.png,images/complex/10.png,images/complex/5.png,images/complex/13.png,images/complex/18.png,images/complex/7.png,images/complex/1.png","2","null","","200","446.23499999870546","","","","deviant","",""
"","null","html-keyboard-response","262","555376","0.0-20.0-0.24","SS1603399414985","","null","","","","","","","","","","","","<img src=images/blank.png width =""500"" height = ""500"" style=""border:5px solid black"">","","",""
"","185.78500000876375","stimulus-presentation","263","555814","0.0-20.0-1.24","SS1603399414985","<img src='images/complex/17.png' width ='500' height = '500' style='border:5px solid black'>","40","all_complex","images/complex/3.png","images/complex/17.png","images/complex/16.png,images/complex/10.png,images/complex/5.png,images/complex/13.png,images/complex/18.png,images/complex/7.png,images/complex/1.png","2","null","","200","385.78500000876375","","","","background","",""
"","null","html-keyboard-response","264","557050","0.0-20.0-0.25","SS1603399414985","","null","","","","","","","","","","","","<img src=images/blank.png width =""500"" height = ""500"" style=""border:5px solid black"">","","",""
"","1038.8550000061514","stimulus-presentation","265","558341","0.0-20.0-1.25","SS1603399414985","<img src='images/complex/3.png' width ='500' height = '500' style='border:5px solid black'>","40","all_complex","images/complex/3.png","images/complex/17.png","images/complex/16.png,images/complex/10.png,images/complex/5.png,images/complex/13.png,images/complex/18.png,images/complex/7.png,images/complex/1.png","2","null","","200","1238.8550000061514","yes","294.8750000068685","","target","",""
"","null","html-keyboard-response","266","559456","0.0-20.0-0.26","SS1603399414985","","null","","","","","","","","","","","","<img src=images/blank.png width =""500"" height = ""500"" style=""border:5px solid black"">","","",""
"","159.68500000599306","stimulus-presentation","267","559878","0.0-20.0-1.26","SS1603399414985","<img src='images/complex/17.png' width ='500' height = '500' style='border:5px solid black'>","40","all_complex","images/complex/3.png","images/complex/17.png","images/complex/16.png,images/complex/10.png,images/complex/5.png,images/complex/13.png,images/complex/18.png,images/complex/7.png,images/complex/1.png","2","null","","200","359.68500000599306","","","","background","",""
"","null","html-keyboard-response","268","561176","0.0-20.0-0.27","SS1603399414985","","null","","","","","","","","","","","","<img src=images/blank.png width =""500"" height = ""500"" style=""border:5px solid black"">","","",""
"","357.9100000060862","stimulus-presentation","269","561780","0.0-20.0-1.27","SS1603399414985","<img src='images/complex/17.png' width ='500' height = '500' style='border:5px solid black'>","40","all_complex","images/complex/3.png","images/complex/17.png","images/complex/16.png,images/complex/10.png,images/complex/5.png,images/complex/13.png,images/complex/18.png,images/complex/7.png,images/complex/1.png","2","null","","200","557.9100000060862","","","","background","",""
"","null","html-keyboard-response","270","562868","0.0-20.0-0.28","SS1603399414985","","null","","","","","","","","","","","","<img src=images/blank.png width =""500"" height = ""500"" style=""border:5px solid black"">","","",""
"","226.03000000526663","stimulus-presentation","271","563341","0.0-20.0-1.28","SS1603399414985","<img src='images/complex/17.png' width ='500' height = '500' style='border:5px solid black'>","40","all_complex","images/complex/3.png","images/complex/17.png","images/complex/16.png,images/complex/10.png,images/complex/5.png,images/complex/13.png,images/complex/18.png,images/complex/7.png,images/complex/1.png","2","null","","200","426.03000000526663","","","","background","",""
"","null","html-keyboard-response","272","564373","0.0-20.0-0.29","SS1603399414985","","null","","","","","","","","","","","","<img src=images/blank.png width =""500"" height = ""500"" style=""border:5px solid black"">","","",""
"","183.8350000034552","stimulus-presentation","273","564813","0.0-20.0-1.29","SS1603399414985","<img src='images/complex/17.png' width ='500' height = '500' style='border:5px solid black'>","40","all_complex","images/complex/3.png","images/complex/17.png","images/complex/16.png,images/complex/10.png,images/complex/5.png,images/complex/13.png,images/complex/18.png,images/complex/7.png,images/complex/1.png","2","null","","200","383.8350000034552","","","","background","",""
"","null","html-keyboard-response","274","566005","0.0-20.0-0.30","SS1603399414985","","null","","","","","","","","","","","","<img src=images/blank.png width =""500"" height = ""500"" style=""border:5px solid black"">","","",""
"","125.41000000783242","stimulus-presentation","275","566397","0.0-20.0-1.30","SS1603399414985","<img src='images/complex/17.png' width ='500' height = '500' style='border:5px solid black'>","40","all_complex","images/complex/3.png","images/complex/17.png","images/complex/16.png,images/complex/10.png,images/complex/5.png,images/complex/13.png,images/complex/18.png,images/complex/7.png,images/complex/1.png","2","null","","200","325.4100000078324","","","","background","",""
"","null","html-keyboard-response","276","567661","0.0-20.0-0.31","SS1603399414985","","null","","","","","","","","","","","","<img src=images/blank.png width =""500"" height = ""500"" style=""border:5px solid black"">","","",""
"","187.65500000154134","stimulus-presentation","277","568100","0.0-20.0-1.31","SS1603399414985","<img src='images/complex/17.png' width ='500' height = '500' style='border:5px solid black'>","40","all_complex","images/complex/3.png","images/complex/17.png","images/complex/16.png,images/complex/10.png,images/complex/5.png,images/complex/13.png,images/complex/18.png,images/complex/7.png,images/complex/1.png","2","null","","200","387.65500000154134","","","","background","",""
"","null","html-keyboard-response","278","569019","0.0-20.0-0.32","SS1603399414985","","null","","","","","","","","","","","","<img src=images/blank.png width =""500"" height = ""500"" style=""border:5px solid black"">","","",""
"","143.9550000068266","stimulus-presentation","279","569398","0.0-20.0-1.32","SS1603399414985","<img src='images/complex/17.png' width ='500' height = '500' style='border:5px solid black'>","40","all_complex","images/complex/3.png","images/complex/17.png","images/complex/16.png,images/complex/10.png,images/complex/5.png,images/complex/13.png,images/complex/18.png,images/complex/7.png,images/complex/1.png","2","null","","200","343.9550000068266","","","","background","",""
"","null","html-keyboard-response","280","570435","0.0-20.0-0.33","SS1603399414985","","null","","","","","","","","","","","","<img src=images/blank.png width =""500"" height = ""500"" style=""border:5px solid black"">","","",""
"","338.31999999529216","stimulus-presentation","281","571025","0.0-20.0-1.33","SS1603399414985","<img src='images/complex/13.png' width ='500' height = '500' style='border:5px solid black'>","40","all_complex","images/complex/3.png","images/complex/17.png","images/complex/16.png,images/complex/10.png,images/complex/5.png,images/complex/13.png,images/complex/18.png,images/complex/7.png,images/complex/1.png","2","null","","200","538.3199999952922","","","","deviant","",""
"","null","html-keyboard-response","282","571993","0.0-20.0-0.34","SS1603399414985","","null","","","","","","","","","","","","<img src=images/blank.png width =""500"" height = ""500"" style=""border:5px solid black"">","","",""
