"view_history","rt","trial_type","trial_index","time_elapsed","internal_node_id","subject","trial_stimulus","key_press","task_type","task_target_stimulus","task_background_stimulus","task_deviant_stimuli","task_order_number","block_order_number","trial_order_number","minimum_viewing_duration","trial_looking_time","trial_pressed_space_bar","trial_space_bar_rt","stimulus","trial_stimulus_type","responses","question_order"
"[{""page_index"":0,""viewing_time"":22682.05000006128}]","22682.96000000555","instructions","0","22717","0.0-0.0","SS1604513320552","","","","","","","","","","","","","","","","",""
"[{""page_index"":0,""viewing_time"":9903.500000014901},{""page_index"":1,""viewing_time"":7383.524999953806},{""page_index"":2,""viewing_time"":16817.470000009052},{""page_index"":3,""viewing_time"":6102.7150000445545},{""page_index"":4,""viewing_time"":5477.57999994792},{""page_index"":5,""viewing_time"":7577.599999960512},{""page_index"":6,""viewing_time"":5941.990000079386},{""page_index"":7,""viewing_time"":7588.140000007115},{""page_index"":8,""viewing_time"":4396.33000001777}]","71189.52499993611","instructions","1","93909","0.0-1.0","SS1604513320552","","","","","","","","","","","","","","","","",""
"[{""page_index"":0,""viewing_time"":5712.560000014491},{""page_index"":1,""viewing_time"":7109.779999940656},{""page_index"":2,""viewing_time"":2373.9800000330433}]","15197.155000059865","instructions","2","109113","0.0-2.0","SS1604513320552","","","","","","","","","","","","","","","","",""
"","5910.525000072084","practice-block","3","115234","0.0-3.0","SS1604513320552","<img src='images/practice/practice_background.jpeg' width ='500' height = '500' style='border:5px solid black'>","40","null","images/practice/practice_target.jpg","null","null","null","null","","200","6110.525000072084","","","","","",""
"","null","html-keyboard-response","4","116460","0.0-4.0","SS1604513320552","","null","","","","","","","","","","","","<img src=images/blank.png width =""500"" height = ""500"" style=""border:5px solid black"">","","",""
"","8032.369999913499","practice-block","5","124704","0.0-5.0","SS1604513320552","<img src='images/practice/practice_background.jpeg' width ='500' height = '500' style='border:5px solid black'>","40","null","images/practice/practice_target.jpg","null","null","null","null","","200","8232.369999913499","yes","2867.8000000072643","","","",""
"","null","html-keyboard-response","6","125537","0.0-6.0","SS1604513320552","","null","","","","","","","","","","","","<img src=images/blank.png width =""500"" height = ""500"" style=""border:5px solid black"">","","",""
"","3230.195000069216","practice-block","7","128983","0.0-7.0","SS1604513320552","<img src='images/practice/practice_deviant.jpeg' width ='500' height = '500' style='border:5px solid black'>","40","null","images/practice/practice_target.jpg","null","null","null","null","","200","3430.195000069216","","","","","",""
"","null","html-keyboard-response","8","129790","0.0-8.0","SS1604513320552","","null","","","","","","","","","","","","<img src=images/blank.png width =""500"" height = ""500"" style=""border:5px solid black"">","","",""
"","2380.04999991972","practice-block","9","135307","0.0-9.0-0.0","SS1604513320552","<img src='images/practice/practice_target.jpg' width ='500' height = '500' style='border:5px solid black'>","40","null","images/practice/practice_target.jpg","null","null","null","null","","200","2580.04999991972","","","","","",""
"","8831.910000066273","practice-block","10","144346","0.0-9.1-0.1","SS1604513320552","<img src='images/practice/practice_target.jpg' width ='500' height = '500' style='border:5px solid black'>","40","null","images/practice/practice_target.jpg","null","null","null","null","","200","9031.910000066273","yes","323.9450000692159","","","",""
"","null","html-keyboard-response","11","145484","0.0-10.0","SS1604513320552","","null","","","","","","","","","","","","<img src=images/blank.png width =""500"" height = ""500"" style=""border:5px solid black"">","","",""
"","2927.709999959916","practice-block","12","148633","0.0-11.0","SS1604513320552","<img src='images/practice/practice_background.jpeg' width ='500' height = '500' style='border:5px solid black'>","40","null","images/practice/practice_target.jpg","null","null","null","null","","200","3127.709999959916","","","","","",""
"[{""page_index"":0,""viewing_time"":2652}]","2654","task-instructions","13","151290","0.0-12.0","SS1604513320552","","","","","","","","","","","","","","","","",""
"[{""page_index"":0,""viewing_time"":5514.820000040345},{""page_index"":1,""viewing_time"":19071.849999949336},{""page_index"":2,""viewing_time"":2286.8550000712276}]","26874.16500004474","instructions","14","178170","0.0-13.0","SS1604513320552","","","","","","","","","","","","","","","","",""
"","null","html-keyboard-response","15","179402","0.0-14.0-0.0","SS1604513320552","","null","","","","","","","","","","","","<img src=images/blank.png width =""500"" height = ""500"" style=""border:5px solid black"">","","",""
"","4771.609999937937","stimulus-presentation","16","184383","0.0-14.0-1.0","SS1604513320552","<img src='images/complex/10.png' width ='500' height = '500' style='border:5px solid black'>","40","all_complex","images/complex/6.png","images/complex/10.png","images/complex/7.png,images/complex/4.png,images/complex/9.png,images/complex/1.png,images/complex/8.png,images/complex/13.png,images/complex/11.png","0","null","","200","4971.609999937937","","","","background","",""
"","null","html-keyboard-response","17","185357","0.0-14.0-0.1","SS1604513320552","","null","","","","","","","","","","","","<img src=images/blank.png width =""500"" height = ""500"" style=""border:5px solid black"">","","",""
"","4884.275000076741","stimulus-presentation","18","190449","0.0-14.0-1.1","SS1604513320552","<img src='images/complex/10.png' width ='500' height = '500' style='border:5px solid black'>","40","all_complex","images/complex/6.png","images/complex/10.png","images/complex/7.png,images/complex/4.png,images/complex/9.png,images/complex/1.png,images/complex/8.png,images/complex/13.png,images/complex/11.png","0","null","","200","5084.275000076741","","","","background","",""
"","null","html-keyboard-response","19","191661","0.0-14.0-0.2","SS1604513320552","","null","","","","","","","","","","","","<img src=images/blank.png width =""500"" height = ""500"" style=""border:5px solid black"">","","",""
"","2509.434999898076","stimulus-presentation","20","194382","0.0-14.0-1.2","SS1604513320552","<img src='images/complex/6.png' width ='500' height = '500' style='border:5px solid black'>","40","all_complex","images/complex/6.png","images/complex/10.png","images/complex/7.png,images/complex/4.png,images/complex/9.png,images/complex/1.png,images/complex/8.png,images/complex/13.png,images/complex/11.png","0","null","","200","2709.434999898076","yes","770.7999999402091","","target","",""
"","null","html-keyboard-response","21","195669","0.0-14.0-0.3","SS1604513320552","","null","","","","","","","","","","","","<img src=images/blank.png width =""500"" height = ""500"" style=""border:5px solid black"">","","",""
"","4180.105000035837","stimulus-presentation","22","200068","0.0-14.0-1.3","SS1604513320552","<img src='images/complex/9.png' width ='500' height = '500' style='border:5px solid black'>","40","all_complex","images/complex/6.png","images/complex/10.png","images/complex/7.png,images/complex/4.png,images/complex/9.png,images/complex/1.png,images/complex/8.png,images/complex/13.png,images/complex/11.png","0","null","","200","4380.105000035837","","","","deviant","",""
"","null","html-keyboard-response","23","200979","0.0-14.0-0.4","SS1604513320552","","null","","","","","","","","","","","","<img src=images/blank.png width =""500"" height = ""500"" style=""border:5px solid black"">","","",""
"","3551.495000021532","stimulus-presentation","24","204741","0.0-14.0-1.4","SS1604513320552","<img src='images/complex/10.png' width ='500' height = '500' style='border:5px solid black'>","40","all_complex","images/complex/6.png","images/complex/10.png","images/complex/7.png,images/complex/4.png,images/complex/9.png,images/complex/1.png,images/complex/8.png,images/complex/13.png,images/complex/11.png","0","null","","200","3751.495000021532","","","","background","",""
"","null","html-keyboard-response","25","205966","0.0-14.0-0.5","SS1604513320552","","null","","","","","","","","","","","","<img src=images/blank.png width =""500"" height = ""500"" style=""border:5px solid black"">","","",""
"","2472.10500005167","stimulus-presentation","26","208656","0.0-14.0-1.5","SS1604513320552","<img src='images/complex/10.png' width ='500' height = '500' style='border:5px solid black'>","40","all_complex","images/complex/6.png","images/complex/10.png","images/complex/7.png,images/complex/4.png,images/complex/9.png,images/complex/1.png,images/complex/8.png,images/complex/13.png,images/complex/11.png","0","null","","200","2672.10500005167","","","","background","",""
"","null","html-keyboard-response","27","209642","0.0-14.0-0.6","SS1604513320552","","null","","","","","","","","","","","","<img src=images/blank.png width =""500"" height = ""500"" style=""border:5px solid black"">","","",""
"","4442.195000010543","stimulus-presentation","28","214294","0.0-14.0-1.6","SS1604513320552","<img src='images/complex/4.png' width ='500' height = '500' style='border:5px solid black'>","40","all_complex","images/complex/6.png","images/complex/10.png","images/complex/7.png,images/complex/4.png,images/complex/9.png,images/complex/1.png,images/complex/8.png,images/complex/13.png,images/complex/11.png","0","null","","200","4642.195000010543","","","","deviant","",""
"","null","html-keyboard-response","29","215271","0.0-14.0-0.7","SS1604513320552","","null","","","","","","","","","","","","<img src=images/blank.png width =""500"" height = ""500"" style=""border:5px solid black"">","","",""
"","1940.5099999858066","stimulus-presentation","30","217424","0.0-14.0-1.7","SS1604513320552","<img src='images/complex/6.png' width ='500' height = '500' style='border:5px solid black'>","40","all_complex","images/complex/6.png","images/complex/10.png","images/complex/7.png,images/complex/4.png,images/complex/9.png,images/complex/1.png,images/complex/8.png,images/complex/13.png,images/complex/11.png","0","null","","200","2140.5099999858066","yes","748.7749999854714","","target","",""
"","null","html-keyboard-response","31","218305","0.0-14.0-0.8","SS1604513320552","","null","","","","","","","","","","","","<img src=images/blank.png width =""500"" height = ""500"" style=""border:5px solid black"">","","",""
"","1286.104999948293","stimulus-presentation","32","219802","0.0-14.0-1.8","SS1604513320552","<img src='images/complex/10.png' width ='500' height = '500' style='border:5px solid black'>","40","all_complex","images/complex/6.png","images/complex/10.png","images/complex/7.png,images/complex/4.png,images/complex/9.png,images/complex/1.png,images/complex/8.png,images/complex/13.png,images/complex/11.png","0","null","","200","1486.104999948293","","","","background","",""
"","null","html-keyboard-response","33","221099","0.0-14.0-0.9","SS1604513320552","","null","","","","","","","","","","","","<img src=images/blank.png width =""500"" height = ""500"" style=""border:5px solid black"">","","",""
"","2489.9250000016764","stimulus-presentation","34","223804","0.0-14.0-1.9","SS1604513320552","<img src='images/complex/1.png' width ='500' height = '500' style='border:5px solid black'>","40","all_complex","images/complex/6.png","images/complex/10.png","images/complex/7.png,images/complex/4.png,images/complex/9.png,images/complex/1.png,images/complex/8.png,images/complex/13.png,images/complex/11.png","0","null","","200","2689.9250000016764","","","","deviant","",""
"","null","html-keyboard-response","35","224762","0.0-14.0-0.10","SS1604513320552","","null","","","","","","","","","","","","<img src=images/blank.png width =""500"" height = ""500"" style=""border:5px solid black"">","","",""
"","1997.4600001005456","stimulus-presentation","36","226978","0.0-14.0-1.10","SS1604513320552","<img src='images/complex/10.png' width ='500' height = '500' style='border:5px solid black'>","40","all_complex","images/complex/6.png","images/complex/10.png","images/complex/7.png,images/complex/4.png,images/complex/9.png,images/complex/1.png,images/complex/8.png,images/complex/13.png,images/complex/11.png","0","null","","200","2197.4600001005456","","","","background","",""
"","null","html-keyboard-response","37","228157","0.0-14.0-0.11","SS1604513320552","","null","","","","","","","","","","","","<img src=images/blank.png width =""500"" height = ""500"" style=""border:5px solid black"">","","",""
"","1834.069999982603","stimulus-presentation","38","230198","0.0-14.0-1.11","SS1604513320552","<img src='images/complex/6.png' width ='500' height = '500' style='border:5px solid black'>","40","all_complex","images/complex/6.png","images/complex/10.png","images/complex/7.png,images/complex/4.png,images/complex/9.png,images/complex/1.png,images/complex/8.png,images/complex/13.png,images/complex/11.png","0","null","","200","2034.069999982603","yes","521.6599999694154","","target","",""
"","null","html-keyboard-response","39","231385","0.0-14.0-0.12","SS1604513320552","","null","","","","","","","","","","","","<img src=images/blank.png width =""500"" height = ""500"" style=""border:5px solid black"">","","",""
"","2013.6799999745563","stimulus-presentation","40","233616","0.0-14.0-1.12","SS1604513320552","<img src='images/complex/7.png' width ='500' height = '500' style='border:5px solid black'>","40","all_complex","images/complex/6.png","images/complex/10.png","images/complex/7.png,images/complex/4.png,images/complex/9.png,images/complex/1.png,images/complex/8.png,images/complex/13.png,images/complex/11.png","0","null","","200","2213.6799999745563","","","","deviant","",""
"","null","html-keyboard-response","41","234935","0.0-14.0-0.13","SS1604513320552","","null","","","","","","","","","","","","<img src=images/blank.png width =""500"" height = ""500"" style=""border:5px solid black"">","","",""
"","1601.60499997437","stimulus-presentation","42","236736","0.0-14.0-1.13","SS1604513320552","<img src='images/complex/10.png' width ='500' height = '500' style='border:5px solid black'>","40","all_complex","images/complex/6.png","images/complex/10.png","images/complex/7.png,images/complex/4.png,images/complex/9.png,images/complex/1.png,images/complex/8.png,images/complex/13.png,images/complex/11.png","0","null","","200","1801.60499997437","","","","background","",""
"","null","html-keyboard-response","43","237941","0.0-14.0-0.14","SS1604513320552","","null","","","","","","","","","","","","<img src=images/blank.png width =""500"" height = ""500"" style=""border:5px solid black"">","","",""
"","1966.0450000083074","stimulus-presentation","44","240123","0.0-14.0-1.14","SS1604513320552","<img src='images/complex/10.png' width ='500' height = '500' style='border:5px solid black'>","40","all_complex","images/complex/6.png","images/complex/10.png","images/complex/7.png,images/complex/4.png,images/complex/9.png,images/complex/1.png,images/complex/8.png,images/complex/13.png,images/complex/11.png","0","null","","200","2166.0450000083074","","","","background","",""
"","null","html-keyboard-response","45","240960","0.0-14.0-0.15","SS1604513320552","","null","","","","","","","","","","","","<img src=images/blank.png width =""500"" height = ""500"" style=""border:5px solid black"">","","",""
"","1832.2350000962615","stimulus-presentation","46","242999","0.0-14.0-1.15","SS1604513320552","<img src='images/complex/10.png' width ='500' height = '500' style='border:5px solid black'>","40","all_complex","images/complex/6.png","images/complex/10.png","images/complex/7.png,images/complex/4.png,images/complex/9.png,images/complex/1.png,images/complex/8.png,images/complex/13.png,images/complex/11.png","0","null","","200","2032.2350000962615","","","","background","",""
"","null","html-keyboard-response","47","244111","0.0-14.0-0.16","SS1604513320552","","null","","","","","","","","","","","","<img src=images/blank.png width =""500"" height = ""500"" style=""border:5px solid black"">","","",""
"","2157.935000024736","stimulus-presentation","48","246476","0.0-14.0-1.16","SS1604513320552","<img src='images/complex/10.png' width ='500' height = '500' style='border:5px solid black'>","40","all_complex","images/complex/6.png","images/complex/10.png","images/complex/7.png,images/complex/4.png,images/complex/9.png,images/complex/1.png,images/complex/8.png,images/complex/13.png,images/complex/11.png","0","null","","200","2357.935000024736","","","","background","",""
"","null","html-keyboard-response","49","247555","0.0-14.0-0.17","SS1604513320552","","null","","","","","","","","","","","","<img src=images/blank.png width =""500"" height = ""500"" style=""border:5px solid black"">","","",""
"","2225.6100000813603","stimulus-presentation","50","250000","0.0-14.0-1.17","SS1604513320552","<img src='images/complex/10.png' width ='500' height = '500' style='border:5px solid black'>","40","all_complex","images/complex/6.png","images/complex/10.png","images/complex/7.png,images/complex/4.png,images/complex/9.png,images/complex/1.png,images/complex/8.png,images/complex/13.png,images/complex/11.png","0","null","","200","2425.6100000813603","","","","background","",""
"","null","html-keyboard-response","51","251102","0.0-14.0-0.18","SS1604513320552","","null","","","","","","","","","","","","<img src=images/blank.png width =""500"" height = ""500"" style=""border:5px solid black"">","","",""
"","1993.2300000218675","stimulus-presentation","52","253319","0.0-14.0-1.18","SS1604513320552","<img src='images/complex/10.png' width ='500' height = '500' style='border:5px solid black'>","40","all_complex","images/complex/6.png","images/complex/10.png","images/complex/7.png,images/complex/4.png,images/complex/9.png,images/complex/1.png,images/complex/8.png,images/complex/13.png,images/complex/11.png","0","null","","200","2193.2300000218675","","","","background","",""
"","null","html-keyboard-response","53","254286","0.0-14.0-0.19","SS1604513320552","","null","","","","","","","","","","","","<img src=images/blank.png width =""500"" height = ""500"" style=""border:5px solid black"">","","",""
"","2235.8550000935793","stimulus-presentation","54","256750","0.0-14.0-1.19","SS1604513320552","<img src='images/complex/10.png' width ='500' height = '500' style='border:5px solid black'>","40","all_complex","images/complex/6.png","images/complex/10.png","images/complex/7.png,images/complex/4.png,images/complex/9.png,images/complex/1.png,images/complex/8.png,images/complex/13.png,images/complex/11.png","0","null","","200","2435.8550000935793","","","","background","",""
"","null","html-keyboard-response","55","257635","0.0-14.0-0.20","SS1604513320552","","null","","","","","","","","","","","","<img src=images/blank.png width =""500"" height = ""500"" style=""border:5px solid black"">","","",""
"","2232.2799999965355","stimulus-presentation","56","260093","0.0-14.0-1.20","SS1604513320552","<img src='images/complex/10.png' width ='500' height = '500' style='border:5px solid black'>","40","all_complex","images/complex/6.png","images/complex/10.png","images/complex/7.png,images/complex/4.png,images/complex/9.png,images/complex/1.png,images/complex/8.png,images/complex/13.png,images/complex/11.png","0","null","","200","2432.2799999965355","","","","background","",""
"","null","html-keyboard-response","57","261330","0.0-14.0-0.21","SS1604513320552","","null","","","","","","","","","","","","<img src=images/blank.png width =""500"" height = ""500"" style=""border:5px solid black"">","","",""
"","1811.5499999839813","stimulus-presentation","58","263353","0.0-14.0-1.21","SS1604513320552","<img src='images/complex/10.png' width ='500' height = '500' style='border:5px solid black'>","40","all_complex","images/complex/6.png","images/complex/10.png","images/complex/7.png,images/complex/4.png,images/complex/9.png,images/complex/1.png,images/complex/8.png,images/complex/13.png,images/complex/11.png","0","null","","200","2011.5499999839813","","","","background","",""
"","null","html-keyboard-response","59","264580","0.0-14.0-0.22","SS1604513320552","","null","","","","","","","","","","","","<img src=images/blank.png width =""500"" height = ""500"" style=""border:5px solid black"">","","",""
"","3542.4300000304356","stimulus-presentation","60","268336","0.0-14.0-1.22","SS1604513320552","<img src='images/complex/13.png' width ='500' height = '500' style='border:5px solid black'>","40","all_complex","images/complex/6.png","images/complex/10.png","images/complex/7.png,images/complex/4.png,images/complex/9.png,images/complex/1.png,images/complex/8.png,images/complex/13.png,images/complex/11.png","0","null","","200","3742.4300000304356","","","","deviant","",""
"","null","html-keyboard-response","61","269493","0.0-14.0-0.23","SS1604513320552","","null","","","","","","","","","","","","<img src=images/blank.png width =""500"" height = ""500"" style=""border:5px solid black"">","","",""
"","2580.500000040047","stimulus-presentation","62","272295","0.0-14.0-1.23","SS1604513320552","<img src='images/complex/6.png' width ='500' height = '500' style='border:5px solid black'>","40","all_complex","images/complex/6.png","images/complex/10.png","images/complex/7.png,images/complex/4.png,images/complex/9.png,images/complex/1.png,images/complex/8.png,images/complex/13.png,images/complex/11.png","0","null","","200","2780.500000040047","yes","640.5500000109896","","target","",""
"","null","html-keyboard-response","63","273517","0.0-14.0-0.24","SS1604513320552","","null","","","","","","","","","","","","<img src=images/blank.png width =""500"" height = ""500"" style=""border:5px solid black"">","","",""
"","1322.5850000744686","stimulus-presentation","64","275047","0.0-14.0-1.24","SS1604513320552","<img src='images/complex/10.png' width ='500' height = '500' style='border:5px solid black'>","40","all_complex","images/complex/6.png","images/complex/10.png","images/complex/7.png,images/complex/4.png,images/complex/9.png,images/complex/1.png,images/complex/8.png,images/complex/13.png,images/complex/11.png","0","null","","200","1522.5850000744686","","","","background","",""
"","null","html-keyboard-response","65","275878","0.0-14.0-0.25","SS1604513320552","","null","","","","","","","","","","","","<img src=images/blank.png width =""500"" height = ""500"" style=""border:5px solid black"">","","",""
"","1644.5649999659508","stimulus-presentation","66","277734","0.0-14.0-1.25","SS1604513320552","<img src='images/complex/10.png' width ='500' height = '500' style='border:5px solid black'>","40","all_complex","images/complex/6.png","images/complex/10.png","images/complex/7.png,images/complex/4.png,images/complex/9.png,images/complex/1.png,images/complex/8.png,images/complex/13.png,images/complex/11.png","0","null","","200","1844.5649999659508","","","","background","",""
"","null","html-keyboard-response","67","278731","0.0-14.0-0.26","SS1604513320552","","null","","","","","","","","","","","","<img src=images/blank.png width =""500"" height = ""500"" style=""border:5px solid black"">","","",""
"","1564.7750000935048","stimulus-presentation","68","280518","0.0-14.0-1.26","SS1604513320552","<img src='images/complex/10.png' width ='500' height = '500' style='border:5px solid black'>","40","all_complex","images/complex/6.png","images/complex/10.png","images/complex/7.png,images/complex/4.png,images/complex/9.png,images/complex/1.png,images/complex/8.png,images/complex/13.png,images/complex/11.png","0","null","","200","1764.7750000935048","","","","background","",""
"","null","html-keyboard-response","69","281421","0.0-14.0-0.27","SS1604513320552","","null","","","","","","","","","","","","<img src=images/blank.png width =""500"" height = ""500"" style=""border:5px solid black"">","","",""
"","1487.8049999242648","stimulus-presentation","70","283128","0.0-14.0-1.27","SS1604513320552","<img src='images/complex/10.png' width ='500' height = '500' style='border:5px solid black'>","40","all_complex","images/complex/6.png","images/complex/10.png","images/complex/7.png,images/complex/4.png,images/complex/9.png,images/complex/1.png,images/complex/8.png,images/complex/13.png,images/complex/11.png","0","null","","200","1687.8049999242648","","","","background","",""
"","null","html-keyboard-response","71","284375","0.0-14.0-0.28","SS1604513320552","","null","","","","","","","","","","","","<img src=images/blank.png width =""500"" height = ""500"" style=""border:5px solid black"">","","",""
"","1571.059999987483","stimulus-presentation","72","286162","0.0-14.0-1.28","SS1604513320552","<img src='images/complex/10.png' width ='500' height = '500' style='border:5px solid black'>","40","all_complex","images/complex/6.png","images/complex/10.png","images/complex/7.png,images/complex/4.png,images/complex/9.png,images/complex/1.png,images/complex/8.png,images/complex/13.png,images/complex/11.png","0","null","","200","1771.059999987483","","","","background","",""
"","null","html-keyboard-response","73","287083","0.0-14.0-0.29","SS1604513320552","","null","","","","","","","","","","","","<img src=images/blank.png width =""500"" height = ""500"" style=""border:5px solid black"">","","",""
"","1590.5600000405684","stimulus-presentation","74","288896","0.0-14.0-1.29","SS1604513320552","<img src='images/complex/10.png' width ='500' height = '500' style='border:5px solid black'>","40","all_complex","images/complex/6.png","images/complex/10.png","images/complex/7.png,images/complex/4.png,images/complex/9.png,images/complex/1.png,images/complex/8.png,images/complex/13.png,images/complex/11.png","0","null","","200","1790.5600000405684","","","","background","",""
"","null","html-keyboard-response","75","289781","0.0-14.0-0.30","SS1604513320552","","null","","","","","","","","","","","","<img src=images/blank.png width =""500"" height = ""500"" style=""border:5px solid black"">","","",""
"","2893.0650000693277","stimulus-presentation","76","292882","0.0-14.0-1.30","SS1604513320552","<img src='images/complex/11.png' width ='500' height = '500' style='border:5px solid black'>","40","all_complex","images/complex/6.png","images/complex/10.png","images/complex/7.png,images/complex/4.png,images/complex/9.png,images/complex/1.png,images/complex/8.png,images/complex/13.png,images/complex/11.png","0","null","","200","3093.0650000693277","","","","deviant","",""
"","null","html-keyboard-response","77","294057","0.0-14.0-0.31","SS1604513320552","","null","","","","","","","","","","","","<img src=images/blank.png width =""500"" height = ""500"" style=""border:5px solid black"">","","",""
"","1601.145000080578","stimulus-presentation","78","295874","0.0-14.0-1.31","SS1604513320552","<img src='images/complex/10.png' width ='500' height = '500' style='border:5px solid black'>","40","all_complex","images/complex/6.png","images/complex/10.png","images/complex/7.png,images/complex/4.png,images/complex/9.png,images/complex/1.png,images/complex/8.png,images/complex/13.png,images/complex/11.png","0","null","","200","1801.145000080578","","","","background","",""
"","null","html-keyboard-response","79","296941","0.0-14.0-0.32","SS1604513320552","","null","","","","","","","","","","","","<img src=images/blank.png width =""500"" height = ""500"" style=""border:5px solid black"">","","",""
"","1599.1249999497086","stimulus-presentation","80","298762","0.0-14.0-1.32","SS1604513320552","<img src='images/complex/6.png' width ='500' height = '500' style='border:5px solid black'>","40","all_complex","images/complex/6.png","images/complex/10.png","images/complex/7.png,images/complex/4.png,images/complex/9.png,images/complex/1.png,images/complex/8.png,images/complex/13.png,images/complex/11.png","0","null","","200","1799.1249999497086","yes","459.0649999445304","","target","",""
"","null","html-keyboard-response","81","299588","0.0-14.0-0.33","SS1604513320552","","null","","","","","","","","","","","","<img src=images/blank.png width =""500"" height = ""500"" style=""border:5px solid black"">","","",""
"","682.4849999975413","stimulus-presentation","82","300479","0.0-14.0-1.33","SS1604513320552","<img src='images/complex/10.png' width ='500' height = '500' style='border:5px solid black'>","40","all_complex","images/complex/6.png","images/complex/10.png","images/complex/7.png,images/complex/4.png,images/complex/9.png,images/complex/1.png,images/complex/8.png,images/complex/13.png,images/complex/11.png","0","null","","200","882.4849999975413","","","","background","",""
"","null","html-keyboard-response","83","301472","0.0-14.0-0.34","SS1604513320552","","null","","","","","","","","","","","","<img src=images/blank.png width =""500"" height = ""500"" style=""border:5px solid black"">","","",""
"","524.7700000181794","stimulus-presentation","84","302219","0.0-14.0-1.34","SS1604513320552","<img src='images/complex/10.png' width ='500' height = '500' style='border:5px solid black'>","40","all_complex","images/complex/6.png","images/complex/10.png","images/complex/7.png,images/complex/4.png,images/complex/9.png,images/complex/1.png,images/complex/8.png,images/complex/13.png,images/complex/11.png","0","null","","200","724.7700000181794","","","","background","",""
"","null","html-keyboard-response","85","303233","0.0-14.0-0.35","SS1604513320552","","null","","","","","","","","","","","","<img src=images/blank.png width =""500"" height = ""500"" style=""border:5px solid black"">","","",""
"","1234.7000000299886","stimulus-presentation","86","304681","0.0-14.0-1.35","SS1604513320552","<img src='images/complex/6.png' width ='500' height = '500' style='border:5px solid black'>","40","all_complex","images/complex/6.png","images/complex/10.png","images/complex/7.png,images/complex/4.png,images/complex/9.png,images/complex/1.png,images/complex/8.png,images/complex/13.png,images/complex/11.png","0","null","","200","1434.7000000299886","yes","315.8250000560656","","target","",""
"","null","html-keyboard-response","87","305712","0.0-14.0-0.36","SS1604513320552","","null","","","","","","","","","","","","<img src=images/blank.png width =""500"" height = ""500"" style=""border:5px solid black"">","","",""
"","440.2449999470264","stimulus-presentation","88","306361","0.0-14.0-1.36","SS1604513320552","<img src='images/complex/10.png' width ='500' height = '500' style='border:5px solid black'>","40","all_complex","images/complex/6.png","images/complex/10.png","images/complex/7.png,images/complex/4.png,images/complex/9.png,images/complex/1.png,images/complex/8.png,images/complex/13.png,images/complex/11.png","0","null","","200","640.2449999470264","","","","background","",""
"","null","html-keyboard-response","89","307194","0.0-14.0-0.37","SS1604513320552","","null","","","","","","","","","","","","<img src=images/blank.png width =""500"" height = ""500"" style=""border:5px solid black"">","","",""
"","473.3900000574067","stimulus-presentation","90","307883","0.0-14.0-1.37","SS1604513320552","<img src='images/complex/10.png' width ='500' height = '500' style='border:5px solid black'>","40","all_complex","images/complex/6.png","images/complex/10.png","images/complex/7.png,images/complex/4.png,images/complex/9.png,images/complex/1.png,images/complex/8.png,images/complex/13.png,images/complex/11.png","0","null","","200","673.3900000574067","","","","background","",""
"","null","html-keyboard-response","91","309147","0.0-14.0-0.38","SS1604513320552","","null","","","","","","","","","","","","<img src=images/blank.png width =""500"" height = ""500"" style=""border:5px solid black"">","","",""
"","308.9149999432266","stimulus-presentation","92","309679","0.0-14.0-1.38","SS1604513320552","<img src='images/complex/10.png' width ='500' height = '500' style='border:5px solid black'>","40","all_complex","images/complex/6.png","images/complex/10.png","images/complex/7.png,images/complex/4.png,images/complex/9.png,images/complex/1.png,images/complex/8.png,images/complex/13.png,images/complex/11.png","0","null","","200","508.9149999432266","","","","background","",""
"","null","html-keyboard-response","93","310714","0.0-14.0-0.39","SS1604513320552","","null","","","","","","","","","","","","<img src=images/blank.png width =""500"" height = ""500"" style=""border:5px solid black"">","","",""
"","312.9350000526756","stimulus-presentation","94","311240","0.0-14.0-1.39","SS1604513320552","<img src='images/complex/10.png' width ='500' height = '500' style='border:5px solid black'>","40","all_complex","images/complex/6.png","images/complex/10.png","images/complex/7.png,images/complex/4.png,images/complex/9.png,images/complex/1.png,images/complex/8.png,images/complex/13.png,images/complex/11.png","0","null","","200","512.9350000526756","","","","background","",""
"","null","html-keyboard-response","95","312177","0.0-14.0-0.40","SS1604513320552","","null","","","","","","","","","","","","<img src=images/blank.png width =""500"" height = ""500"" style=""border:5px solid black"">","","",""
"","1205.625000060536","stimulus-presentation","96","313601","0.0-14.0-1.40","SS1604513320552","<img src='images/complex/6.png' width ='500' height = '500' style='border:5px solid black'>","40","all_complex","images/complex/6.png","images/complex/10.png","images/complex/7.png,images/complex/4.png,images/complex/9.png,images/complex/1.png,images/complex/8.png,images/complex/13.png,images/complex/11.png","0","null","","200","1405.625000060536","yes","310.67000003531575","","target","",""
"","null","html-keyboard-response","97","314834","0.0-14.0-0.41","SS1604513320552","","null","","","","","","","","","","","","<img src=images/blank.png width =""500"" height = ""500"" style=""border:5px solid black"">","","",""
"","2544.8249999899417","stimulus-presentation","98","317590","0.0-14.0-1.41","SS1604513320552","<img src='images/complex/8.png' width ='500' height = '500' style='border:5px solid black'>","40","all_complex","images/complex/6.png","images/complex/10.png","images/complex/7.png,images/complex/4.png,images/complex/9.png,images/complex/1.png,images/complex/8.png,images/complex/13.png,images/complex/11.png","0","null","","200","2744.8249999899417","","","","deviant","",""
"","null","html-keyboard-response","99","318651","0.0-14.0-0.42","SS1604513320552","","null","","","","","","","","","","","","<img src=images/blank.png width =""500"" height = ""500"" style=""border:5px solid black"">","","",""
"","368.7200000276789","stimulus-presentation","100","319244","0.0-14.0-1.42","SS1604513320552","<img src='images/complex/10.png' width ='500' height = '500' style='border:5px solid black'>","40","all_complex","images/complex/6.png","images/complex/10.png","images/complex/7.png,images/complex/4.png,images/complex/9.png,images/complex/1.png,images/complex/8.png,images/complex/13.png,images/complex/11.png","0","null","","200","568.7200000276789","","","","background","",""
"","null","html-keyboard-response","101","320101","0.0-14.0-0.43","SS1604513320552","","null","","","","","","","","","","","","<img src=images/blank.png width =""500"" height = ""500"" style=""border:5px solid black"">","","",""
"","374.30000002495944","stimulus-presentation","102","320686","0.0-14.0-1.43","SS1604513320552","<img src='images/complex/10.png' width ='500' height = '500' style='border:5px solid black'>","40","all_complex","images/complex/6.png","images/complex/10.png","images/complex/7.png,images/complex/4.png,images/complex/9.png,images/complex/1.png,images/complex/8.png,images/complex/13.png,images/complex/11.png","0","null","","200","574.3000000249594","","","","background","",""
"","null","html-keyboard-response","103","321582","0.0-14.0-0.44","SS1604513320552","","null","","","","","","","","","","","","<img src=images/blank.png width =""500"" height = ""500"" style=""border:5px solid black"">","","",""
"","380.87500003166497","stimulus-presentation","104","322178","0.0-14.0-1.44","SS1604513320552","<img src='images/complex/10.png' width ='500' height = '500' style='border:5px solid black'>","40","all_complex","images/complex/6.png","images/complex/10.png","images/complex/7.png,images/complex/4.png,images/complex/9.png,images/complex/1.png,images/complex/8.png,images/complex/13.png,images/complex/11.png","0","null","","200","580.875000031665","","","","background","",""
"","null","html-keyboard-response","105","323217","0.0-14.0-0.45","SS1604513320552","","null","","","","","","","","","","","","<img src=images/blank.png width =""500"" height = ""500"" style=""border:5px solid black"">","","",""
"","291.0200000042096","stimulus-presentation","106","323731","0.0-14.0-1.45","SS1604513320552","<img src='images/complex/10.png' width ='500' height = '500' style='border:5px solid black'>","40","all_complex","images/complex/6.png","images/complex/10.png","images/complex/7.png,images/complex/4.png,images/complex/9.png,images/complex/1.png,images/complex/8.png,images/complex/13.png,images/complex/11.png","0","null","","200","491.0200000042096","","","","background","",""
"","null","html-keyboard-response","107","324987","0.0-14.0-0.46","SS1604513320552","","null","","","","","","","","","","","","<img src=images/blank.png width =""500"" height = ""500"" style=""border:5px solid black"">","","",""
"","235.34000001382083","stimulus-presentation","108","325443","0.0-14.0-1.46","SS1604513320552","<img src='images/complex/10.png' width ='500' height = '500' style='border:5px solid black'>","40","all_complex","images/complex/6.png","images/complex/10.png","images/complex/7.png,images/complex/4.png,images/complex/9.png,images/complex/1.png,images/complex/8.png,images/complex/13.png,images/complex/11.png","0","null","","200","435.3400000138208","","","","background","",""
"","null","html-keyboard-response","109","326650","0.0-14.0-0.47","SS1604513320552","","null","","","","","","","","","","","","<img src=images/blank.png width =""500"" height = ""500"" style=""border:5px solid black"">","","",""
"","260.91499999165535","stimulus-presentation","110","327135","0.0-14.0-1.47","SS1604513320552","<img src='images/complex/10.png' width ='500' height = '500' style='border:5px solid black'>","40","all_complex","images/complex/6.png","images/complex/10.png","images/complex/7.png,images/complex/4.png,images/complex/9.png,images/complex/1.png,images/complex/8.png,images/complex/13.png,images/complex/11.png","0","null","","200","460.91499999165535","","","","background","",""
"","null","html-keyboard-response","111","328205","0.0-14.0-0.48","SS1604513320552","","null","","","","","","","","","","","","<img src=images/blank.png width =""500"" height = ""500"" style=""border:5px solid black"">","","",""
"","290.78999999910593","stimulus-presentation","112","328719","0.0-14.0-1.48","SS1604513320552","<img src='images/complex/10.png' width ='500' height = '500' style='border:5px solid black'>","40","all_complex","images/complex/6.png","images/complex/10.png","images/complex/7.png,images/complex/4.png,images/complex/9.png,images/complex/1.png,images/complex/8.png,images/complex/13.png,images/complex/11.png","0","null","","200","490.78999999910593","","","","background","",""
"[{""page_index"":0,""viewing_time"":47281}]","47281","task-instructions","113","376007","0.0-15.0","SS1604513320552","","","","","","","","","","","","","","","","",""
"[{""page_index"":0,""viewing_time"":3536.2050000112504},{""page_index"":1,""viewing_time"":7576.470000087284},{""page_index"":2,""viewing_time"":1706.4549999777228}]","12819.4450000301","instructions","114","388837","0.0-16.0","SS1604513320552","","","","","","","","","","","","","","","","",""
"","null","html-keyboard-response","115","389684","0.0-17.0-0.0","SS1604513320552","","null","","","","","","","","","","","","<img src=images/blank.png width =""500"" height = ""500"" style=""border:5px solid black"">","","",""
"","1298.5549999866635","stimulus-presentation","116","391189","0.0-17.0-1.0","SS1604513320552","<img src='images/complex/15.png' width ='500' height = '500' style='border:5px solid black'>","40","mixed_simple_deviant","images/complex/5.png","images/complex/15.png","images/simple/2.png,images/simple/1.png,images/simple/15.png,images/simple/7.png,images/simple/16.png,images/simple/13.png,images/simple/5.png","1","null","","200","1498.5549999866635","","","","background","",""
"","null","html-keyboard-response","117","392477","0.0-17.0-0.1","SS1604513320552","","null","","","","","","","","","","","","<img src=images/blank.png width =""500"" height = ""500"" style=""border:5px solid black"">","","",""
"","1207.2600000537932","stimulus-presentation","118","393899","0.0-17.0-1.1","SS1604513320552","<img src='images/complex/15.png' width ='500' height = '500' style='border:5px solid black'>","40","mixed_simple_deviant","images/complex/5.png","images/complex/15.png","images/simple/2.png,images/simple/1.png,images/simple/15.png,images/simple/7.png,images/simple/16.png,images/simple/13.png,images/simple/5.png","1","null","","200","1407.2600000537932","","","","background","",""
"","null","html-keyboard-response","119","394921","0.0-17.0-0.2","SS1604513320552","","null","","","","","","","","","","","","<img src=images/blank.png width =""500"" height = ""500"" style=""border:5px solid black"">","","",""
"","1069.3299999693409","stimulus-presentation","120","396210","0.0-17.0-1.2","SS1604513320552","<img src='images/complex/15.png' width ='500' height = '500' style='border:5px solid black'>","40","mixed_simple_deviant","images/complex/5.png","images/complex/15.png","images/simple/2.png,images/simple/1.png,images/simple/15.png,images/simple/7.png,images/simple/16.png,images/simple/13.png,images/simple/5.png","1","null","","200","1269.3299999693409","","","","background","",""
"","null","html-keyboard-response","121","397120","0.0-17.0-0.3","SS1604513320552","","null","","","","","","","","","","","","<img src=images/blank.png width =""500"" height = ""500"" style=""border:5px solid black"">","","",""
"","1154.1999999899417","stimulus-presentation","122","398494","0.0-17.0-1.3","SS1604513320552","<img src='images/complex/15.png' width ='500' height = '500' style='border:5px solid black'>","40","mixed_simple_deviant","images/complex/5.png","images/complex/15.png","images/simple/2.png,images/simple/1.png,images/simple/15.png,images/simple/7.png,images/simple/16.png,images/simple/13.png,images/simple/5.png","1","null","","200","1354.1999999899417","","","","background","",""
"","null","html-keyboard-response","123","399434","0.0-17.0-0.4","SS1604513320552","","null","","","","","","","","","","","","<img src=images/blank.png width =""500"" height = ""500"" style=""border:5px solid black"">","","",""
"","1684.9900000961497","stimulus-presentation","124","401330","0.0-17.0-1.4","SS1604513320552","<img src='images/complex/5.png' width ='500' height = '500' style='border:5px solid black'>","40","mixed_simple_deviant","images/complex/5.png","images/complex/15.png","images/simple/2.png,images/simple/1.png,images/simple/15.png,images/simple/7.png,images/simple/16.png,images/simple/13.png,images/simple/5.png","1","null","","200","1884.9900000961497","yes","607.5700001092628","","target","",""
"","null","html-keyboard-response","125","402589","0.0-17.0-0.5","SS1604513320552","","null","","","","","","","","","","","","<img src=images/blank.png width =""500"" height = ""500"" style=""border:5px solid black"">","","",""
"","844.3399999523535","stimulus-presentation","126","403656","0.0-17.0-1.5","SS1604513320552","<img src='images/simple/2.png' width ='500' height = '500' style='border:5px solid black'>","40","mixed_simple_deviant","images/complex/5.png","images/complex/15.png","images/simple/2.png,images/simple/1.png,images/simple/15.png,images/simple/7.png,images/simple/16.png,images/simple/13.png,images/simple/5.png","1","null","","200","1044.3399999523535","","","","deviant","",""
"","null","html-keyboard-response","127","404925","0.0-17.0-0.6","SS1604513320552","","null","","","","","","","","","","","","<img src=images/blank.png width =""500"" height = ""500"" style=""border:5px solid black"">","","",""
"","895.2200000640005","stimulus-presentation","128","406046","0.0-17.0-1.6","SS1604513320552","<img src='images/complex/15.png' width ='500' height = '500' style='border:5px solid black'>","40","mixed_simple_deviant","images/complex/5.png","images/complex/15.png","images/simple/2.png,images/simple/1.png,images/simple/15.png,images/simple/7.png,images/simple/16.png,images/simple/13.png,images/simple/5.png","1","null","","200","1095.2200000640005","","","","background","",""
"","null","html-keyboard-response","129","407275","0.0-17.0-0.7","SS1604513320552","","null","","","","","","","","","","","","<img src=images/blank.png width =""500"" height = ""500"" style=""border:5px solid black"">","","",""
"","1370.3700000187382","stimulus-presentation","130","408875","0.0-17.0-1.7","SS1604513320552","<img src='images/complex/5.png' width ='500' height = '500' style='border:5px solid black'>","40","mixed_simple_deviant","images/complex/5.png","images/complex/15.png","images/simple/2.png,images/simple/1.png,images/simple/15.png,images/simple/7.png,images/simple/16.png,images/simple/13.png,images/simple/5.png","1","null","","200","1570.3700000187382","yes","345.3250000020489","","target","",""
"","null","html-keyboard-response","131","410144","0.0-17.0-0.8","SS1604513320552","","null","","","","","","","","","","","","<img src=images/blank.png width =""500"" height = ""500"" style=""border:5px solid black"">","","",""
"","462.1350000379607","stimulus-presentation","132","410816","0.0-17.0-1.8","SS1604513320552","<img src='images/complex/15.png' width ='500' height = '500' style='border:5px solid black'>","40","mixed_simple_deviant","images/complex/5.png","images/complex/15.png","images/simple/2.png,images/simple/1.png,images/simple/15.png,images/simple/7.png,images/simple/16.png,images/simple/13.png,images/simple/5.png","1","null","","200","662.1350000379607","","","","background","",""
"","null","html-keyboard-response","133","412044","0.0-17.0-0.9","SS1604513320552","","null","","","","","","","","","","","","<img src=images/blank.png width =""500"" height = ""500"" style=""border:5px solid black"">","","",""
"","2153.1299999915063","stimulus-presentation","134","414423","0.0-17.0-1.9","SS1604513320552","<img src='images/simple/15.png' width ='500' height = '500' style='border:5px solid black'>","40","mixed_simple_deviant","images/complex/5.png","images/complex/15.png","images/simple/2.png,images/simple/1.png,images/simple/15.png,images/simple/7.png,images/simple/16.png,images/simple/13.png,images/simple/5.png","1","null","","200","2353.1299999915063","","","","deviant","",""
"","null","html-keyboard-response","135","415521","0.0-17.0-0.10","SS1604513320552","","null","","","","","","","","","","","","<img src=images/blank.png width =""500"" height = ""500"" style=""border:5px solid black"">","","",""
"","542.2499999403954","stimulus-presentation","136","416280","0.0-17.0-1.10","SS1604513320552","<img src='images/complex/15.png' width ='500' height = '500' style='border:5px solid black'>","40","mixed_simple_deviant","images/complex/5.png","images/complex/15.png","images/simple/2.png,images/simple/1.png,images/simple/15.png,images/simple/7.png,images/simple/16.png,images/simple/13.png,images/simple/5.png","1","null","","200","742.2499999403954","","","","background","",""
"","null","html-keyboard-response","137","417347","0.0-17.0-0.11","SS1604513320552","","null","","","","","","","","","","","","<img src=images/blank.png width =""500"" height = ""500"" style=""border:5px solid black"">","","",""
"","709.9249999737367","stimulus-presentation","138","418267","0.0-17.0-1.11","SS1604513320552","<img src='images/complex/15.png' width ='500' height = '500' style='border:5px solid black'>","40","mixed_simple_deviant","images/complex/5.png","images/complex/15.png","images/simple/2.png,images/simple/1.png,images/simple/15.png,images/simple/7.png,images/simple/16.png,images/simple/13.png,images/simple/5.png","1","null","","200","909.9249999737367","","","","background","",""
"","null","html-keyboard-response","139","419256","0.0-17.0-0.12","SS1604513320552","","null","","","","","","","","","","","","<img src=images/blank.png width =""500"" height = ""500"" style=""border:5px solid black"">","","",""
"","579.935000045225","stimulus-presentation","140","420049","0.0-17.0-1.12","SS1604513320552","<img src='images/complex/15.png' width ='500' height = '500' style='border:5px solid black'>","40","mixed_simple_deviant","images/complex/5.png","images/complex/15.png","images/simple/2.png,images/simple/1.png,images/simple/15.png,images/simple/7.png,images/simple/16.png,images/simple/13.png,images/simple/5.png","1","null","","200","779.935000045225","","","","background","",""
"","null","html-keyboard-response","141","421325","0.0-17.0-0.13","SS1604513320552","","null","","","","","","","","","","","","<img src=images/blank.png width =""500"" height = ""500"" style=""border:5px solid black"">","","",""
"","468.55000010691583","stimulus-presentation","142","422003","0.0-17.0-1.13","SS1604513320552","<img src='images/complex/15.png' width ='500' height = '500' style='border:5px solid black'>","40","mixed_simple_deviant","images/complex/5.png","images/complex/15.png","images/simple/2.png,images/simple/1.png,images/simple/15.png,images/simple/7.png,images/simple/16.png,images/simple/13.png,images/simple/5.png","1","null","","200","668.5500001069158","","","","background","",""
"","null","html-keyboard-response","143","423099","0.0-17.0-0.14","SS1604513320552","","null","","","","","","","","","","","","<img src=images/blank.png width =""500"" height = ""500"" style=""border:5px solid black"">","","",""
"","383.9699999662116","stimulus-presentation","144","423700","0.0-17.0-1.14","SS1604513320552","<img src='images/complex/15.png' width ='500' height = '500' style='border:5px solid black'>","40","mixed_simple_deviant","images/complex/5.png","images/complex/15.png","images/simple/2.png,images/simple/1.png,images/simple/15.png,images/simple/7.png,images/simple/16.png,images/simple/13.png,images/simple/5.png","1","null","","200","583.9699999662116","","","","background","",""
"","null","html-keyboard-response","145","424667","0.0-17.0-0.15","SS1604513320552","","null","","","","","","","","","","","","<img src=images/blank.png width =""500"" height = ""500"" style=""border:5px solid black"">","","",""
"","400.08499997202307","stimulus-presentation","146","425285","0.0-17.0-1.15","SS1604513320552","<img src='images/complex/15.png' width ='500' height = '500' style='border:5px solid black'>","40","mixed_simple_deviant","images/complex/5.png","images/complex/15.png","images/simple/2.png,images/simple/1.png,images/simple/15.png,images/simple/7.png,images/simple/16.png,images/simple/13.png,images/simple/5.png","1","null","","200","600.0849999720231","","","","background","",""
"","null","html-keyboard-response","147","426301","0.0-17.0-0.16","SS1604513320552","","null","","","","","","","","","","","","<img src=images/blank.png width =""500"" height = ""500"" style=""border:5px solid black"">","","",""
"","386.255000019446","stimulus-presentation","148","426903","0.0-17.0-1.16","SS1604513320552","<img src='images/complex/15.png' width ='500' height = '500' style='border:5px solid black'>","40","mixed_simple_deviant","images/complex/5.png","images/complex/15.png","images/simple/2.png,images/simple/1.png,images/simple/15.png,images/simple/7.png,images/simple/16.png,images/simple/13.png,images/simple/5.png","1","null","","200","586.255000019446","","","","background","",""
"","null","html-keyboard-response","149","428195","0.0-17.0-0.17","SS1604513320552","","null","","","","","","","","","","","","<img src=images/blank.png width =""500"" height = ""500"" style=""border:5px solid black"">","","",""
"","328.7949999794364","stimulus-presentation","150","428737","0.0-17.0-1.17","SS1604513320552","<img src='images/complex/15.png' width ='500' height = '500' style='border:5px solid black'>","40","mixed_simple_deviant","images/complex/5.png","images/complex/15.png","images/simple/2.png,images/simple/1.png,images/simple/15.png,images/simple/7.png,images/simple/16.png,images/simple/13.png,images/simple/5.png","1","null","","200","528.7949999794364","","","","background","",""
"","null","html-keyboard-response","151","429626","0.0-17.0-0.18","SS1604513320552","","null","","","","","","","","","","","","<img src=images/blank.png width =""500"" height = ""500"" style=""border:5px solid black"">","","",""
"","431.5300000598654","stimulus-presentation","152","430274","0.0-17.0-1.18","SS1604513320552","<img src='images/complex/15.png' width ='500' height = '500' style='border:5px solid black'>","40","mixed_simple_deviant","images/complex/5.png","images/complex/15.png","images/simple/2.png,images/simple/1.png,images/simple/15.png,images/simple/7.png,images/simple/16.png,images/simple/13.png,images/simple/5.png","1","null","","200","631.5300000598654","","","","background","",""
"","null","html-keyboard-response","153","431565","0.0-17.0-0.19","SS1604513320552","","null","","","","","","","","","","","","<img src=images/blank.png width =""500"" height = ""500"" style=""border:5px solid black"">","","",""
"","2151.9599999301136","stimulus-presentation","154","433925","0.0-17.0-1.19","SS1604513320552","<img src='images/simple/16.png' width ='500' height = '500' style='border:5px solid black'>","40","mixed_simple_deviant","images/complex/5.png","images/complex/15.png","images/simple/2.png,images/simple/1.png,images/simple/15.png,images/simple/7.png,images/simple/16.png,images/simple/13.png,images/simple/5.png","1","null","","200","2351.9599999301136","","","","deviant","",""
"","null","html-keyboard-response","155","435069","0.0-17.0-0.20","SS1604513320552","","null","","","","","","","","","","","","<img src=images/blank.png width =""500"" height = ""500"" style=""border:5px solid black"">","","",""
"","557.4299999279901","stimulus-presentation","156","435843","0.0-17.0-1.20","SS1604513320552","<img src='images/complex/15.png' width ='500' height = '500' style='border:5px solid black'>","40","mixed_simple_deviant","images/complex/5.png","images/complex/15.png","images/simple/2.png,images/simple/1.png,images/simple/15.png,images/simple/7.png,images/simple/16.png,images/simple/13.png,images/simple/5.png","1","null","","200","757.4299999279901","","","","background","",""
"","null","html-keyboard-response","157","436975","0.0-17.0-0.21","SS1604513320552","","null","","","","","","","","","","","","<img src=images/blank.png width =""500"" height = ""500"" style=""border:5px solid black"">","","",""
"","435.51999994087964","stimulus-presentation","158","437625","0.0-17.0-1.21","SS1604513320552","<img src='images/complex/15.png' width ='500' height = '500' style='border:5px solid black'>","40","mixed_simple_deviant","images/complex/5.png","images/complex/15.png","images/simple/2.png,images/simple/1.png,images/simple/15.png,images/simple/7.png,images/simple/16.png,images/simple/13.png,images/simple/5.png","1","null","","200","635.5199999408796","","","","background","",""
"","null","html-keyboard-response","159","438643","0.0-17.0-0.22","SS1604513320552","","null","","","","","","","","","","","","<img src=images/blank.png width =""500"" height = ""500"" style=""border:5px solid black"">","","",""
"","515.5899999663234","stimulus-presentation","160","439371","0.0-17.0-1.22","SS1604513320552","<img src='images/complex/15.png' width ='500' height = '500' style='border:5px solid black'>","40","mixed_simple_deviant","images/complex/5.png","images/complex/15.png","images/simple/2.png,images/simple/1.png,images/simple/15.png,images/simple/7.png,images/simple/16.png,images/simple/13.png,images/simple/5.png","1","null","","200","715.5899999663234","","","","background","",""
"","null","html-keyboard-response","161","440544","0.0-17.0-0.23","SS1604513320552","","null","","","","","","","","","","","","<img src=images/blank.png width =""500"" height = ""500"" style=""border:5px solid black"">","","",""
"","688.4700000518933","stimulus-presentation","162","441459","0.0-17.0-1.23","SS1604513320552","<img src='images/complex/15.png' width ='500' height = '500' style='border:5px solid black'>","40","mixed_simple_deviant","images/complex/5.png","images/complex/15.png","images/simple/2.png,images/simple/1.png,images/simple/15.png,images/simple/7.png,images/simple/16.png,images/simple/13.png,images/simple/5.png","1","null","","200","888.4700000518933","","","","background","",""
"","null","html-keyboard-response","163","442408","0.0-17.0-0.24","SS1604513320552","","null","","","","","","","","","","","","<img src=images/blank.png width =""500"" height = ""500"" style=""border:5px solid black"">","","",""
"","2061.375000048429","stimulus-presentation","164","444683","0.0-17.0-1.24","SS1604513320552","<img src='images/simple/13.png' width ='500' height = '500' style='border:5px solid black'>","40","mixed_simple_deviant","images/complex/5.png","images/complex/15.png","images/simple/2.png,images/simple/1.png,images/simple/15.png,images/simple/7.png,images/simple/16.png,images/simple/13.png,images/simple/5.png","1","null","","200","2261.375000048429","","","","deviant","",""
"","null","html-keyboard-response","165","445742","0.0-17.0-0.25","SS1604513320552","","null","","","","","","","","","","","","<img src=images/blank.png width =""500"" height = ""500"" style=""border:5px solid black"">","","",""
"","549.944999977015","stimulus-presentation","166","446519","0.0-17.0-1.25","SS1604513320552","<img src='images/complex/15.png' width ='500' height = '500' style='border:5px solid black'>","40","mixed_simple_deviant","images/complex/5.png","images/complex/15.png","images/simple/2.png,images/simple/1.png,images/simple/15.png,images/simple/7.png,images/simple/16.png,images/simple/13.png,images/simple/5.png","1","null","","200","749.944999977015","","","","background","",""
"","null","html-keyboard-response","167","447752","0.0-17.0-0.26","SS1604513320552","","null","","","","","","","","","","","","<img src=images/blank.png width =""500"" height = ""500"" style=""border:5px solid black"">","","",""
"","400.2950000576675","stimulus-presentation","168","448370","0.0-17.0-1.26","SS1604513320552","<img src='images/complex/15.png' width ='500' height = '500' style='border:5px solid black'>","40","mixed_simple_deviant","images/complex/5.png","images/complex/15.png","images/simple/2.png,images/simple/1.png,images/simple/15.png,images/simple/7.png,images/simple/16.png,images/simple/13.png,images/simple/5.png","1","null","","200","600.2950000576675","","","","background","",""
"","null","html-keyboard-response","169","449490","0.0-17.0-0.27","SS1604513320552","","null","","","","","","","","","","","","<img src=images/blank.png width =""500"" height = ""500"" style=""border:5px solid black"">","","",""
"","387.9700000397861","stimulus-presentation","170","450092","0.0-17.0-1.27","SS1604513320552","<img src='images/complex/15.png' width ='500' height = '500' style='border:5px solid black'>","40","mixed_simple_deviant","images/complex/5.png","images/complex/15.png","images/simple/2.png,images/simple/1.png,images/simple/15.png,images/simple/7.png,images/simple/16.png,images/simple/13.png,images/simple/5.png","1","null","","200","587.9700000397861","","","","background","",""
"","null","html-keyboard-response","171","451018","0.0-17.0-0.28","SS1604513320552","","null","","","","","","","","","","","","<img src=images/blank.png width =""500"" height = ""500"" style=""border:5px solid black"">","","",""
"","1208.8049999438226","stimulus-presentation","172","452458","0.0-17.0-1.28","SS1604513320552","<img src='images/complex/5.png' width ='500' height = '500' style='border:5px solid black'>","40","mixed_simple_deviant","images/complex/5.png","images/complex/15.png","images/simple/2.png,images/simple/1.png,images/simple/15.png,images/simple/7.png,images/simple/16.png,images/simple/13.png,images/simple/5.png","1","null","","200","1408.8049999438226","yes","361.31499998737127","","target","",""
"","null","html-keyboard-response","173","453424","0.0-17.0-0.29","SS1604513320552","","null","","","","","","","","","","","","<img src=images/blank.png width =""500"" height = ""500"" style=""border:5px solid black"">","","",""
"","3233.985000057146","stimulus-presentation","174","456869","0.0-17.0-1.29","SS1604513320552","<img src='images/simple/5.png' width ='500' height = '500' style='border:5px solid black'>","40","mixed_simple_deviant","images/complex/5.png","images/complex/15.png","images/simple/2.png,images/simple/1.png,images/simple/15.png,images/simple/7.png,images/simple/16.png,images/simple/13.png,images/simple/5.png","1","null","","200","3433.985000057146","","","","deviant","",""
"","null","html-keyboard-response","175","457831","0.0-17.0-0.30","SS1604513320552","","null","","","","","","","","","","","","<img src=images/blank.png width =""500"" height = ""500"" style=""border:5px solid black"">","","",""
"","1300.6749999476597","stimulus-presentation","176","459352","0.0-17.0-1.30","SS1604513320552","<img src='images/complex/5.png' width ='500' height = '500' style='border:5px solid black'>","40","mixed_simple_deviant","images/complex/5.png","images/complex/15.png","images/simple/2.png,images/simple/1.png,images/simple/15.png,images/simple/7.png,images/simple/16.png,images/simple/13.png,images/simple/5.png","1","null","","200","1500.6749999476597","yes","422.3700000438839","","target","",""
"","null","html-keyboard-response","177","460192","0.0-17.0-0.31","SS1604513320552","","null","","","","","","","","","","","","<img src=images/blank.png width =""500"" height = ""500"" style=""border:5px solid black"">","","",""
"","1222.6050000172108","stimulus-presentation","178","461624","0.0-17.0-1.31","SS1604513320552","<img src='images/complex/5.png' width ='500' height = '500' style='border:5px solid black'>","40","mixed_simple_deviant","images/complex/5.png","images/complex/15.png","images/simple/2.png,images/simple/1.png,images/simple/15.png,images/simple/7.png,images/simple/16.png,images/simple/13.png,images/simple/5.png","1","null","","200","1422.6050000172108","yes","384.2350000049919","","target","",""
"","null","html-keyboard-response","179","462928","0.0-17.0-0.32","SS1604513320552","","null","","","","","","","","","","","","<img src=images/blank.png width =""500"" height = ""500"" style=""border:5px solid black"">","","",""
"","417.2600000165403","stimulus-presentation","180","463567","0.0-17.0-1.32","SS1604513320552","<img src='images/complex/15.png' width ='500' height = '500' style='border:5px solid black'>","40","mixed_simple_deviant","images/complex/5.png","images/complex/15.png","images/simple/2.png,images/simple/1.png,images/simple/15.png,images/simple/7.png,images/simple/16.png,images/simple/13.png,images/simple/5.png","1","null","","200","617.2600000165403","","","","background","",""
"","null","html-keyboard-response","181","464532","0.0-17.0-0.33","SS1604513320552","","null","","","","","","","","","","","","<img src=images/blank.png width =""500"" height = ""500"" style=""border:5px solid black"">","","",""
"","305.1149999955669","stimulus-presentation","182","465070","0.0-17.0-1.33","SS1604513320552","<img src='images/complex/15.png' width ='500' height = '500' style='border:5px solid black'>","40","mixed_simple_deviant","images/complex/5.png","images/complex/15.png","images/simple/2.png,images/simple/1.png,images/simple/15.png,images/simple/7.png,images/simple/16.png,images/simple/13.png,images/simple/5.png","1","null","","200","505.1149999955669","","","","background","",""
"","null","html-keyboard-response","183","466020","0.0-17.0-0.34","SS1604513320552","","null","","","","","","","","","","","","<img src=images/blank.png width =""500"" height = ""500"" style=""border:5px solid black"">","","",""
"","555.6899999501184","stimulus-presentation","184","466803","0.0-17.0-1.34","SS1604513320552","<img src='images/simple/1.png' width ='500' height = '500' style='border:5px solid black'>","40","mixed_simple_deviant","images/complex/5.png","images/complex/15.png","images/simple/2.png,images/simple/1.png,images/simple/15.png,images/simple/7.png,images/simple/16.png,images/simple/13.png,images/simple/5.png","1","null","","200","755.6899999501184","","","","deviant","",""
"","null","html-keyboard-response","185","467662","0.0-17.0-0.35","SS1604513320552","","null","","","","","","","","","","","","<img src=images/blank.png width =""500"" height = ""500"" style=""border:5px solid black"">","","",""
"","631.400000071153","stimulus-presentation","186","468505","0.0-17.0-1.35","SS1604513320552","<img src='images/complex/15.png' width ='500' height = '500' style='border:5px solid black'>","40","mixed_simple_deviant","images/complex/5.png","images/complex/15.png","images/simple/2.png,images/simple/1.png,images/simple/15.png,images/simple/7.png,images/simple/16.png,images/simple/13.png,images/simple/5.png","1","null","","200","831.400000071153","","","","background","",""
"","null","html-keyboard-response","187","469511","0.0-17.0-0.36","SS1604513320552","","null","","","","","","","","","","","","<img src=images/blank.png width =""500"" height = ""500"" style=""border:5px solid black"">","","",""
"","517.3199999844655","stimulus-presentation","188","470255","0.0-17.0-1.36","SS1604513320552","<img src='images/complex/15.png' width ='500' height = '500' style='border:5px solid black'>","40","mixed_simple_deviant","images/complex/5.png","images/complex/15.png","images/simple/2.png,images/simple/1.png,images/simple/15.png,images/simple/7.png,images/simple/16.png,images/simple/13.png,images/simple/5.png","1","null","","200","717.3199999844655","","","","background","",""
"","null","html-keyboard-response","189","471111","0.0-17.0-0.37","SS1604513320552","","null","","","","","","","","","","","","<img src=images/blank.png width =""500"" height = ""500"" style=""border:5px solid black"">","","",""
"","357.6650000177324","stimulus-presentation","190","471689","0.0-17.0-1.37","SS1604513320552","<img src='images/complex/15.png' width ='500' height = '500' style='border:5px solid black'>","40","mixed_simple_deviant","images/complex/5.png","images/complex/15.png","images/simple/2.png,images/simple/1.png,images/simple/15.png,images/simple/7.png,images/simple/16.png,images/simple/13.png,images/simple/5.png","1","null","","200","557.6650000177324","","","","background","",""
"","null","html-keyboard-response","191","472752","0.0-17.0-0.38","SS1604513320552","","null","","","","","","","","","","","","<img src=images/blank.png width =""500"" height = ""500"" style=""border:5px solid black"">","","",""
"","316.3100000238046","stimulus-presentation","192","473296","0.0-17.0-1.38","SS1604513320552","<img src='images/complex/15.png' width ='500' height = '500' style='border:5px solid black'>","40","mixed_simple_deviant","images/complex/5.png","images/complex/15.png","images/simple/2.png,images/simple/1.png,images/simple/15.png,images/simple/7.png,images/simple/16.png,images/simple/13.png,images/simple/5.png","1","null","","200","516.3100000238046","","","","background","",""
"","null","html-keyboard-response","193","474245","0.0-17.0-0.39","SS1604513320552","","null","","","","","","","","","","","","<img src=images/blank.png width =""500"" height = ""500"" style=""border:5px solid black"">","","",""
"","355.6300000054762","stimulus-presentation","194","474820","0.0-17.0-1.39","SS1604513320552","<img src='images/complex/15.png' width ='500' height = '500' style='border:5px solid black'>","40","mixed_simple_deviant","images/complex/5.png","images/complex/15.png","images/simple/2.png,images/simple/1.png,images/simple/15.png,images/simple/7.png,images/simple/16.png,images/simple/13.png,images/simple/5.png","1","null","","200","555.6300000054762","","","","background","",""
"","null","html-keyboard-response","195","475760","0.0-17.0-0.40","SS1604513320552","","null","","","","","","","","","","","","<img src=images/blank.png width =""500"" height = ""500"" style=""border:5px solid black"">","","",""
"","450.11500001419336","stimulus-presentation","196","476424","0.0-17.0-1.40","SS1604513320552","<img src='images/complex/15.png' width ='500' height = '500' style='border:5px solid black'>","40","mixed_simple_deviant","images/complex/5.png","images/complex/15.png","images/simple/2.png,images/simple/1.png,images/simple/15.png,images/simple/7.png,images/simple/16.png,images/simple/13.png,images/simple/5.png","1","null","","200","650.1150000141934","","","","background","",""
"","null","html-keyboard-response","197","477577","0.0-17.0-0.41","SS1604513320552","","null","","","","","","","","","","","","<img src=images/blank.png width =""500"" height = ""500"" style=""border:5px solid black"">","","",""
"","362.84499999601394","stimulus-presentation","198","478166","0.0-17.0-1.41","SS1604513320552","<img src='images/complex/15.png' width ='500' height = '500' style='border:5px solid black'>","40","mixed_simple_deviant","images/complex/5.png","images/complex/15.png","images/simple/2.png,images/simple/1.png,images/simple/15.png,images/simple/7.png,images/simple/16.png,images/simple/13.png,images/simple/5.png","1","null","","200","562.8449999960139","","","","background","",""
"","null","html-keyboard-response","199","479089","0.0-17.0-0.42","SS1604513320552","","null","","","","","","","","","","","","<img src=images/blank.png width =""500"" height = ""500"" style=""border:5px solid black"">","","",""
"","256.9999999832362","stimulus-presentation","200","479571","0.0-17.0-1.42","SS1604513320552","<img src='images/complex/15.png' width ='500' height = '500' style='border:5px solid black'>","40","mixed_simple_deviant","images/complex/5.png","images/complex/15.png","images/simple/2.png,images/simple/1.png,images/simple/15.png,images/simple/7.png,images/simple/16.png,images/simple/13.png,images/simple/5.png","1","null","","200","456.9999999832362","","","","background","",""
"","null","html-keyboard-response","201","480854","0.0-17.0-0.43","SS1604513320552","","null","","","","","","","","","","","","<img src=images/blank.png width =""500"" height = ""500"" style=""border:5px solid black"">","","",""
"","1082.8899999614805","stimulus-presentation","202","482162","0.0-17.0-1.43","SS1604513320552","<img src='images/complex/5.png' width ='500' height = '500' style='border:5px solid black'>","40","mixed_simple_deviant","images/complex/5.png","images/complex/15.png","images/simple/2.png,images/simple/1.png,images/simple/15.png,images/simple/7.png,images/simple/16.png,images/simple/13.png,images/simple/5.png","1","null","","200","1282.8899999614805","yes","324.60499997250736","","target","",""
"","null","html-keyboard-response","203","483469","0.0-17.0-0.44","SS1604513320552","","null","","","","","","","","","","","","<img src=images/blank.png width =""500"" height = ""500"" style=""border:5px solid black"">","","",""
"","1121.9200000632554","stimulus-presentation","204","484817","0.0-17.0-1.44","SS1604513320552","<img src='images/complex/5.png' width ='500' height = '500' style='border:5px solid black'>","40","mixed_simple_deviant","images/complex/5.png","images/complex/15.png","images/simple/2.png,images/simple/1.png,images/simple/15.png,images/simple/7.png,images/simple/16.png,images/simple/13.png,images/simple/5.png","1","null","","200","1321.9200000632554","yes","315.21000002976507","","target","",""
"","null","html-keyboard-response","205","486094","0.0-17.0-0.45","SS1604513320552","","null","","","","","","","","","","","","<img src=images/blank.png width =""500"" height = ""500"" style=""border:5px solid black"">","","",""
"","465.2249999344349","stimulus-presentation","206","486780","0.0-17.0-1.45","SS1604513320552","<img src='images/simple/7.png' width ='500' height = '500' style='border:5px solid black'>","40","mixed_simple_deviant","images/complex/5.png","images/complex/15.png","images/simple/2.png,images/simple/1.png,images/simple/15.png,images/simple/7.png,images/simple/16.png,images/simple/13.png,images/simple/5.png","1","null","","200","665.2249999344349","","","","deviant","",""
"","null","html-keyboard-response","207","487634","0.0-17.0-0.46","SS1604513320552","","null","","","","","","","","","","","","<img src=images/blank.png width =""500"" height = ""500"" style=""border:5px solid black"">","","",""
"","507.92500004172325","stimulus-presentation","208","488368","0.0-17.0-1.46","SS1604513320552","<img src='images/complex/15.png' width ='500' height = '500' style='border:5px solid black'>","40","mixed_simple_deviant","images/complex/5.png","images/complex/15.png","images/simple/2.png,images/simple/1.png,images/simple/15.png,images/simple/7.png,images/simple/16.png,images/simple/13.png,images/simple/5.png","1","null","","200","707.9250000417233","","","","background","",""
"","null","html-keyboard-response","209","489337","0.0-17.0-0.47","SS1604513320552","","null","","","","","","","","","","","","<img src=images/blank.png width =""500"" height = ""500"" style=""border:5px solid black"">","","",""
"","425.4499999806285","stimulus-presentation","210","489992","0.0-17.0-1.47","SS1604513320552","<img src='images/complex/15.png' width ='500' height = '500' style='border:5px solid black'>","40","mixed_simple_deviant","images/complex/5.png","images/complex/15.png","images/simple/2.png,images/simple/1.png,images/simple/15.png,images/simple/7.png,images/simple/16.png,images/simple/13.png,images/simple/5.png","1","null","","200","625.4499999806285","","","","background","",""
"","null","html-keyboard-response","211","491186","0.0-17.0-0.48","SS1604513320552","","null","","","","","","","","","","","","<img src=images/blank.png width =""500"" height = ""500"" style=""border:5px solid black"">","","",""
"","419.56000006757677","stimulus-presentation","212","491830","0.0-17.0-1.48","SS1604513320552","<img src='images/complex/15.png' width ='500' height = '500' style='border:5px solid black'>","40","mixed_simple_deviant","images/complex/5.png","images/complex/15.png","images/simple/2.png,images/simple/1.png,images/simple/15.png,images/simple/7.png,images/simple/16.png,images/simple/13.png,images/simple/5.png","1","null","","200","619.5600000675768","","","","background","",""
"[{""page_index"":0,""viewing_time"":11314}]","11314","task-instructions","213","503155","0.0-18.0","SS1604513320552","","","","","","","","","","","","","","","","",""
"[{""page_index"":0,""viewing_time"":2110.1150000467896},{""page_index"":1,""viewing_time"":5361.550000030547},{""page_index"":2,""viewing_time"":3323.274999973364}]","10795.515000005253","instructions","214","513958","0.0-19.0","SS1604513320552","","","","","","","","","","","","","","","","",""
"","null","html-keyboard-response","215","514906","0.0-20.0-0.0","SS1604513320552","","null","","","","","","","","","","","","<img src=images/blank.png width =""500"" height = ""500"" style=""border:5px solid black"">","","",""
"","987.0649999938905","stimulus-presentation","216","516121","0.0-20.0-1.0","SS1604513320552","<img src='images/simple/10.png' width ='500' height = '500' style='border:5px solid black'>","40","mixed_complex_deviant","images/simple/3.png","images/simple/10.png","images/complex/3.png,images/complex/17.png,images/complex/18.png,images/complex/16.png,images/complex/12.png,images/complex/14.png,images/complex/2.png","2","null","","200","1187.0649999938905","","","","background","",""
"","null","html-keyboard-response","217","516973","0.0-20.0-0.1","SS1604513320552","","null","","","","","","","","","","","","<img src=images/blank.png width =""500"" height = ""500"" style=""border:5px solid black"">","","",""
"","698.1149999191985","stimulus-presentation","218","517895","0.0-20.0-1.1","SS1604513320552","<img src='images/simple/10.png' width ='500' height = '500' style='border:5px solid black'>","40","mixed_complex_deviant","images/simple/3.png","images/simple/10.png","images/complex/3.png,images/complex/17.png,images/complex/18.png,images/complex/16.png,images/complex/12.png,images/complex/14.png,images/complex/2.png","2","null","","200","898.1149999191985","","","","background","",""
"","null","html-keyboard-response","219","518774","0.0-20.0-0.2","SS1604513320552","","null","","","","","","","","","","","","<img src=images/blank.png width =""500"" height = ""500"" style=""border:5px solid black"">","","",""
"","1471.970000071451","stimulus-presentation","220","520473","0.0-20.0-1.2","SS1604513320552","<img src='images/complex/3.png' width ='500' height = '500' style='border:5px solid black'>","40","mixed_complex_deviant","images/simple/3.png","images/simple/10.png","images/complex/3.png,images/complex/17.png,images/complex/18.png,images/complex/16.png,images/complex/12.png,images/complex/14.png,images/complex/2.png","2","null","","200","1671.970000071451","","","","deviant","",""
"","null","html-keyboard-response","221","521619","0.0-20.0-0.3","SS1604513320552","","null","","","","","","","","","","","","<img src=images/blank.png width =""500"" height = ""500"" style=""border:5px solid black"">","","",""
"","931.7400000290945","stimulus-presentation","222","522777","0.0-20.0-1.3","SS1604513320552","<img src='images/simple/10.png' width ='500' height = '500' style='border:5px solid black'>","40","mixed_complex_deviant","images/simple/3.png","images/simple/10.png","images/complex/3.png,images/complex/17.png,images/complex/18.png,images/complex/16.png,images/complex/12.png,images/complex/14.png,images/complex/2.png","2","null","","200","1131.7400000290945","","","","background","",""
"","null","html-keyboard-response","223","523694","0.0-20.0-0.4","SS1604513320552","","null","","","","","","","","","","","","<img src=images/blank.png width =""500"" height = ""500"" style=""border:5px solid black"">","","",""
"","1328.7799999816343","stimulus-presentation","224","525241","0.0-20.0-1.4","SS1604513320552","<img src='images/simple/10.png' width ='500' height = '500' style='border:5px solid black'>","40","mixed_complex_deviant","images/simple/3.png","images/simple/10.png","images/complex/3.png,images/complex/17.png,images/complex/18.png,images/complex/16.png,images/complex/12.png,images/complex/14.png,images/complex/2.png","2","null","","200","1528.7799999816343","","","","background","",""
"","null","html-keyboard-response","225","526228","0.0-20.0-0.5","SS1604513320552","","null","","","","","","","","","","","","<img src=images/blank.png width =""500"" height = ""500"" style=""border:5px solid black"">","","",""
"","1671.485000057146","stimulus-presentation","226","528115","0.0-20.0-1.5","SS1604513320552","<img src='images/complex/14.png' width ='500' height = '500' style='border:5px solid black'>","40","mixed_complex_deviant","images/simple/3.png","images/simple/10.png","images/complex/3.png,images/complex/17.png,images/complex/18.png,images/complex/16.png,images/complex/12.png,images/complex/14.png,images/complex/2.png","2","null","","200","1871.485000057146","","","","deviant","",""
"","null","html-keyboard-response","227","528942","0.0-20.0-0.6","SS1604513320552","","null","","","","","","","","","","","","<img src=images/blank.png width =""500"" height = ""500"" style=""border:5px solid black"">","","",""
"","1124.4400000432506","stimulus-presentation","228","530290","0.0-20.0-1.6","SS1604513320552","<img src='images/simple/10.png' width ='500' height = '500' style='border:5px solid black'>","40","mixed_complex_deviant","images/simple/3.png","images/simple/10.png","images/complex/3.png,images/complex/17.png,images/complex/18.png,images/complex/16.png,images/complex/12.png,images/complex/14.png,images/complex/2.png","2","null","","200","1324.4400000432506","","","","background","",""
"","null","html-keyboard-response","229","531133","0.0-20.0-0.7","SS1604513320552","","null","","","","","","","","","","","","<img src=images/blank.png width =""500"" height = ""500"" style=""border:5px solid black"">","","",""
"","976.1050000088289","stimulus-presentation","230","532320","0.0-20.0-1.7","SS1604513320552","<img src='images/simple/10.png' width ='500' height = '500' style='border:5px solid black'>","40","mixed_complex_deviant","images/simple/3.png","images/simple/10.png","images/complex/3.png,images/complex/17.png,images/complex/18.png,images/complex/16.png,images/complex/12.png,images/complex/14.png,images/complex/2.png","2","null","","200","1176.105000008829","","","","background","",""
"","null","html-keyboard-response","231","533255","0.0-20.0-0.8","SS1604513320552","","null","","","","","","","","","","","","<img src=images/blank.png width =""500"" height = ""500"" style=""border:5px solid black"">","","",""
"","987.375000026077","stimulus-presentation","232","534463","0.0-20.0-1.8","SS1604513320552","<img src='images/simple/10.png' width ='500' height = '500' style='border:5px solid black'>","40","mixed_complex_deviant","images/simple/3.png","images/simple/10.png","images/complex/3.png,images/complex/17.png,images/complex/18.png,images/complex/16.png,images/complex/12.png,images/complex/14.png,images/complex/2.png","2","null","","200","1187.375000026077","","","","background","",""
"","null","html-keyboard-response","233","535631","0.0-20.0-0.9","SS1604513320552","","null","","","","","","","","","","","","<img src=images/blank.png width =""500"" height = ""500"" style=""border:5px solid black"">","","",""
"","700.3349999431521","stimulus-presentation","234","536558","0.0-20.0-1.9","SS1604513320552","<img src='images/simple/10.png' width ='500' height = '500' style='border:5px solid black'>","40","mixed_complex_deviant","images/simple/3.png","images/simple/10.png","images/complex/3.png,images/complex/17.png,images/complex/18.png,images/complex/16.png,images/complex/12.png,images/complex/14.png,images/complex/2.png","2","null","","200","900.3349999431521","","","","background","",""
"","null","html-keyboard-response","235","537650","0.0-20.0-0.10","SS1604513320552","","null","","","","","","","","","","","","<img src=images/blank.png width =""500"" height = ""500"" style=""border:5px solid black"">","","",""
"","603.5599999595433","stimulus-presentation","236","538479","0.0-20.0-1.10","SS1604513320552","<img src='images/simple/10.png' width ='500' height = '500' style='border:5px solid black'>","40","mixed_complex_deviant","images/simple/3.png","images/simple/10.png","images/complex/3.png,images/complex/17.png,images/complex/18.png,images/complex/16.png,images/complex/12.png,images/complex/14.png,images/complex/2.png","2","null","","200","803.5599999595433","","","","background","",""
"","null","html-keyboard-response","237","539448","0.0-20.0-0.11","SS1604513320552","","null","","","","","","","","","","","","<img src=images/blank.png width =""500"" height = ""500"" style=""border:5px solid black"">","","",""
"","908.8400000473484","stimulus-presentation","238","540573","0.0-20.0-1.11","SS1604513320552","<img src='images/simple/10.png' width ='500' height = '500' style='border:5px solid black'>","40","mixed_complex_deviant","images/simple/3.png","images/simple/10.png","images/complex/3.png,images/complex/17.png,images/complex/18.png,images/complex/16.png,images/complex/12.png,images/complex/14.png,images/complex/2.png","2","null","","200","1108.8400000473484","","","","background","",""
"","null","html-keyboard-response","239","541728","0.0-20.0-0.12","SS1604513320552","","null","","","","","","","","","","","","<img src=images/blank.png width =""500"" height = ""500"" style=""border:5px solid black"">","","",""
"","1054.1449999436736","stimulus-presentation","240","542994","0.0-20.0-1.12","SS1604513320552","<img src='images/simple/10.png' width ='500' height = '500' style='border:5px solid black'>","40","mixed_complex_deviant","images/simple/3.png","images/simple/10.png","images/complex/3.png,images/complex/17.png,images/complex/18.png,images/complex/16.png,images/complex/12.png,images/complex/14.png,images/complex/2.png","2","null","","200","1254.1449999436736","","","","background","",""
"","null","html-keyboard-response","241","544237","0.0-20.0-0.13","SS1604513320552","","null","","","","","","","","","","","","<img src=images/blank.png width =""500"" height = ""500"" style=""border:5px solid black"">","","",""
"","1466.275000013411","stimulus-presentation","242","545911","0.0-20.0-1.13","SS1604513320552","<img src='images/simple/3.png' width ='500' height = '500' style='border:5px solid black'>","40","mixed_complex_deviant","images/simple/3.png","images/simple/10.png","images/complex/3.png,images/complex/17.png,images/complex/18.png,images/complex/16.png,images/complex/12.png,images/complex/14.png,images/complex/2.png","2","null","","200","1666.275000013411","yes","609.8750000819564","","target","",""
"","null","html-keyboard-response","243","547072","0.0-20.0-0.14","SS1604513320552","","null","","","","","","","","","","","","<img src=images/blank.png width =""500"" height = ""500"" style=""border:5px solid black"">","","",""
"","465.6200000317767","stimulus-presentation","244","547755","0.0-20.0-1.14","SS1604513320552","<img src='images/simple/10.png' width ='500' height = '500' style='border:5px solid black'>","40","mixed_complex_deviant","images/simple/3.png","images/simple/10.png","images/complex/3.png,images/complex/17.png,images/complex/18.png,images/complex/16.png,images/complex/12.png,images/complex/14.png,images/complex/2.png","2","null","","200","665.6200000317767","","","","background","",""
"","null","html-keyboard-response","245","548650","0.0-20.0-0.15","SS1604513320552","","null","","","","","","","","","","","","<img src=images/blank.png width =""500"" height = ""500"" style=""border:5px solid black"">","","",""
"","749.4799999985844","stimulus-presentation","246","549622","0.0-20.0-1.15","SS1604513320552","<img src='images/simple/10.png' width ='500' height = '500' style='border:5px solid black'>","40","mixed_complex_deviant","images/simple/3.png","images/simple/10.png","images/complex/3.png,images/complex/17.png,images/complex/18.png,images/complex/16.png,images/complex/12.png,images/complex/14.png,images/complex/2.png","2","null","","200","949.4799999985844","","","","background","",""
"","null","html-keyboard-response","247","550822","0.0-20.0-0.16","SS1604513320552","","null","","","","","","","","","","","","<img src=images/blank.png width =""500"" height = ""500"" style=""border:5px solid black"">","","",""
"","2371.75000004936","stimulus-presentation","248","553410","0.0-20.0-1.16","SS1604513320552","<img src='images/complex/16.png' width ='500' height = '500' style='border:5px solid black'>","40","mixed_complex_deviant","images/simple/3.png","images/simple/10.png","images/complex/3.png,images/complex/17.png,images/complex/18.png,images/complex/16.png,images/complex/12.png,images/complex/14.png,images/complex/2.png","2","null","","200","2571.75000004936","","","","deviant","",""
"","null","html-keyboard-response","249","554253","0.0-20.0-0.17","SS1604513320552","","null","","","","","","","","","","","","<img src=images/blank.png width =""500"" height = ""500"" style=""border:5px solid black"">","","",""
"","660.2150000398979","stimulus-presentation","250","555131","0.0-20.0-1.17","SS1604513320552","<img src='images/simple/10.png' width ='500' height = '500' style='border:5px solid black'>","40","mixed_complex_deviant","images/simple/3.png","images/simple/10.png","images/complex/3.png,images/complex/17.png,images/complex/18.png,images/complex/16.png,images/complex/12.png,images/complex/14.png,images/complex/2.png","2","null","","200","860.2150000398979","","","","background","",""
"","null","html-keyboard-response","251","556359","0.0-20.0-0.18","SS1604513320552","","null","","","","","","","","","","","","<img src=images/blank.png width =""500"" height = ""500"" style=""border:5px solid black"">","","",""
"","2747.3799999570474","stimulus-presentation","252","559327","0.0-20.0-1.18","SS1604513320552","<img src='images/complex/17.png' width ='500' height = '500' style='border:5px solid black'>","40","mixed_complex_deviant","images/simple/3.png","images/simple/10.png","images/complex/3.png,images/complex/17.png,images/complex/18.png,images/complex/16.png,images/complex/12.png,images/complex/14.png,images/complex/2.png","2","null","","200","2947.3799999570474","","","","deviant","",""
"","null","html-keyboard-response","253","560629","0.0-20.0-0.19","SS1604513320552","","null","","","","","","","","","","","","<img src=images/blank.png width =""500"" height = ""500"" style=""border:5px solid black"">","","",""
"","607.5749999145046","stimulus-presentation","254","561461","0.0-20.0-1.19","SS1604513320552","<img src='images/simple/10.png' width ='500' height = '500' style='border:5px solid black'>","40","mixed_complex_deviant","images/simple/3.png","images/simple/10.png","images/complex/3.png,images/complex/17.png,images/complex/18.png,images/complex/16.png,images/complex/12.png,images/complex/14.png,images/complex/2.png","2","null","","200","807.5749999145046","","","","background","",""
"","null","html-keyboard-response","255","562410","0.0-20.0-0.20","SS1604513320552","","null","","","","","","","","","","","","<img src=images/blank.png width =""500"" height = ""500"" style=""border:5px solid black"">","","",""
"","1230.4099999601021","stimulus-presentation","256","563857","0.0-20.0-1.20","SS1604513320552","<img src='images/simple/3.png' width ='500' height = '500' style='border:5px solid black'>","40","mixed_complex_deviant","images/simple/3.png","images/simple/10.png","images/complex/3.png,images/complex/17.png,images/complex/18.png,images/complex/16.png,images/complex/12.png,images/complex/14.png,images/complex/2.png","2","null","","200","1430.4099999601021","yes","442.3650000244379","","target","",""
"","null","html-keyboard-response","257","565167","0.0-20.0-0.21","SS1604513320552","","null","","","","","","","","","","","","<img src=images/blank.png width =""500"" height = ""500"" style=""border:5px solid black"">","","",""
"","2162.4549999833107","stimulus-presentation","258","567546","0.0-20.0-1.21","SS1604513320552","<img src='images/complex/18.png' width ='500' height = '500' style='border:5px solid black'>","40","mixed_complex_deviant","images/simple/3.png","images/simple/10.png","images/complex/3.png,images/complex/17.png,images/complex/18.png,images/complex/16.png,images/complex/12.png,images/complex/14.png,images/complex/2.png","2","null","","200","2362.4549999833107","","","","deviant","",""
"","null","html-keyboard-response","259","568459","0.0-20.0-0.22","SS1604513320552","","null","","","","","","","","","","","","<img src=images/blank.png width =""500"" height = ""500"" style=""border:5px solid black"">","","",""
"","1224.919999949634","stimulus-presentation","260","569901","0.0-20.0-1.22","SS1604513320552","<img src='images/simple/3.png' width ='500' height = '500' style='border:5px solid black'>","40","mixed_complex_deviant","images/simple/3.png","images/simple/10.png","images/complex/3.png,images/complex/17.png,images/complex/18.png,images/complex/16.png,images/complex/12.png,images/complex/14.png,images/complex/2.png","2","null","","200","1424.919999949634","yes","456.4399999799207","","target","",""
"","null","html-keyboard-response","261","570929","0.0-20.0-0.23","SS1604513320552","","null","","","","","","","","","","","","<img src=images/blank.png width =""500"" height = ""500"" style=""border:5px solid black"">","","",""
"","452.5950000388548","stimulus-presentation","262","571610","0.0-20.0-1.23","SS1604513320552","<img src='images/simple/10.png' width ='500' height = '500' style='border:5px solid black'>","40","mixed_complex_deviant","images/simple/3.png","images/simple/10.png","images/complex/3.png,images/complex/17.png,images/complex/18.png,images/complex/16.png,images/complex/12.png,images/complex/14.png,images/complex/2.png","2","null","","200","652.5950000388548","","","","background","",""
"","null","html-keyboard-response","263","572464","0.0-20.0-0.24","SS1604513320552","","null","","","","","","","","","","","","<img src=images/blank.png width =""500"" height = ""500"" style=""border:5px solid black"">","","",""
"","428.91999997664243","stimulus-presentation","264","573123","0.0-20.0-1.24","SS1604513320552","<img src='images/simple/10.png' width ='500' height = '500' style='border:5px solid black'>","40","mixed_complex_deviant","images/simple/3.png","images/simple/10.png","images/complex/3.png,images/complex/17.png,images/complex/18.png,images/complex/16.png,images/complex/12.png,images/complex/14.png,images/complex/2.png","2","null","","200","628.9199999766424","","","","background","",""
"","null","html-keyboard-response","265","574438","0.0-20.0-0.25","SS1604513320552","","null","","","","","","","","","","","","<img src=images/blank.png width =""500"" height = ""500"" style=""border:5px solid black"">","","",""
"","364.6300000837073","stimulus-presentation","266","575023","0.0-20.0-1.25","SS1604513320552","<img src='images/simple/10.png' width ='500' height = '500' style='border:5px solid black'>","40","mixed_complex_deviant","images/simple/3.png","images/simple/10.png","images/complex/3.png,images/complex/17.png,images/complex/18.png,images/complex/16.png,images/complex/12.png,images/complex/14.png,images/complex/2.png","2","null","","200","564.6300000837073","","","","background","",""
"","null","html-keyboard-response","267","576202","0.0-20.0-0.26","SS1604513320552","","null","","","","","","","","","","","","<img src=images/blank.png width =""500"" height = ""500"" style=""border:5px solid black"">","","",""
"","345.77999997418374","stimulus-presentation","268","576773","0.0-20.0-1.26","SS1604513320552","<img src='images/simple/10.png' width ='500' height = '500' style='border:5px solid black'>","40","mixed_complex_deviant","images/simple/3.png","images/simple/10.png","images/complex/3.png,images/complex/17.png,images/complex/18.png,images/complex/16.png,images/complex/12.png,images/complex/14.png,images/complex/2.png","2","null","","200","545.7799999741837","","","","background","",""
"","null","html-keyboard-response","269","577749","0.0-20.0-0.27","SS1604513320552","","null","","","","","","","","","","","","<img src=images/blank.png width =""500"" height = ""500"" style=""border:5px solid black"">","","",""
"","506.28500001039356","stimulus-presentation","270","578480","0.0-20.0-1.27","SS1604513320552","<img src='images/simple/10.png' width ='500' height = '500' style='border:5px solid black'>","40","mixed_complex_deviant","images/simple/3.png","images/simple/10.png","images/complex/3.png,images/complex/17.png,images/complex/18.png,images/complex/16.png,images/complex/12.png,images/complex/14.png,images/complex/2.png","2","null","","200","706.2850000103936","","","","background","",""
"","null","html-keyboard-response","271","579561","0.0-20.0-0.28","SS1604513320552","","null","","","","","","","","","","","","<img src=images/blank.png width =""500"" height = ""500"" style=""border:5px solid black"">","","",""
"","395.5149999819696","stimulus-presentation","272","580184","0.0-20.0-1.28","SS1604513320552","<img src='images/simple/10.png' width ='500' height = '500' style='border:5px solid black'>","40","mixed_complex_deviant","images/simple/3.png","images/simple/10.png","images/complex/3.png,images/complex/17.png,images/complex/18.png,images/complex/16.png,images/complex/12.png,images/complex/14.png,images/complex/2.png","2","null","","200","595.5149999819696","","","","background","",""
"","null","html-keyboard-response","273","581353","0.0-20.0-0.29","SS1604513320552","","null","","","","","","","","","","","","<img src=images/blank.png width =""500"" height = ""500"" style=""border:5px solid black"">","","",""
"","3061.7499999934807","stimulus-presentation","274","584634","0.0-20.0-1.29","SS1604513320552","<img src='images/complex/12.png' width ='500' height = '500' style='border:5px solid black'>","40","mixed_complex_deviant","images/simple/3.png","images/simple/10.png","images/complex/3.png,images/complex/17.png,images/complex/18.png,images/complex/16.png,images/complex/12.png,images/complex/14.png,images/complex/2.png","2","null","","200","3261.7499999934807","","","","deviant","",""
"","null","html-keyboard-response","275","585521","0.0-20.0-0.30","SS1604513320552","","null","","","","","","","","","","","","<img src=images/blank.png width =""500"" height = ""500"" style=""border:5px solid black"">","","",""
"","547.8000000584871","stimulus-presentation","276","586285","0.0-20.0-1.30","SS1604513320552","<img src='images/simple/10.png' width ='500' height = '500' style='border:5px solid black'>","40","mixed_complex_deviant","images/simple/3.png","images/simple/10.png","images/complex/3.png,images/complex/17.png,images/complex/18.png,images/complex/16.png,images/complex/12.png,images/complex/14.png,images/complex/2.png","2","null","","200","747.8000000584871","","","","background","",""
"","null","html-keyboard-response","277","587252","0.0-20.0-0.31","SS1604513320552","","null","","","","","","","","","","","","<img src=images/blank.png width =""500"" height = ""500"" style=""border:5px solid black"">","","",""
"","659.565000096336","stimulus-presentation","278","588130","0.0-20.0-1.31","SS1604513320552","<img src='images/simple/10.png' width ='500' height = '500' style='border:5px solid black'>","40","mixed_complex_deviant","images/simple/3.png","images/simple/10.png","images/complex/3.png,images/complex/17.png,images/complex/18.png,images/complex/16.png,images/complex/12.png,images/complex/14.png,images/complex/2.png","2","null","","200","859.565000096336","","","","background","",""
"","null","html-keyboard-response","279","589333","0.0-20.0-0.32","SS1604513320552","","null","","","","","","","","","","","","<img src=images/blank.png width =""500"" height = ""500"" style=""border:5px solid black"">","","",""
"","558.5250000003725","stimulus-presentation","280","590119","0.0-20.0-1.32","SS1604513320552","<img src='images/simple/10.png' width ='500' height = '500' style='border:5px solid black'>","40","mixed_complex_deviant","images/simple/3.png","images/simple/10.png","images/complex/3.png,images/complex/17.png,images/complex/18.png,images/complex/16.png,images/complex/12.png,images/complex/14.png,images/complex/2.png","2","null","","200","758.5250000003725","","","","background","",""
"","null","html-keyboard-response","281","591182","0.0-20.0-0.33","SS1604513320552","","null","","","","","","","","","","","","<img src=images/blank.png width =""500"" height = ""500"" style=""border:5px solid black"">","","",""
"","1320.62999997288","stimulus-presentation","282","592725","0.0-20.0-1.33","SS1604513320552","<img src='images/simple/3.png' width ='500' height = '500' style='border:5px solid black'>","40","mixed_complex_deviant","images/simple/3.png","images/simple/10.png","images/complex/3.png,images/complex/17.png,images/complex/18.png,images/complex/16.png,images/complex/12.png,images/complex/14.png,images/complex/2.png","2","null","","200","1520.62999997288","yes","412.3399999225512","","target","",""
