"view_history","rt","trial_type","trial_index","time_elapsed","internal_node_id","subject","trial_stimulus","key_press","task_type","task_target_stimulus","task_background_stimulus","task_deviant_stimuli","task_order_number","block_order_number","trial_order_number","minimum_viewing_duration","trial_looking_time","trial_pressed_space_bar","trial_space_bar_rt","stimulus","trial_stimulus_type","responses","question_order"
"[{""page_index"":0,""viewing_time"":8168.9449999976205}]","8169.729999997799","instructions","0","8220","0.0-0.0","SS1604589564275","","","","","","","","","","","","","","","","",""
"[{""page_index"":0,""viewing_time"":22300.054999999702},{""page_index"":1,""viewing_time"":59247.49499999962},{""page_index"":2,""viewing_time"":18975.884999999835},{""page_index"":3,""viewing_time"":9672.405000001163},{""page_index"":4,""viewing_time"":32543.225000001257},{""page_index"":5,""viewing_time"":13359.934999996767},{""page_index"":6,""viewing_time"":1352.0100000023376},{""page_index"":5,""viewing_time"":2368.029999997816},{""page_index"":4,""viewing_time"":296.01499999989755},{""page_index"":3,""viewing_time"":8119.975000001432},{""page_index"":4,""viewing_time"":975.8599999986473},{""page_index"":5,""viewing_time"":1432.2100000026694},{""page_index"":6,""viewing_time"":4415.694999999687},{""page_index"":7,""viewing_time"":8679.994999998598},{""page_index"":8,""viewing_time"":3096.190000000206}]","186835.30999999857","instructions","1","195057","0.0-1.0","SS1604589564275","","","","","","","","","","","","","","","","",""
"[{""page_index"":0,""viewing_time"":4317.370000000665},{""page_index"":1,""viewing_time"":11848.225000001548},{""page_index"":2,""viewing_time"":2479.699999999866}]","18645.645000000513","instructions","2","213706","0.0-2.0","SS1604589564275","","","","","","","","","","","","","","","","",""
"","3184.4099999980244","practice-block","3","217098","0.0-3.0","SS1604589564275","<img src='images/practice/practice_background.jpeg' width ='500' height = '500' style='border:5px solid black'>","40","null","images/practice/practice_target.jpg","null","null","null","null","","200","3384.4099999980244","","","","","",""
"","null","html-keyboard-response","4","218329","0.0-4.0","SS1604589564275","","null","","","","","","","","","","","","<img src=images/blank.png width =""500"" height = ""500"" style=""border:5px solid black"">","","",""
"","592.9099999993923","practice-block","5","219126","0.0-5.0","SS1604589564275","<img src='images/practice/practice_background.jpeg' width ='500' height = '500' style='border:5px solid black'>","40","null","images/practice/practice_target.jpg","null","null","null","null","","200","792.9099999993923","","","","","",""
"","null","html-keyboard-response","6","220324","0.0-6.0","SS1604589564275","","null","","","","","","","","","","","","<img src=images/blank.png width =""500"" height = ""500"" style=""border:5px solid black"">","","",""
"","580.8899999974528","practice-block","7","221110","0.0-7.0","SS1604589564275","<img src='images/practice/practice_deviant.jpeg' width ='500' height = '500' style='border:5px solid black'>","40","null","images/practice/practice_target.jpg","null","null","null","null","","200","780.8899999974528","","","","","",""
"","null","html-keyboard-response","8","222042","0.0-8.0","SS1604589564275","","null","","","","","","","","","","","","<img src=images/blank.png width =""500"" height = ""500"" style=""border:5px solid black"">","","",""
"","9590.595000001485","practice-block","9","231837","0.0-9.0-0.0","SS1604589564275","<img src='images/practice/practice_target.jpg' width ='500' height = '500' style='border:5px solid black'>","40","null","images/practice/practice_target.jpg","null","null","null","null","","200","9790.595000001485","yes","311.19500000204425","","","",""
"","null","html-keyboard-response","10","233057","0.0-10.0","SS1604589564275","","null","","","","","","","","","","","","<img src=images/blank.png width =""500"" height = ""500"" style=""border:5px solid black"">","","",""
"","518.7049999985902","practice-block","11","233782","0.0-11.0","SS1604589564275","<img src='images/practice/practice_background.jpeg' width ='500' height = '500' style='border:5px solid black'>","40","null","images/practice/practice_target.jpg","null","null","null","null","","200","718.7049999985902","","","","","",""
"[{""page_index"":0,""viewing_time"":3088}]","3088","task-instructions","12","236873","0.0-12.0","SS1604589564275","","","","","","","","","","","","","","","","",""
"[{""page_index"":0,""viewing_time"":2789.7049999992305},{""page_index"":1,""viewing_time"":8039.84500000297},{""page_index"":2,""viewing_time"":2624.2199999978766}]","13454.30000000124","instructions","13","250330","0.0-13.0","SS1604589564275","","","","","","","","","","","","","","","","",""
"","null","html-keyboard-response","14","251221","0.0-14.0-0.0","SS1604589564275","","null","","","","","","","","","","","","<img src=images/blank.png width =""500"" height = ""500"" style=""border:5px solid black"">","","",""
"","337.4000000003434","stimulus-presentation","15","251768","0.0-14.0-1.0","SS1604589564275","<img src='images/complex/4.png' width ='500' height = '500' style='border:5px solid black'>","40","mixed_complex_deviant","images/simple/14.png","images/simple/6.png","images/complex/1.png,images/complex/8.png,images/complex/11.png,images/complex/4.png,images/complex/17.png,images/complex/18.png,images/complex/15.png","0","null","","200","537.4000000003434","","","","deviant","",""
"","null","html-keyboard-response","16","252635","0.0-14.0-0.1","SS1604589564275","","null","","","","","","","","","","","","<img src=images/blank.png width =""500"" height = ""500"" style=""border:5px solid black"">","","",""
"","3900.1400000015856","stimulus-presentation","17","256741","0.0-14.0-1.1","SS1604589564275","<img src='images/simple/14.png' width ='500' height = '500' style='border:5px solid black'>","40","mixed_complex_deviant","images/simple/14.png","images/simple/6.png","images/complex/1.png,images/complex/8.png,images/complex/11.png,images/complex/4.png,images/complex/17.png,images/complex/18.png,images/complex/15.png","0","null","","200","4100.140000001586","yes","3060.480000000098","","target","",""
"","null","html-keyboard-response","18","257593","0.0-14.0-0.2","SS1604589564275","","null","","","","","","","","","","","","<img src=images/blank.png width =""500"" height = ""500"" style=""border:5px solid black"">","","",""
"","367.63000000058673","stimulus-presentation","19","258165","0.0-14.0-1.2","SS1604589564275","<img src='images/simple/6.png' width ='500' height = '500' style='border:5px solid black'>","40","mixed_complex_deviant","images/simple/14.png","images/simple/6.png","images/complex/1.png,images/complex/8.png,images/complex/11.png,images/complex/4.png,images/complex/17.png,images/complex/18.png,images/complex/15.png","0","null","","200","567.6300000005867","","","","background","",""
"","null","html-keyboard-response","20","259453","0.0-14.0-0.3","SS1604589564275","","null","","","","","","","","","","","","<img src=images/blank.png width =""500"" height = ""500"" style=""border:5px solid black"">","","",""
"","243.06000000069616","stimulus-presentation","21","259901","0.0-14.0-1.3","SS1604589564275","<img src='images/simple/6.png' width ='500' height = '500' style='border:5px solid black'>","40","mixed_complex_deviant","images/simple/14.png","images/simple/6.png","images/complex/1.png,images/complex/8.png,images/complex/11.png,images/complex/4.png,images/complex/17.png,images/complex/18.png,images/complex/15.png","0","null","","200","443.06000000069616","","","","background","",""
"","null","html-keyboard-response","22","261137","0.0-14.0-0.4","SS1604589564275","","null","","","","","","","","","","","","<img src=images/blank.png width =""500"" height = ""500"" style=""border:5px solid black"">","","",""
"","168.67500000074506","stimulus-presentation","23","261510","0.0-14.0-1.4","SS1604589564275","<img src='images/simple/6.png' width ='500' height = '500' style='border:5px solid black'>","40","mixed_complex_deviant","images/simple/14.png","images/simple/6.png","images/complex/1.png,images/complex/8.png,images/complex/11.png,images/complex/4.png,images/complex/17.png,images/complex/18.png,images/complex/15.png","0","null","","200","368.67500000074506","","","","background","",""
"","null","html-keyboard-response","24","262686","0.0-14.0-0.5","SS1604589564275","","null","","","","","","","","","","","","<img src=images/blank.png width =""500"" height = ""500"" style=""border:5px solid black"">","","",""
"","268.3699999979581","stimulus-presentation","25","263166","0.0-14.0-1.5","SS1604589564275","<img src='images/complex/8.png' width ='500' height = '500' style='border:5px solid black'>","40","mixed_complex_deviant","images/simple/14.png","images/simple/6.png","images/complex/1.png,images/complex/8.png,images/complex/11.png,images/complex/4.png,images/complex/17.png,images/complex/18.png,images/complex/15.png","0","null","","200","468.3699999979581","","","","deviant","",""
"","null","html-keyboard-response","26","264001","0.0-14.0-0.6","SS1604589564275","","null","","","","","","","","","","","","<img src=images/blank.png width =""500"" height = ""500"" style=""border:5px solid black"">","","",""
"","294.60499999910826","stimulus-presentation","27","264501","0.0-14.0-1.6","SS1604589564275","<img src='images/simple/6.png' width ='500' height = '500' style='border:5px solid black'>","40","mixed_complex_deviant","images/simple/14.png","images/simple/6.png","images/complex/1.png,images/complex/8.png,images/complex/11.png,images/complex/4.png,images/complex/17.png,images/complex/18.png,images/complex/15.png","0","null","","200","494.60499999910826","","","","background","",""
"","null","html-keyboard-response","28","265340","0.0-14.0-0.7","SS1604589564275","","null","","","","","","","","","","","","<img src=images/blank.png width =""500"" height = ""500"" style=""border:5px solid black"">","","",""
"","236.10000000189757","stimulus-presentation","29","265781","0.0-14.0-1.7","SS1604589564275","<img src='images/simple/6.png' width ='500' height = '500' style='border:5px solid black'>","40","mixed_complex_deviant","images/simple/14.png","images/simple/6.png","images/complex/1.png,images/complex/8.png,images/complex/11.png,images/complex/4.png,images/complex/17.png,images/complex/18.png,images/complex/15.png","0","null","","200","436.10000000189757","","","","background","",""
"","null","html-keyboard-response","30","266967","0.0-14.0-0.8","SS1604589564275","","null","","","","","","","","","","","","<img src=images/blank.png width =""500"" height = ""500"" style=""border:5px solid black"">","","",""
"","2453.464999998687","stimulus-presentation","31","269630","0.0-14.0-1.8","SS1604589564275","<img src='images/simple/6.png' width ='500' height = '500' style='border:5px solid black'>","40","mixed_complex_deviant","images/simple/14.png","images/simple/6.png","images/complex/1.png,images/complex/8.png,images/complex/11.png,images/complex/4.png,images/complex/17.png,images/complex/18.png,images/complex/15.png","0","null","","200","2653.464999998687","","","","background","",""
"","null","html-keyboard-response","32","270487","0.0-14.0-0.9","SS1604589564275","","null","","","","","","","","","","","","<img src=images/blank.png width =""500"" height = ""500"" style=""border:5px solid black"">","","",""
"","952.8950000021141","stimulus-presentation","33","271644","0.0-14.0-1.9","SS1604589564275","<img src='images/complex/18.png' width ='500' height = '500' style='border:5px solid black'>","40","mixed_complex_deviant","images/simple/14.png","images/simple/6.png","images/complex/1.png,images/complex/8.png,images/complex/11.png,images/complex/4.png,images/complex/17.png,images/complex/18.png,images/complex/15.png","0","null","","200","1152.895000002114","","","","deviant","",""
"","null","html-keyboard-response","34","272659","0.0-14.0-0.10","SS1604589564275","","null","","","","","","","","","","","","<img src=images/blank.png width =""500"" height = ""500"" style=""border:5px solid black"">","","",""
"","213.36499999958323","stimulus-presentation","35","273077","0.0-14.0-1.10","SS1604589564275","<img src='images/simple/6.png' width ='500' height = '500' style='border:5px solid black'>","40","mixed_complex_deviant","images/simple/14.png","images/simple/6.png","images/complex/1.png,images/complex/8.png,images/complex/11.png,images/complex/4.png,images/complex/17.png,images/complex/18.png,images/complex/15.png","0","null","","200","413.36499999958323","","","","background","",""
"","null","html-keyboard-response","36","274357","0.0-14.0-0.11","SS1604589564275","","null","","","","","","","","","","","","<img src=images/blank.png width =""500"" height = ""500"" style=""border:5px solid black"">","","",""
"","116.9549999977462","stimulus-presentation","37","274678","0.0-14.0-1.11","SS1604589564275","<img src='images/simple/6.png' width ='500' height = '500' style='border:5px solid black'>","40","mixed_complex_deviant","images/simple/14.png","images/simple/6.png","images/complex/1.png,images/complex/8.png,images/complex/11.png,images/complex/4.png,images/complex/17.png,images/complex/18.png,images/complex/15.png","0","null","","200","316.9549999977462","","","","background","",""
"","null","html-keyboard-response","38","275581","0.0-14.0-0.12","SS1604589564275","","null","","","","","","","","","","","","<img src=images/blank.png width =""500"" height = ""500"" style=""border:5px solid black"">","","",""
"","99.90000000107102","stimulus-presentation","39","275885","0.0-14.0-1.12","SS1604589564275","<img src='images/simple/6.png' width ='500' height = '500' style='border:5px solid black'>","40","mixed_complex_deviant","images/simple/14.png","images/simple/6.png","images/complex/1.png,images/complex/8.png,images/complex/11.png,images/complex/4.png,images/complex/17.png,images/complex/18.png,images/complex/15.png","0","null","","200","299.900000001071","","","","background","",""
"","null","html-keyboard-response","40","276895","0.0-14.0-0.13","SS1604589564275","","null","","","","","","","","","","","","<img src=images/blank.png width =""500"" height = ""500"" style=""border:5px solid black"">","","",""
"","80.73000000149477","stimulus-presentation","41","277181","0.0-14.0-1.13","SS1604589564275","<img src='images/simple/6.png' width ='500' height = '500' style='border:5px solid black'>","40","mixed_complex_deviant","images/simple/14.png","images/simple/6.png","images/complex/1.png,images/complex/8.png,images/complex/11.png,images/complex/4.png,images/complex/17.png,images/complex/18.png,images/complex/15.png","0","null","","200","280.7300000014948","","","","background","",""
"","null","html-keyboard-response","42","278008","0.0-14.0-0.14","SS1604589564275","","null","","","","","","","","","","","","<img src=images/blank.png width =""500"" height = ""500"" style=""border:5px solid black"">","","",""
"","55.02999999950407","stimulus-presentation","43","278268","0.0-14.0-1.14","SS1604589564275","<img src='images/simple/6.png' width ='500' height = '500' style='border:5px solid black'>","40","mixed_complex_deviant","images/simple/14.png","images/simple/6.png","images/complex/1.png,images/complex/8.png,images/complex/11.png,images/complex/4.png,images/complex/17.png,images/complex/18.png,images/complex/15.png","0","null","","200","255.02999999950407","","","","background","",""
"","null","html-keyboard-response","44","279121","0.0-14.0-0.15","SS1604589564275","","null","","","","","","","","","","","","<img src=images/blank.png width =""500"" height = ""500"" style=""border:5px solid black"">","","",""
"","70.37000000127591","stimulus-presentation","45","279396","0.0-14.0-1.15","SS1604589564275","<img src='images/complex/1.png' width ='500' height = '500' style='border:5px solid black'>","40","mixed_complex_deviant","images/simple/14.png","images/simple/6.png","images/complex/1.png,images/complex/8.png,images/complex/11.png,images/complex/4.png,images/complex/17.png,images/complex/18.png,images/complex/15.png","0","null","","200","270.3700000012759","","","","deviant","",""
"","null","html-keyboard-response","46","280688","0.0-14.0-0.16","SS1604589564275","","null","","","","","","","","","","","","<img src=images/blank.png width =""500"" height = ""500"" style=""border:5px solid black"">","","",""
"","198.83000000112224","stimulus-presentation","47","281093","0.0-14.0-1.16","SS1604589564275","<img src='images/simple/6.png' width ='500' height = '500' style='border:5px solid black'>","40","mixed_complex_deviant","images/simple/14.png","images/simple/6.png","images/complex/1.png,images/complex/8.png,images/complex/11.png,images/complex/4.png,images/complex/17.png,images/complex/18.png,images/complex/15.png","0","null","","200","398.83000000112224","","","","background","",""
"","null","html-keyboard-response","48","282271","0.0-14.0-0.17","SS1604589564275","","null","","","","","","","","","","","","<img src=images/blank.png width =""500"" height = ""500"" style=""border:5px solid black"">","","",""
"","135.64000000042142","stimulus-presentation","49","282613","0.0-14.0-1.17","SS1604589564275","<img src='images/simple/6.png' width ='500' height = '500' style='border:5px solid black'>","40","mixed_complex_deviant","images/simple/14.png","images/simple/6.png","images/complex/1.png,images/complex/8.png,images/complex/11.png,images/complex/4.png,images/complex/17.png,images/complex/18.png,images/complex/15.png","0","null","","200","335.6400000004214","","","","background","",""
"","null","html-keyboard-response","50","283514","0.0-14.0-0.18","SS1604589564275","","null","","","","","","","","","","","","<img src=images/blank.png width =""500"" height = ""500"" style=""border:5px solid black"">","","",""
"","134.2000000004191","stimulus-presentation","51","283853","0.0-14.0-1.18","SS1604589564275","<img src='images/simple/6.png' width ='500' height = '500' style='border:5px solid black'>","40","mixed_complex_deviant","images/simple/14.png","images/simple/6.png","images/complex/1.png,images/complex/8.png,images/complex/11.png,images/complex/4.png,images/complex/17.png,images/complex/18.png,images/complex/15.png","0","null","","200","334.2000000004191","","","","background","",""
"","null","html-keyboard-response","52","284875","0.0-14.0-0.19","SS1604589564275","","null","","","","","","","","","","","","<img src=images/blank.png width =""500"" height = ""500"" style=""border:5px solid black"">","","",""
"","116.66500000143424","stimulus-presentation","53","285197","0.0-14.0-1.19","SS1604589564275","<img src='images/simple/6.png' width ='500' height = '500' style='border:5px solid black'>","40","mixed_complex_deviant","images/simple/14.png","images/simple/6.png","images/complex/1.png,images/complex/8.png,images/complex/11.png,images/complex/4.png,images/complex/17.png,images/complex/18.png,images/complex/15.png","0","null","","200","316.66500000143424","","","","background","",""
"","null","html-keyboard-response","54","286443","0.0-14.0-0.20","SS1604589564275","","null","","","","","","","","","","","","<img src=images/blank.png width =""500"" height = ""500"" style=""border:5px solid black"">","","",""
"","85.84499999781838","stimulus-presentation","55","286733","0.0-14.0-1.20","SS1604589564275","<img src='images/simple/6.png' width ='500' height = '500' style='border:5px solid black'>","40","mixed_complex_deviant","images/simple/14.png","images/simple/6.png","images/complex/1.png,images/complex/8.png,images/complex/11.png,images/complex/4.png,images/complex/17.png,images/complex/18.png,images/complex/15.png","0","null","","200","285.8449999978184","","","","background","",""
"","null","html-keyboard-response","56","287660","0.0-14.0-0.21","SS1604589564275","","null","","","","","","","","","","","","<img src=images/blank.png width =""500"" height = ""500"" style=""border:5px solid black"">","","",""
"","147.65500000066822","stimulus-presentation","57","288013","0.0-14.0-1.21","SS1604589564275","<img src='images/simple/6.png' width ='500' height = '500' style='border:5px solid black'>","40","mixed_complex_deviant","images/simple/14.png","images/simple/6.png","images/complex/1.png,images/complex/8.png,images/complex/11.png,images/complex/4.png,images/complex/17.png,images/complex/18.png,images/complex/15.png","0","null","","200","347.6550000006682","","","","background","",""
"","null","html-keyboard-response","58","288947","0.0-14.0-0.22","SS1604589564275","","null","","","","","","","","","","","","<img src=images/blank.png width =""500"" height = ""500"" style=""border:5px solid black"">","","",""
"","1259.0999999993364","stimulus-presentation","59","290413","0.0-14.0-1.22","SS1604589564275","<img src='images/simple/14.png' width ='500' height = '500' style='border:5px solid black'>","40","mixed_complex_deviant","images/simple/14.png","images/simple/6.png","images/complex/1.png,images/complex/8.png,images/complex/11.png,images/complex/4.png,images/complex/17.png,images/complex/18.png,images/complex/15.png","0","null","","200","1459.0999999993364","yes","283.6349999997765","","target","",""
"","null","html-keyboard-response","60","291472","0.0-14.0-0.23","SS1604589564275","","null","","","","","","","","","","","","<img src=images/blank.png width =""500"" height = ""500"" style=""border:5px solid black"">","","",""
"","60.349999999743886","stimulus-presentation","61","291740","0.0-14.0-1.23","SS1604589564275","<img src='images/simple/6.png' width ='500' height = '500' style='border:5px solid black'>","40","mixed_complex_deviant","images/simple/14.png","images/simple/6.png","images/complex/1.png,images/complex/8.png,images/complex/11.png,images/complex/4.png,images/complex/17.png,images/complex/18.png,images/complex/15.png","0","null","","200","260.3499999997439","","","","background","",""
"","null","html-keyboard-response","62","292557","0.0-14.0-0.24","SS1604589564275","","null","","","","","","","","","","","","<img src=images/blank.png width =""500"" height = ""500"" style=""border:5px solid black"">","","",""
"","57.424999999057036","stimulus-presentation","63","292821","0.0-14.0-1.24","SS1604589564275","<img src='images/simple/6.png' width ='500' height = '500' style='border:5px solid black'>","40","mixed_complex_deviant","images/simple/14.png","images/simple/6.png","images/complex/1.png,images/complex/8.png,images/complex/11.png,images/complex/4.png,images/complex/17.png,images/complex/18.png,images/complex/15.png","0","null","","200","257.42499999905704","","","","background","",""
"","null","html-keyboard-response","64","293682","0.0-14.0-0.25","SS1604589564275","","null","","","","","","","","","","","","<img src=images/blank.png width =""500"" height = ""500"" style=""border:5px solid black"">","","",""
"","172.660000000149","stimulus-presentation","65","294060","0.0-14.0-1.25","SS1604589564275","<img src='images/complex/17.png' width ='500' height = '500' style='border:5px solid black'>","40","mixed_complex_deviant","images/simple/14.png","images/simple/6.png","images/complex/1.png,images/complex/8.png,images/complex/11.png,images/complex/4.png,images/complex/17.png,images/complex/18.png,images/complex/15.png","0","null","","200","372.660000000149","","","","deviant","",""
"","null","html-keyboard-response","66","295280","0.0-14.0-0.26","SS1604589564275","","null","","","","","","","","","","","","<img src=images/blank.png width =""500"" height = ""500"" style=""border:5px solid black"">","","",""
"","160.64000000187661","stimulus-presentation","67","295645","0.0-14.0-1.26","SS1604589564275","<img src='images/simple/6.png' width ='500' height = '500' style='border:5px solid black'>","40","mixed_complex_deviant","images/simple/14.png","images/simple/6.png","images/complex/1.png,images/complex/8.png,images/complex/11.png,images/complex/4.png,images/complex/17.png,images/complex/18.png,images/complex/15.png","0","null","","200","360.6400000018766","","","","background","",""
"","null","html-keyboard-response","68","296538","0.0-14.0-0.27","SS1604589564275","","null","","","","","","","","","","","","<img src=images/blank.png width =""500"" height = ""500"" style=""border:5px solid black"">","","",""
"","31.01500000047963","stimulus-presentation","69","296780","0.0-14.0-1.27","SS1604589564275","<img src='images/simple/6.png' width ='500' height = '500' style='border:5px solid black'>","40","mixed_complex_deviant","images/simple/14.png","images/simple/6.png","images/complex/1.png,images/complex/8.png,images/complex/11.png,images/complex/4.png,images/complex/17.png,images/complex/18.png,images/complex/15.png","0","null","","200","231.01500000047963","","","","background","",""
"","null","html-keyboard-response","70","297800","0.0-14.0-0.28","SS1604589564275","","null","","","","","","","","","","","","<img src=images/blank.png width =""500"" height = ""500"" style=""border:5px solid black"">","","",""
"","15.914999999920838","stimulus-presentation","71","298020","0.0-14.0-1.28","SS1604589564275","<img src='images/simple/6.png' width ='500' height = '500' style='border:5px solid black'>","40","mixed_complex_deviant","images/simple/14.png","images/simple/6.png","images/complex/1.png,images/complex/8.png,images/complex/11.png,images/complex/4.png,images/complex/17.png,images/complex/18.png,images/complex/15.png","0","null","","200","215.91499999992084","","","","background","",""
"","null","html-keyboard-response","72","299135","0.0-14.0-0.29","SS1604589564275","","null","","","","","","","","","","","","<img src=images/blank.png width =""500"" height = ""500"" style=""border:5px solid black"">","","",""
"","55.32499999756692","stimulus-presentation","73","299397","0.0-14.0-1.29","SS1604589564275","<img src='images/simple/14.png' width ='500' height = '500' style='border:5px solid black'>","40","mixed_complex_deviant","images/simple/14.png","images/simple/6.png","images/complex/1.png,images/complex/8.png,images/complex/11.png,images/complex/4.png,images/complex/17.png,images/complex/18.png,images/complex/15.png","0","null","","200","255.32499999756692","","","","target","",""
"","null","html-keyboard-response","74","300308","0.0-14.0-0.30","SS1604589564275","","null","","","","","","","","","","","","<img src=images/blank.png width =""500"" height = ""500"" style=""border:5px solid black"">","","",""
"","2122.755000000354","stimulus-presentation","75","302637","0.0-14.0-1.30","SS1604589564275","<img src='images/simple/6.png' width ='500' height = '500' style='border:5px solid black'>","40","mixed_complex_deviant","images/simple/14.png","images/simple/6.png","images/complex/1.png,images/complex/8.png,images/complex/11.png,images/complex/4.png,images/complex/17.png,images/complex/18.png,images/complex/15.png","0","null","","200","2322.755000000354","","","","background","",""
"","null","html-keyboard-response","76","303842","0.0-14.0-0.31","SS1604589564275","","null","","","","","","","","","","","","<img src=images/blank.png width =""500"" height = ""500"" style=""border:5px solid black"">","","",""
"","108.87500000168802","stimulus-presentation","77","304157","0.0-14.0-1.31","SS1604589564275","<img src='images/simple/6.png' width ='500' height = '500' style='border:5px solid black'>","40","mixed_complex_deviant","images/simple/14.png","images/simple/6.png","images/complex/1.png,images/complex/8.png,images/complex/11.png,images/complex/4.png,images/complex/17.png,images/complex/18.png,images/complex/15.png","0","null","","200","308.875000001688","","","","background","",""
"","null","html-keyboard-response","78","305109","0.0-14.0-0.32","SS1604589564275","","null","","","","","","","","","","","","<img src=images/blank.png width =""500"" height = ""500"" style=""border:5px solid black"">","","",""
"","113.82500000036089","stimulus-presentation","79","305429","0.0-14.0-1.32","SS1604589564275","<img src='images/simple/6.png' width ='500' height = '500' style='border:5px solid black'>","40","mixed_complex_deviant","images/simple/14.png","images/simple/6.png","images/complex/1.png,images/complex/8.png,images/complex/11.png,images/complex/4.png,images/complex/17.png,images/complex/18.png,images/complex/15.png","0","null","","200","313.8250000003609","","","","background","",""
"","null","html-keyboard-response","80","306731","0.0-14.0-0.33","SS1604589564275","","null","","","","","","","","","","","","<img src=images/blank.png width =""500"" height = ""500"" style=""border:5px solid black"">","","",""
"","133.26000000233762","stimulus-presentation","81","307071","0.0-14.0-1.33","SS1604589564275","<img src='images/simple/6.png' width ='500' height = '500' style='border:5px solid black'>","40","mixed_complex_deviant","images/simple/14.png","images/simple/6.png","images/complex/1.png,images/complex/8.png,images/complex/11.png,images/complex/4.png,images/complex/17.png,images/complex/18.png,images/complex/15.png","0","null","","200","333.2600000023376","","","","background","",""
"","null","html-keyboard-response","82","308328","0.0-14.0-0.34","SS1604589564275","","null","","","","","","","","","","","","<img src=images/blank.png width =""500"" height = ""500"" style=""border:5px solid black"">","","",""
"","876.2199999983422","stimulus-presentation","83","309412","0.0-14.0-1.34","SS1604589564275","<img src='images/simple/14.png' width ='500' height = '500' style='border:5px solid black'>","40","mixed_complex_deviant","images/simple/14.png","images/simple/6.png","images/complex/1.png,images/complex/8.png,images/complex/11.png,images/complex/4.png,images/complex/17.png,images/complex/18.png,images/complex/15.png","0","null","","200","1076.2199999983422","yes","220.389999998617","","target","",""
"","null","html-keyboard-response","84","310653","0.0-14.0-0.35","SS1604589564275","","null","","","","","","","","","","","","<img src=images/blank.png width =""500"" height = ""500"" style=""border:5px solid black"">","","",""
"","120.62499999959255","stimulus-presentation","85","310981","0.0-14.0-1.35","SS1604589564275","<img src='images/complex/11.png' width ='500' height = '500' style='border:5px solid black'>","40","mixed_complex_deviant","images/simple/14.png","images/simple/6.png","images/complex/1.png,images/complex/8.png,images/complex/11.png,images/complex/4.png,images/complex/17.png,images/complex/18.png,images/complex/15.png","0","null","","200","320.62499999959255","","","","deviant","",""
"","null","html-keyboard-response","86","312159","0.0-14.0-0.36","SS1604589564275","","null","","","","","","","","","","","","<img src=images/blank.png width =""500"" height = ""500"" style=""border:5px solid black"">","","",""
"","94.28999999724329","stimulus-presentation","87","312460","0.0-14.0-1.36","SS1604589564275","<img src='images/simple/6.png' width ='500' height = '500' style='border:5px solid black'>","40","mixed_complex_deviant","images/simple/14.png","images/simple/6.png","images/complex/1.png,images/complex/8.png,images/complex/11.png,images/complex/4.png,images/complex/17.png,images/complex/18.png,images/complex/15.png","0","null","","200","294.2899999972433","","","","background","",""
"","null","html-keyboard-response","88","313622","0.0-14.0-0.37","SS1604589564275","","null","","","","","","","","","","","","<img src=images/blank.png width =""500"" height = ""500"" style=""border:5px solid black"">","","",""
"","128.79999999859137","stimulus-presentation","89","313958","0.0-14.0-1.37","SS1604589564275","<img src='images/simple/6.png' width ='500' height = '500' style='border:5px solid black'>","40","mixed_complex_deviant","images/simple/14.png","images/simple/6.png","images/complex/1.png,images/complex/8.png,images/complex/11.png,images/complex/4.png,images/complex/17.png,images/complex/18.png,images/complex/15.png","0","null","","200","328.7999999985914","","","","background","",""
"","null","html-keyboard-response","90","314873","0.0-14.0-0.38","SS1604589564275","","null","","","","","","","","","","","","<img src=images/blank.png width =""500"" height = ""500"" style=""border:5px solid black"">","","",""
"","141.04500000033295","stimulus-presentation","91","315220","0.0-14.0-1.38","SS1604589564275","<img src='images/simple/6.png' width ='500' height = '500' style='border:5px solid black'>","40","mixed_complex_deviant","images/simple/14.png","images/simple/6.png","images/complex/1.png,images/complex/8.png,images/complex/11.png,images/complex/4.png,images/complex/17.png,images/complex/18.png,images/complex/15.png","0","null","","200","341.04500000033295","","","","background","",""
"","null","html-keyboard-response","92","316336","0.0-14.0-0.39","SS1604589564275","","null","","","","","","","","","","","","<img src=images/blank.png width =""500"" height = ""500"" style=""border:5px solid black"">","","",""
"","133.87499999953434","stimulus-presentation","93","316677","0.0-14.0-1.39","SS1604589564275","<img src='images/simple/6.png' width ='500' height = '500' style='border:5px solid black'>","40","mixed_complex_deviant","images/simple/14.png","images/simple/6.png","images/complex/1.png,images/complex/8.png,images/complex/11.png,images/complex/4.png,images/complex/17.png,images/complex/18.png,images/complex/15.png","0","null","","200","333.87499999953434","","","","background","",""
"","null","html-keyboard-response","94","317684","0.0-14.0-0.40","SS1604589564275","","null","","","","","","","","","","","","<img src=images/blank.png width =""500"" height = ""500"" style=""border:5px solid black"">","","",""
"","96.72499999945285","stimulus-presentation","95","317990","0.0-14.0-1.40","SS1604589564275","<img src='images/simple/6.png' width ='500' height = '500' style='border:5px solid black'>","40","mixed_complex_deviant","images/simple/14.png","images/simple/6.png","images/complex/1.png,images/complex/8.png,images/complex/11.png,images/complex/4.png,images/complex/17.png,images/complex/18.png,images/complex/15.png","0","null","","200","296.72499999945285","","","","background","",""
"","null","html-keyboard-response","96","319252","0.0-14.0-0.41","SS1604589564275","","null","","","","","","","","","","","","<img src=images/blank.png width =""500"" height = ""500"" style=""border:5px solid black"">","","",""
"","360.6350000008824","stimulus-presentation","97","319821","0.0-14.0-1.41","SS1604589564275","<img src='images/complex/15.png' width ='500' height = '500' style='border:5px solid black'>","40","mixed_complex_deviant","images/simple/14.png","images/simple/6.png","images/complex/1.png,images/complex/8.png,images/complex/11.png,images/complex/4.png,images/complex/17.png,images/complex/18.png,images/complex/15.png","0","null","","200","560.6350000008824","","","","deviant","",""
"","null","html-keyboard-response","98","320762","0.0-14.0-0.42","SS1604589564275","","null","","","","","","","","","","","","<img src=images/blank.png width =""500"" height = ""500"" style=""border:5px solid black"">","","",""
"","132.20500000170432","stimulus-presentation","99","321100","0.0-14.0-1.42","SS1604589564275","<img src='images/simple/6.png' width ='500' height = '500' style='border:5px solid black'>","40","mixed_complex_deviant","images/simple/14.png","images/simple/6.png","images/complex/1.png,images/complex/8.png,images/complex/11.png,images/complex/4.png,images/complex/17.png,images/complex/18.png,images/complex/15.png","0","null","","200","332.2050000017043","","","","background","",""
"","null","html-keyboard-response","100","321911","0.0-14.0-0.43","SS1604589564275","","null","","","","","","","","","","","","<img src=images/blank.png width =""500"" height = ""500"" style=""border:5px solid black"">","","",""
"","77.61499999836087","stimulus-presentation","101","322197","0.0-14.0-1.43","SS1604589564275","<img src='images/simple/6.png' width ='500' height = '500' style='border:5px solid black'>","40","mixed_complex_deviant","images/simple/14.png","images/simple/6.png","images/complex/1.png,images/complex/8.png,images/complex/11.png,images/complex/4.png,images/complex/17.png,images/complex/18.png,images/complex/15.png","0","null","","200","277.6149999983609","","","","background","",""
"","null","html-keyboard-response","102","323306","0.0-14.0-0.44","SS1604589564275","","null","","","","","","","","","","","","<img src=images/blank.png width =""500"" height = ""500"" style=""border:5px solid black"">","","",""
"","115.81500000105007","stimulus-presentation","103","323628","0.0-14.0-1.44","SS1604589564275","<img src='images/simple/6.png' width ='500' height = '500' style='border:5px solid black'>","40","mixed_complex_deviant","images/simple/14.png","images/simple/6.png","images/complex/1.png,images/complex/8.png,images/complex/11.png,images/complex/4.png,images/complex/17.png,images/complex/18.png,images/complex/15.png","0","null","","200","315.81500000105007","","","","background","",""
"","null","html-keyboard-response","104","324734","0.0-14.0-0.45","SS1604589564275","","null","","","","","","","","","","","","<img src=images/blank.png width =""500"" height = ""500"" style=""border:5px solid black"">","","",""
"","1696.1149999988265","stimulus-presentation","105","326637","0.0-14.0-1.45","SS1604589564275","<img src='images/simple/14.png' width ='500' height = '500' style='border:5px solid black'>","40","mixed_complex_deviant","images/simple/14.png","images/simple/6.png","images/complex/1.png,images/complex/8.png,images/complex/11.png,images/complex/4.png,images/complex/17.png,images/complex/18.png,images/complex/15.png","0","null","","200","1896.1149999988265","yes","295.71500000020023","","target","",""
"","null","html-keyboard-response","106","327842","0.0-14.0-0.46","SS1604589564275","","null","","","","","","","","","","","","<img src=images/blank.png width =""500"" height = ""500"" style=""border:5px solid black"">","","",""
"","149.23500000080094","stimulus-presentation","107","328197","0.0-14.0-1.46","SS1604589564275","<img src='images/simple/14.png' width ='500' height = '500' style='border:5px solid black'>","40","mixed_complex_deviant","images/simple/14.png","images/simple/6.png","images/complex/1.png,images/complex/8.png,images/complex/11.png,images/complex/4.png,images/complex/17.png,images/complex/18.png,images/complex/15.png","0","null","","200","349.23500000080094","","","","target","",""
"","null","html-keyboard-response","108","329177","0.0-14.0-0.47","SS1604589564275","","null","","","","","","","","","","","","<img src=images/blank.png width =""500"" height = ""500"" style=""border:5px solid black"">","","",""
"","93.06499999732478","stimulus-presentation","109","329476","0.0-14.0-1.47","SS1604589564275","<img src='images/simple/6.png' width ='500' height = '500' style='border:5px solid black'>","40","mixed_complex_deviant","images/simple/14.png","images/simple/6.png","images/complex/1.png,images/complex/8.png,images/complex/11.png,images/complex/4.png,images/complex/17.png,images/complex/18.png,images/complex/15.png","0","null","","200","293.0649999973248","","","","background","",""
"","null","html-keyboard-response","110","330612","0.0-14.0-0.48","SS1604589564275","","null","","","","","","","","","","","","<img src=images/blank.png width =""500"" height = ""500"" style=""border:5px solid black"">","","",""
"","2066.914999999397","stimulus-presentation","111","332886","0.0-14.0-1.48","SS1604589564275","<img src='images/simple/14.png' width ='500' height = '500' style='border:5px solid black'>","40","mixed_complex_deviant","images/simple/14.png","images/simple/6.png","images/complex/1.png,images/complex/8.png,images/complex/11.png,images/complex/4.png,images/complex/17.png,images/complex/18.png,images/complex/15.png","0","null","","200","2266.914999999397","yes","1337.6599999974133","","target","",""
"[{""page_index"":0,""viewing_time"":3499}]","3500","task-instructions","112","336392","0.0-15.0","SS1604589564275","","","","","","","","","","","","","","","","",""
"[{""page_index"":0,""viewing_time"":3748.855000001611},{""page_index"":1,""viewing_time"":4392.864999998012},{""page_index"":2,""viewing_time"":1991.1099999989965}]","10133.174999998999","instructions","113","346528","0.0-16.0","SS1604589564275","","","","","","","","","","","","","","","","",""
"","null","html-keyboard-response","114","347420","0.0-17.0-0.0","SS1604589564275","","null","","","","","","","","","","","","<img src=images/blank.png width =""500"" height = ""500"" style=""border:5px solid black"">","","",""
"","114.72499999951106","stimulus-presentation","115","347740","0.0-17.0-1.0","SS1604589564275","<img src='images/complex/10.png' width ='500' height = '500' style='border:5px solid black'>","40","mixed_simple_deviant","images/complex/14.png","images/complex/10.png","images/simple/3.png,images/simple/10.png,images/simple/8.png,images/simple/13.png,images/simple/12.png,images/simple/11.png,images/simple/18.png","1","null","","200","314.72499999951106","","","","background","",""
"","null","html-keyboard-response","116","349007","0.0-17.0-0.1","SS1604589564275","","null","","","","","","","","","","","","<img src=images/blank.png width =""500"" height = ""500"" style=""border:5px solid black"">","","",""
"","238.85000000154832","stimulus-presentation","117","349452","0.0-17.0-1.1","SS1604589564275","<img src='images/simple/3.png' width ='500' height = '500' style='border:5px solid black'>","40","mixed_simple_deviant","images/complex/14.png","images/complex/10.png","images/simple/3.png,images/simple/10.png,images/simple/8.png,images/simple/13.png,images/simple/12.png,images/simple/11.png,images/simple/18.png","1","null","","200","438.8500000015483","","","","deviant","",""
"","null","html-keyboard-response","118","350671","0.0-17.0-0.2","SS1604589564275","","null","","","","","","","","","","","","<img src=images/blank.png width =""500"" height = ""500"" style=""border:5px solid black"">","","",""
"","86.86000000307104","stimulus-presentation","119","350965","0.0-17.0-1.2","SS1604589564275","<img src='images/complex/10.png' width ='500' height = '500' style='border:5px solid black'>","40","mixed_simple_deviant","images/complex/14.png","images/complex/10.png","images/simple/3.png,images/simple/10.png,images/simple/8.png,images/simple/13.png,images/simple/12.png,images/simple/11.png,images/simple/18.png","1","null","","200","286.86000000307104","","","","background","",""
"","null","html-keyboard-response","120","352140","0.0-17.0-0.3","SS1604589564275","","null","","","","","","","","","","","","<img src=images/blank.png width =""500"" height = ""500"" style=""border:5px solid black"">","","",""
"","128.42000000097323","stimulus-presentation","121","352476","0.0-17.0-1.3","SS1604589564275","<img src='images/complex/10.png' width ='500' height = '500' style='border:5px solid black'>","40","mixed_simple_deviant","images/complex/14.png","images/complex/10.png","images/simple/3.png,images/simple/10.png,images/simple/8.png,images/simple/13.png,images/simple/12.png,images/simple/11.png,images/simple/18.png","1","null","","200","328.42000000097323","","","","background","",""
"","null","html-keyboard-response","122","353451","0.0-17.0-0.4","SS1604589564275","","null","","","","","","","","","","","","<img src=images/blank.png width =""500"" height = ""500"" style=""border:5px solid black"">","","",""
"","566.7450000000536","stimulus-presentation","123","354228","0.0-17.0-1.4","SS1604589564275","<img src='images/complex/14.png' width ='500' height = '500' style='border:5px solid black'>","40","mixed_simple_deviant","images/complex/14.png","images/complex/10.png","images/simple/3.png,images/simple/10.png,images/simple/8.png,images/simple/13.png,images/simple/12.png,images/simple/11.png,images/simple/18.png","1","null","","200","766.7450000000536","yes","183.00000000087311","","target","",""
"","null","html-keyboard-response","124","355141","0.0-17.0-0.5","SS1604589564275","","null","","","","","","","","","","","","<img src=images/blank.png width =""500"" height = ""500"" style=""border:5px solid black"">","","",""
"","70.98000000044703","stimulus-presentation","125","355420","0.0-17.0-1.5","SS1604589564275","<img src='images/complex/10.png' width ='500' height = '500' style='border:5px solid black'>","40","mixed_simple_deviant","images/complex/14.png","images/complex/10.png","images/simple/3.png,images/simple/10.png,images/simple/8.png,images/simple/13.png,images/simple/12.png,images/simple/11.png,images/simple/18.png","1","null","","200","270.98000000044703","","","","background","",""
"","null","html-keyboard-response","126","356618","0.0-17.0-0.6","SS1604589564275","","null","","","","","","","","","","","","<img src=images/blank.png width =""500"" height = ""500"" style=""border:5px solid black"">","","",""
"","676.9850000019069","stimulus-presentation","127","357500","0.0-17.0-1.6","SS1604589564275","<img src='images/complex/14.png' width ='500' height = '500' style='border:5px solid black'>","40","mixed_simple_deviant","images/complex/14.png","images/complex/10.png","images/simple/3.png,images/simple/10.png,images/simple/8.png,images/simple/13.png,images/simple/12.png,images/simple/11.png,images/simple/18.png","1","null","","200","876.9850000019069","yes","372.85500000143657","","target","",""
"","null","html-keyboard-response","128","358494","0.0-17.0-0.7","SS1604589564275","","null","","","","","","","","","","","","<img src=images/blank.png width =""500"" height = ""500"" style=""border:5px solid black"">","","",""
"","94.65999999886844","stimulus-presentation","129","358796","0.0-17.0-1.7","SS1604589564275","<img src='images/complex/10.png' width ='500' height = '500' style='border:5px solid black'>","40","mixed_simple_deviant","images/complex/14.png","images/complex/10.png","images/simple/3.png,images/simple/10.png,images/simple/8.png,images/simple/13.png,images/simple/12.png,images/simple/11.png,images/simple/18.png","1","null","","200","294.65999999886844","","","","background","",""
"","null","html-keyboard-response","130","359947","0.0-17.0-0.8","SS1604589564275","","null","","","","","","","","","","","","<img src=images/blank.png width =""500"" height = ""500"" style=""border:5px solid black"">","","",""
"","138.84500000125263","stimulus-presentation","131","360292","0.0-17.0-1.8","SS1604589564275","<img src='images/complex/10.png' width ='500' height = '500' style='border:5px solid black'>","40","mixed_simple_deviant","images/complex/14.png","images/complex/10.png","images/simple/3.png,images/simple/10.png,images/simple/8.png,images/simple/13.png,images/simple/12.png,images/simple/11.png,images/simple/18.png","1","null","","200","338.84500000125263","","","","background","",""
"","null","html-keyboard-response","132","361120","0.0-17.0-0.9","SS1604589564275","","null","","","","","","","","","","","","<img src=images/blank.png width =""500"" height = ""500"" style=""border:5px solid black"">","","",""
"","161.36999999795808","stimulus-presentation","133","361493","0.0-17.0-1.9","SS1604589564275","<img src='images/complex/10.png' width ='500' height = '500' style='border:5px solid black'>","40","mixed_simple_deviant","images/complex/14.png","images/complex/10.png","images/simple/3.png,images/simple/10.png,images/simple/8.png,images/simple/13.png,images/simple/12.png,images/simple/11.png,images/simple/18.png","1","null","","200","361.3699999979581","","","","background","",""
"","null","html-keyboard-response","134","362424","0.0-17.0-0.10","SS1604589564275","","null","","","","","","","","","","","","<img src=images/blank.png width =""500"" height = ""500"" style=""border:5px solid black"">","","",""
"","157.13000000326429","stimulus-presentation","135","362788","0.0-17.0-1.10","SS1604589564275","<img src='images/complex/10.png' width ='500' height = '500' style='border:5px solid black'>","40","mixed_simple_deviant","images/complex/14.png","images/complex/10.png","images/simple/3.png,images/simple/10.png,images/simple/8.png,images/simple/13.png,images/simple/12.png,images/simple/11.png,images/simple/18.png","1","null","","200","357.1300000032643","","","","background","",""
"","null","html-keyboard-response","136","363993","0.0-17.0-0.11","SS1604589564275","","null","","","","","","","","","","","","<img src=images/blank.png width =""500"" height = ""500"" style=""border:5px solid black"">","","",""
"","826.905000001716","stimulus-presentation","137","365028","0.0-17.0-1.11","SS1604589564275","<img src='images/complex/14.png' width ='500' height = '500' style='border:5px solid black'>","40","mixed_simple_deviant","images/complex/14.png","images/complex/10.png","images/simple/3.png,images/simple/10.png,images/simple/8.png,images/simple/13.png,images/simple/12.png,images/simple/11.png,images/simple/18.png","1","null","","200","1026.905000001716","yes","227.0600000010454","","target","",""
"","null","html-keyboard-response","138","365982","0.0-17.0-0.12","SS1604589564275","","null","","","","","","","","","","","","<img src=images/blank.png width =""500"" height = ""500"" style=""border:5px solid black"">","","",""
"","43.86499999964144","stimulus-presentation","139","366236","0.0-17.0-1.12","SS1604589564275","<img src='images/complex/10.png' width ='500' height = '500' style='border:5px solid black'>","40","mixed_simple_deviant","images/complex/14.png","images/complex/10.png","images/simple/3.png,images/simple/10.png,images/simple/8.png,images/simple/13.png,images/simple/12.png,images/simple/11.png,images/simple/18.png","1","null","","200","243.86499999964144","","","","background","",""
"","null","html-keyboard-response","140","367053","0.0-17.0-0.13","SS1604589564275","","null","","","","","","","","","","","","<img src=images/blank.png width =""500"" height = ""500"" style=""border:5px solid black"">","","",""
"","86.3950000021141","stimulus-presentation","141","367347","0.0-17.0-1.13","SS1604589564275","<img src='images/complex/10.png' width ='500' height = '500' style='border:5px solid black'>","40","mixed_simple_deviant","images/complex/14.png","images/complex/10.png","images/simple/3.png,images/simple/10.png,images/simple/8.png,images/simple/13.png,images/simple/12.png,images/simple/11.png,images/simple/18.png","1","null","","200","286.3950000021141","","","","background","",""
"","null","html-keyboard-response","142","368460","0.0-17.0-0.14","SS1604589564275","","null","","","","","","","","","","","","<img src=images/blank.png width =""500"" height = ""500"" style=""border:5px solid black"">","","",""
"","136.98499999730848","stimulus-presentation","143","368804","0.0-17.0-1.14","SS1604589564275","<img src='images/complex/10.png' width ='500' height = '500' style='border:5px solid black'>","40","mixed_simple_deviant","images/complex/14.png","images/complex/10.png","images/simple/3.png,images/simple/10.png,images/simple/8.png,images/simple/13.png,images/simple/12.png,images/simple/11.png,images/simple/18.png","1","null","","200","336.9849999973085","","","","background","",""
"","null","html-keyboard-response","144","370075","0.0-17.0-0.15","SS1604589564275","","null","","","","","","","","","","","","<img src=images/blank.png width =""500"" height = ""500"" style=""border:5px solid black"">","","",""
"","647.3050000022049","stimulus-presentation","145","370932","0.0-17.0-1.15","SS1604589564275","<img src='images/complex/14.png' width ='500' height = '500' style='border:5px solid black'>","40","mixed_simple_deviant","images/complex/14.png","images/complex/10.png","images/simple/3.png,images/simple/10.png,images/simple/8.png,images/simple/13.png,images/simple/12.png,images/simple/11.png,images/simple/18.png","1","null","","200","847.3050000022049","yes","143.50500000000466","","target","",""
"","null","html-keyboard-response","146","371828","0.0-17.0-0.16","SS1604589564275","","null","","","","","","","","","","","","<img src=images/blank.png width =""500"" height = ""500"" style=""border:5px solid black"">","","",""
"","88.57999999966705","stimulus-presentation","147","372127","0.0-17.0-1.16","SS1604589564275","<img src='images/complex/10.png' width ='500' height = '500' style='border:5px solid black'>","40","mixed_simple_deviant","images/complex/14.png","images/complex/10.png","images/simple/3.png,images/simple/10.png,images/simple/8.png,images/simple/13.png,images/simple/12.png,images/simple/11.png,images/simple/18.png","1","null","","200","288.57999999966705","","","","background","",""
"","null","html-keyboard-response","148","373368","0.0-17.0-0.17","SS1604589564275","","null","","","","","","","","","","","","<img src=images/blank.png width =""500"" height = ""500"" style=""border:5px solid black"">","","",""
"","116.39500000094995","stimulus-presentation","149","373693","0.0-17.0-1.17","SS1604589564275","<img src='images/complex/10.png' width ='500' height = '500' style='border:5px solid black'>","40","mixed_simple_deviant","images/complex/14.png","images/complex/10.png","images/simple/3.png,images/simple/10.png,images/simple/8.png,images/simple/13.png,images/simple/12.png,images/simple/11.png,images/simple/18.png","1","null","","200","316.39500000094995","","","","background","",""
"","null","html-keyboard-response","150","374792","0.0-17.0-0.18","SS1604589564275","","null","","","","","","","","","","","","<img src=images/blank.png width =""500"" height = ""500"" style=""border:5px solid black"">","","",""
"","162.0100000000093","stimulus-presentation","151","375164","0.0-17.0-1.18","SS1604589564275","<img src='images/complex/10.png' width ='500' height = '500' style='border:5px solid black'>","40","mixed_simple_deviant","images/complex/14.png","images/complex/10.png","images/simple/3.png,images/simple/10.png,images/simple/8.png,images/simple/13.png,images/simple/12.png,images/simple/11.png,images/simple/18.png","1","null","","200","362.0100000000093","","","","background","",""
"","null","html-keyboard-response","152","376289","0.0-17.0-0.19","SS1604589564275","","null","","","","","","","","","","","","<img src=images/blank.png width =""500"" height = ""500"" style=""border:5px solid black"">","","",""
"","202.87499999901047","stimulus-presentation","153","376700","0.0-17.0-1.19","SS1604589564275","<img src='images/simple/8.png' width ='500' height = '500' style='border:5px solid black'>","40","mixed_simple_deviant","images/complex/14.png","images/complex/10.png","images/simple/3.png,images/simple/10.png,images/simple/8.png,images/simple/13.png,images/simple/12.png,images/simple/11.png,images/simple/18.png","1","null","","200","402.87499999901047","","","","deviant","",""
"","null","html-keyboard-response","154","377511","0.0-17.0-0.20","SS1604589564275","","null","","","","","","","","","","","","<img src=images/blank.png width =""500"" height = ""500"" style=""border:5px solid black"">","","",""
"","143.93500000005588","stimulus-presentation","155","377861","0.0-17.0-1.20","SS1604589564275","<img src='images/complex/10.png' width ='500' height = '500' style='border:5px solid black'>","40","mixed_simple_deviant","images/complex/14.png","images/complex/10.png","images/simple/3.png,images/simple/10.png,images/simple/8.png,images/simple/13.png,images/simple/12.png,images/simple/11.png,images/simple/18.png","1","null","","200","343.9350000000559","","","","background","",""
"","null","html-keyboard-response","156","379146","0.0-17.0-0.21","SS1604589564275","","null","","","","","","","","","","","","<img src=images/blank.png width =""500"" height = ""500"" style=""border:5px solid black"">","","",""
"","137.2750000009546","stimulus-presentation","157","379492","0.0-17.0-1.21","SS1604589564275","<img src='images/complex/10.png' width ='500' height = '500' style='border:5px solid black'>","40","mixed_simple_deviant","images/complex/14.png","images/complex/10.png","images/simple/3.png,images/simple/10.png,images/simple/8.png,images/simple/13.png,images/simple/12.png,images/simple/11.png,images/simple/18.png","1","null","","200","337.2750000009546","","","","background","",""
"","null","html-keyboard-response","158","380585","0.0-17.0-0.22","SS1604589564275","","null","","","","","","","","","","","","<img src=images/blank.png width =""500"" height = ""500"" style=""border:5px solid black"">","","",""
"","154.02000000176486","stimulus-presentation","159","380948","0.0-17.0-1.22","SS1604589564275","<img src='images/complex/10.png' width ='500' height = '500' style='border:5px solid black'>","40","mixed_simple_deviant","images/complex/14.png","images/complex/10.png","images/simple/3.png,images/simple/10.png,images/simple/8.png,images/simple/13.png,images/simple/12.png,images/simple/11.png,images/simple/18.png","1","null","","200","354.02000000176486","","","","background","",""
"","null","html-keyboard-response","160","381985","0.0-17.0-0.23","SS1604589564275","","null","","","","","","","","","","","","<img src=images/blank.png width =""500"" height = ""500"" style=""border:5px solid black"">","","",""
"","137.82999999966705","stimulus-presentation","161","382341","0.0-17.0-1.23","SS1604589564275","<img src='images/complex/10.png' width ='500' height = '500' style='border:5px solid black'>","40","mixed_simple_deviant","images/complex/14.png","images/complex/10.png","images/simple/3.png,images/simple/10.png,images/simple/8.png,images/simple/13.png,images/simple/12.png,images/simple/11.png,images/simple/18.png","1","null","","200","337.82999999966705","","","","background","",""
"","null","html-keyboard-response","162","383436","0.0-17.0-0.24","SS1604589564275","","null","","","","","","","","","","","","<img src=images/blank.png width =""500"" height = ""500"" style=""border:5px solid black"">","","",""
"","105.28500000142958","stimulus-presentation","163","383747","0.0-17.0-1.24","SS1604589564275","<img src='images/complex/10.png' width ='500' height = '500' style='border:5px solid black'>","40","mixed_simple_deviant","images/complex/14.png","images/complex/10.png","images/simple/3.png,images/simple/10.png,images/simple/8.png,images/simple/13.png,images/simple/12.png,images/simple/11.png,images/simple/18.png","1","null","","200","305.2850000014296","","","","background","",""
"","null","html-keyboard-response","164","384694","0.0-17.0-0.25","SS1604589564275","","null","","","","","","","","","","","","<img src=images/blank.png width =""500"" height = ""500"" style=""border:5px solid black"">","","",""
"","837.2600000002421","stimulus-presentation","165","385740","0.0-17.0-1.25","SS1604589564275","<img src='images/complex/14.png' width ='500' height = '500' style='border:5px solid black'>","40","mixed_simple_deviant","images/complex/14.png","images/complex/10.png","images/simple/3.png,images/simple/10.png,images/simple/8.png,images/simple/13.png,images/simple/12.png,images/simple/11.png,images/simple/18.png","1","null","","200","1037.2600000002421","yes","253.01000000035856","","target","",""
"","null","html-keyboard-response","166","386705","0.0-17.0-0.26","SS1604589564275","","null","","","","","","","","","","","","<img src=images/blank.png width =""500"" height = ""500"" style=""border:5px solid black"">","","",""
"","237.535000000149","stimulus-presentation","167","387148","0.0-17.0-1.26","SS1604589564275","<img src='images/complex/10.png' width ='500' height = '500' style='border:5px solid black'>","40","mixed_simple_deviant","images/complex/14.png","images/complex/10.png","images/simple/3.png,images/simple/10.png,images/simple/8.png,images/simple/13.png,images/simple/12.png,images/simple/11.png,images/simple/18.png","1","null","","200","437.535000000149","","","","background","",""
"","null","html-keyboard-response","168","388168","0.0-17.0-0.27","SS1604589564275","","null","","","","","","","","","","","","<img src=images/blank.png width =""500"" height = ""500"" style=""border:5px solid black"">","","",""
"","102.04000000155065","stimulus-presentation","169","388476","0.0-17.0-1.27","SS1604589564275","<img src='images/complex/10.png' width ='500' height = '500' style='border:5px solid black'>","40","mixed_simple_deviant","images/complex/14.png","images/complex/10.png","images/simple/3.png,images/simple/10.png,images/simple/8.png,images/simple/13.png,images/simple/12.png,images/simple/11.png,images/simple/18.png","1","null","","200","302.04000000155065","","","","background","",""
"","null","html-keyboard-response","170","389511","0.0-17.0-0.28","SS1604589564275","","null","","","","","","","","","","","","<img src=images/blank.png width =""500"" height = ""500"" style=""border:5px solid black"">","","",""
"","100.27500000072177","stimulus-presentation","171","389820","0.0-17.0-1.28","SS1604589564275","<img src='images/complex/10.png' width ='500' height = '500' style='border:5px solid black'>","40","mixed_simple_deviant","images/complex/14.png","images/complex/10.png","images/simple/3.png,images/simple/10.png,images/simple/8.png,images/simple/13.png,images/simple/12.png,images/simple/11.png,images/simple/18.png","1","null","","200","300.2750000007218","","","","background","",""
"","null","html-keyboard-response","172","390885","0.0-17.0-0.29","SS1604589564275","","null","","","","","","","","","","","","<img src=images/blank.png width =""500"" height = ""500"" style=""border:5px solid black"">","","",""
"","156.19499999959953","stimulus-presentation","173","391251","0.0-17.0-1.29","SS1604589564275","<img src='images/complex/10.png' width ='500' height = '500' style='border:5px solid black'>","40","mixed_simple_deviant","images/complex/14.png","images/complex/10.png","images/simple/3.png,images/simple/10.png,images/simple/8.png,images/simple/13.png,images/simple/12.png,images/simple/11.png,images/simple/18.png","1","null","","200","356.19499999959953","","","","background","",""
"","null","html-keyboard-response","174","392236","0.0-17.0-0.30","SS1604589564275","","null","","","","","","","","","","","","<img src=images/blank.png width =""500"" height = ""500"" style=""border:5px solid black"">","","",""
"","191.03000000177417","stimulus-presentation","175","392637","0.0-17.0-1.30","SS1604589564275","<img src='images/complex/10.png' width ='500' height = '500' style='border:5px solid black'>","40","mixed_simple_deviant","images/complex/14.png","images/complex/10.png","images/simple/3.png,images/simple/10.png,images/simple/8.png,images/simple/13.png,images/simple/12.png,images/simple/11.png,images/simple/18.png","1","null","","200","391.03000000177417","","","","background","",""
"","null","html-keyboard-response","176","393625","0.0-17.0-0.31","SS1604589564275","","null","","","","","","","","","","","","<img src=images/blank.png width =""500"" height = ""500"" style=""border:5px solid black"">","","",""
"","644.97499999922","stimulus-presentation","177","394476","0.0-17.0-1.31","SS1604589564275","<img src='images/simple/13.png' width ='500' height = '500' style='border:5px solid black'>","40","mixed_simple_deviant","images/complex/14.png","images/complex/10.png","images/simple/3.png,images/simple/10.png,images/simple/8.png,images/simple/13.png,images/simple/12.png,images/simple/11.png,images/simple/18.png","1","null","","200","844.97499999922","","","","deviant","",""
"","null","html-keyboard-response","178","395456","0.0-17.0-0.32","SS1604589564275","","null","","","","","","","","","","","","<img src=images/blank.png width =""500"" height = ""500"" style=""border:5px solid black"">","","",""
"","132.36499999766238","stimulus-presentation","179","395797","0.0-17.0-1.32","SS1604589564275","<img src='images/complex/10.png' width ='500' height = '500' style='border:5px solid black'>","40","mixed_simple_deviant","images/complex/14.png","images/complex/10.png","images/simple/3.png,images/simple/10.png,images/simple/8.png,images/simple/13.png,images/simple/12.png,images/simple/11.png,images/simple/18.png","1","null","","200","332.3649999976624","","","","background","",""
"","null","html-keyboard-response","180","396733","0.0-17.0-0.33","SS1604589564275","","null","","","","","","","","","","","","<img src=images/blank.png width =""500"" height = ""500"" style=""border:5px solid black"">","","",""
"","134.69999999867287","stimulus-presentation","181","397077","0.0-17.0-1.33","SS1604589564275","<img src='images/complex/10.png' width ='500' height = '500' style='border:5px solid black'>","40","mixed_simple_deviant","images/complex/14.png","images/complex/10.png","images/simple/3.png,images/simple/10.png,images/simple/8.png,images/simple/13.png,images/simple/12.png,images/simple/11.png,images/simple/18.png","1","null","","200","334.69999999867287","","","","background","",""
"","null","html-keyboard-response","182","397934","0.0-17.0-0.34","SS1604589564275","","null","","","","","","","","","","","","<img src=images/blank.png width =""500"" height = ""500"" style=""border:5px solid black"">","","",""
"","236.6699999984121","stimulus-presentation","183","398381","0.0-17.0-1.34","SS1604589564275","<img src='images/complex/10.png' width ='500' height = '500' style='border:5px solid black'>","40","mixed_simple_deviant","images/complex/14.png","images/complex/10.png","images/simple/3.png,images/simple/10.png,images/simple/8.png,images/simple/13.png,images/simple/12.png,images/simple/11.png,images/simple/18.png","1","null","","200","436.6699999984121","","","","background","",""
"","null","html-keyboard-response","184","399568","0.0-17.0-0.35","SS1604589564275","","null","","","","","","","","","","","","<img src=images/blank.png width =""500"" height = ""500"" style=""border:5px solid black"">","","",""
"","167.6899999983725","stimulus-presentation","185","399940","0.0-17.0-1.35","SS1604589564275","<img src='images/simple/12.png' width ='500' height = '500' style='border:5px solid black'>","40","mixed_simple_deviant","images/complex/14.png","images/complex/10.png","images/simple/3.png,images/simple/10.png,images/simple/8.png,images/simple/13.png,images/simple/12.png,images/simple/11.png,images/simple/18.png","1","null","","200","367.6899999983725","","","","deviant","",""
"","null","html-keyboard-response","186","401026","0.0-17.0-0.36","SS1604589564275","","null","","","","","","","","","","","","<img src=images/blank.png width =""500"" height = ""500"" style=""border:5px solid black"">","","",""
"","871.8450000014855","stimulus-presentation","187","402108","0.0-17.0-1.36","SS1604589564275","<img src='images/complex/14.png' width ='500' height = '500' style='border:5px solid black'>","40","mixed_simple_deviant","images/complex/14.png","images/complex/10.png","images/simple/3.png,images/simple/10.png,images/simple/8.png,images/simple/13.png,images/simple/12.png,images/simple/11.png,images/simple/18.png","1","null","","200","1071.8450000014855","yes","327.8700000009849","","target","",""
"","null","html-keyboard-response","188","403398","0.0-17.0-0.37","SS1604589564275","","null","","","","","","","","","","","","<img src=images/blank.png width =""500"" height = ""500"" style=""border:5px solid black"">","","",""
"","213.26000000047497","stimulus-presentation","189","403821","0.0-17.0-1.37","SS1604589564275","<img src='images/simple/11.png' width ='500' height = '500' style='border:5px solid black'>","40","mixed_simple_deviant","images/complex/14.png","images/complex/10.png","images/simple/3.png,images/simple/10.png,images/simple/8.png,images/simple/13.png,images/simple/12.png,images/simple/11.png,images/simple/18.png","1","null","","200","413.260000000475","","","","deviant","",""
"","null","html-keyboard-response","190","404782","0.0-17.0-0.38","SS1604589564275","","null","","","","","","","","","","","","<img src=images/blank.png width =""500"" height = ""500"" style=""border:5px solid black"">","","",""
"","99.37499999802094","stimulus-presentation","191","405092","0.0-17.0-1.38","SS1604589564275","<img src='images/complex/10.png' width ='500' height = '500' style='border:5px solid black'>","40","mixed_simple_deviant","images/complex/14.png","images/complex/10.png","images/simple/3.png,images/simple/10.png,images/simple/8.png,images/simple/13.png,images/simple/12.png,images/simple/11.png,images/simple/18.png","1","null","","200","299.37499999802094","","","","background","",""
"","null","html-keyboard-response","192","406386","0.0-17.0-0.39","SS1604589564275","","null","","","","","","","","","","","","<img src=images/blank.png width =""500"" height = ""500"" style=""border:5px solid black"">","","",""
"","103.70500000135507","stimulus-presentation","193","406701","0.0-17.0-1.39","SS1604589564275","<img src='images/complex/10.png' width ='500' height = '500' style='border:5px solid black'>","40","mixed_simple_deviant","images/complex/14.png","images/complex/10.png","images/simple/3.png,images/simple/10.png,images/simple/8.png,images/simple/13.png,images/simple/12.png,images/simple/11.png,images/simple/18.png","1","null","","200","303.7050000013551","","","","background","",""
"","null","html-keyboard-response","194","407996","0.0-17.0-0.40","SS1604589564275","","null","","","","","","","","","","","","<img src=images/blank.png width =""500"" height = ""500"" style=""border:5px solid black"">","","",""
"","1166.7949999973644","stimulus-presentation","195","409372","0.0-17.0-1.40","SS1604589564275","<img src='images/complex/10.png' width ='500' height = '500' style='border:5px solid black'>","40","mixed_simple_deviant","images/complex/14.png","images/complex/10.png","images/simple/3.png,images/simple/10.png,images/simple/8.png,images/simple/13.png,images/simple/12.png,images/simple/11.png,images/simple/18.png","1","null","","200","1366.7949999973644","","","","background","",""
"","null","html-keyboard-response","196","410355","0.0-17.0-0.41","SS1604589564275","","null","","","","","","","","","","","","<img src=images/blank.png width =""500"" height = ""500"" style=""border:5px solid black"">","","",""
"","79.56000000197673","stimulus-presentation","197","410644","0.0-17.0-1.41","SS1604589564275","<img src='images/simple/10.png' width ='500' height = '500' style='border:5px solid black'>","40","mixed_simple_deviant","images/complex/14.png","images/complex/10.png","images/simple/3.png,images/simple/10.png,images/simple/8.png,images/simple/13.png,images/simple/12.png,images/simple/11.png,images/simple/18.png","1","null","","200","279.56000000197673","","","","deviant","",""
"","null","html-keyboard-response","198","411734","0.0-17.0-0.42","SS1604589564275","","null","","","","","","","","","","","","<img src=images/blank.png width =""500"" height = ""500"" style=""border:5px solid black"">","","",""
"","181.26499999925727","stimulus-presentation","199","412124","0.0-17.0-1.42","SS1604589564275","<img src='images/complex/10.png' width ='500' height = '500' style='border:5px solid black'>","40","mixed_simple_deviant","images/complex/14.png","images/complex/10.png","images/simple/3.png,images/simple/10.png,images/simple/8.png,images/simple/13.png,images/simple/12.png,images/simple/11.png,images/simple/18.png","1","null","","200","381.26499999925727","","","","background","",""
"","null","html-keyboard-response","200","413001","0.0-17.0-0.43","SS1604589564275","","null","","","","","","","","","","","","<img src=images/blank.png width =""500"" height = ""500"" style=""border:5px solid black"">","","",""
"","143.95499999955064","stimulus-presentation","201","413356","0.0-17.0-1.43","SS1604589564275","<img src='images/complex/10.png' width ='500' height = '500' style='border:5px solid black'>","40","mixed_simple_deviant","images/complex/14.png","images/complex/10.png","images/simple/3.png,images/simple/10.png,images/simple/8.png,images/simple/13.png,images/simple/12.png,images/simple/11.png,images/simple/18.png","1","null","","200","343.95499999955064","","","","background","",""
"","null","html-keyboard-response","202","414525","0.0-17.0-0.44","SS1604589564275","","null","","","","","","","","","","","","<img src=images/blank.png width =""500"" height = ""500"" style=""border:5px solid black"">","","",""
"","142.6549999996205","stimulus-presentation","203","414877","0.0-17.0-1.44","SS1604589564275","<img src='images/complex/10.png' width ='500' height = '500' style='border:5px solid black'>","40","mixed_simple_deviant","images/complex/14.png","images/complex/10.png","images/simple/3.png,images/simple/10.png,images/simple/8.png,images/simple/13.png,images/simple/12.png,images/simple/11.png,images/simple/18.png","1","null","","200","342.6549999996205","","","","background","",""
"","null","html-keyboard-response","204","416161","0.0-17.0-0.45","SS1604589564275","","null","","","","","","","","","","","","<img src=images/blank.png width =""500"" height = ""500"" style=""border:5px solid black"">","","",""
"","113.6449999975739","stimulus-presentation","205","416484","0.0-17.0-1.45","SS1604589564275","<img src='images/complex/10.png' width ='500' height = '500' style='border:5px solid black'>","40","mixed_simple_deviant","images/complex/14.png","images/complex/10.png","images/simple/3.png,images/simple/10.png,images/simple/8.png,images/simple/13.png,images/simple/12.png,images/simple/11.png,images/simple/18.png","1","null","","200","313.6449999975739","","","","background","",""
"","null","html-keyboard-response","206","417709","0.0-17.0-0.46","SS1604589564275","","null","","","","","","","","","","","","<img src=images/blank.png width =""500"" height = ""500"" style=""border:5px solid black"">","","",""
"","137.46999999781838","stimulus-presentation","207","418052","0.0-17.0-1.46","SS1604589564275","<img src='images/simple/18.png' width ='500' height = '500' style='border:5px solid black'>","40","mixed_simple_deviant","images/complex/14.png","images/complex/10.png","images/simple/3.png,images/simple/10.png,images/simple/8.png,images/simple/13.png,images/simple/12.png,images/simple/11.png,images/simple/18.png","1","null","","200","337.4699999978184","","","","deviant","",""
"","null","html-keyboard-response","208","419283","0.0-17.0-0.47","SS1604589564275","","null","","","","","","","","","","","","<img src=images/blank.png width =""500"" height = ""500"" style=""border:5px solid black"">","","",""
"","174.4299999991199","stimulus-presentation","209","419668","0.0-17.0-1.47","SS1604589564275","<img src='images/complex/10.png' width ='500' height = '500' style='border:5px solid black'>","40","mixed_simple_deviant","images/complex/14.png","images/complex/10.png","images/simple/3.png,images/simple/10.png,images/simple/8.png,images/simple/13.png,images/simple/12.png,images/simple/11.png,images/simple/18.png","1","null","","200","374.4299999991199","","","","background","",""
"","null","html-keyboard-response","210","420810","0.0-17.0-0.48","SS1604589564275","","null","","","","","","","","","","","","<img src=images/blank.png width =""500"" height = ""500"" style=""border:5px solid black"">","","",""
"","1057.5599999974947","stimulus-presentation","211","422076","0.0-17.0-1.48","SS1604589564275","<img src='images/complex/14.png' width ='500' height = '500' style='border:5px solid black'>","40","mixed_simple_deviant","images/complex/14.png","images/complex/10.png","images/simple/3.png,images/simple/10.png,images/simple/8.png,images/simple/13.png,images/simple/12.png,images/simple/11.png,images/simple/18.png","1","null","","200","1257.5599999974947","yes","417.6449999977485","","target","",""
"[{""page_index"":0,""viewing_time"":2173}]","2173","task-instructions","212","424256","0.0-18.0","SS1604589564275","","","","","","","","","","","","","","","","",""
"[{""page_index"":0,""viewing_time"":793.9750000005006},{""page_index"":1,""viewing_time"":8575.109999997949},{""page_index"":0,""viewing_time"":1280.030000001716},{""page_index"":1,""viewing_time"":1304.3150000012247},{""page_index"":2,""viewing_time"":1783.6800000004587}]","13737.444999998843","instructions","213","437999","0.0-19.0","SS1604589564275","","","","","","","","","","","","","","","","",""
"","null","html-keyboard-response","214","438807","0.0-20.0-0.0","SS1604589564275","","null","","","","","","","","","","","","<img src=images/blank.png width =""500"" height = ""500"" style=""border:5px solid black"">","","",""
"","1348.5150000015274","stimulus-presentation","215","440364","0.0-20.0-1.0","SS1604589564275","<img src='images/simple/7.png' width ='500' height = '500' style='border:5px solid black'>","40","all_simple","images/simple/17.png","images/simple/7.png","images/simple/5.png,images/simple/9.png,images/simple/2.png,images/simple/1.png,images/simple/16.png,images/simple/4.png,images/simple/15.png","2","null","","200","1548.5150000015274","","","","background","",""
"","null","html-keyboard-response","216","441617","0.0-20.0-0.1","SS1604589564275","","null","","","","","","","","","","","","<img src=images/blank.png width =""500"" height = ""500"" style=""border:5px solid black"">","","",""
"","808.3800000022165","stimulus-presentation","217","442635","0.0-20.0-1.1","SS1604589564275","<img src='images/simple/17.png' width ='500' height = '500' style='border:5px solid black'>","40","all_simple","images/simple/17.png","images/simple/7.png","images/simple/5.png,images/simple/9.png,images/simple/2.png,images/simple/1.png,images/simple/16.png,images/simple/4.png,images/simple/15.png","2","null","","200","1008.3800000022165","yes","321.1200000005192","","target","",""
"","null","html-keyboard-response","218","443570","0.0-20.0-0.2","SS1604589564275","","null","","","","","","","","","","","","<img src=images/blank.png width =""500"" height = ""500"" style=""border:5px solid black"">","","",""
"","1238.8549999996321","stimulus-presentation","219","445020","0.0-20.0-1.2","SS1604589564275","<img src='images/simple/17.png' width ='500' height = '500' style='border:5px solid black'>","40","all_simple","images/simple/17.png","images/simple/7.png","images/simple/5.png,images/simple/9.png,images/simple/2.png,images/simple/1.png,images/simple/16.png,images/simple/4.png,images/simple/15.png","2","null","","200","1438.8549999996321","yes","727.0400000016089","","target","",""
"","null","html-keyboard-response","220","446314","0.0-20.0-0.3","SS1604589564275","","null","","","","","","","","","","","","<img src=images/blank.png width =""500"" height = ""500"" style=""border:5px solid black"">","","",""
"","175.47500000003492","stimulus-presentation","221","446700","0.0-20.0-1.3","SS1604589564275","<img src='images/simple/7.png' width ='500' height = '500' style='border:5px solid black'>","40","all_simple","images/simple/17.png","images/simple/7.png","images/simple/5.png,images/simple/9.png,images/simple/2.png,images/simple/1.png,images/simple/16.png,images/simple/4.png,images/simple/15.png","2","null","","200","375.4750000000349","","","","background","",""
"","null","html-keyboard-response","222","447988","0.0-20.0-0.4","SS1604589564275","","null","","","","","","","","","","","","<img src=images/blank.png width =""500"" height = ""500"" style=""border:5px solid black"">","","",""
"","36.46500000101514","stimulus-presentation","223","448236","0.0-20.0-1.4","SS1604589564275","<img src='images/simple/7.png' width ='500' height = '500' style='border:5px solid black'>","40","all_simple","images/simple/17.png","images/simple/7.png","images/simple/5.png,images/simple/9.png,images/simple/2.png,images/simple/1.png,images/simple/16.png,images/simple/4.png,images/simple/15.png","2","null","","200","236.46500000101514","","","","background","",""
"","null","html-keyboard-response","224","449439","0.0-20.0-0.5","SS1604589564275","","null","","","","","","","","","","","","<img src=images/blank.png width =""500"" height = ""500"" style=""border:5px solid black"">","","",""
"","112.0550000014482","stimulus-presentation","225","449764","0.0-20.0-1.5","SS1604589564275","<img src='images/simple/5.png' width ='500' height = '500' style='border:5px solid black'>","40","all_simple","images/simple/17.png","images/simple/7.png","images/simple/5.png,images/simple/9.png,images/simple/2.png,images/simple/1.png,images/simple/16.png,images/simple/4.png,images/simple/15.png","2","null","","200","312.0550000014482","","","","deviant","",""
"","null","html-keyboard-response","226","450903","0.0-20.0-0.6","SS1604589564275","","null","","","","","","","","","","","","<img src=images/blank.png width =""500"" height = ""500"" style=""border:5px solid black"">","","",""
"","110.72000000055414","stimulus-presentation","227","451220","0.0-20.0-1.6","SS1604589564275","<img src='images/simple/7.png' width ='500' height = '500' style='border:5px solid black'>","40","all_simple","images/simple/17.png","images/simple/7.png","images/simple/5.png,images/simple/9.png,images/simple/2.png,images/simple/1.png,images/simple/16.png,images/simple/4.png,images/simple/15.png","2","null","","200","310.72000000055414","","","","background","",""
"","null","html-keyboard-response","228","452363","0.0-20.0-0.7","SS1604589564275","","null","","","","","","","","","","","","<img src=images/blank.png width =""500"" height = ""500"" style=""border:5px solid black"">","","",""
"","71.63999999826774","stimulus-presentation","229","452644","0.0-20.0-1.7","SS1604589564275","<img src='images/simple/7.png' width ='500' height = '500' style='border:5px solid black'>","40","all_simple","images/simple/17.png","images/simple/7.png","images/simple/5.png,images/simple/9.png,images/simple/2.png,images/simple/1.png,images/simple/16.png,images/simple/4.png,images/simple/15.png","2","null","","200","271.63999999826774","","","","background","",""
"","null","html-keyboard-response","230","453939","0.0-20.0-0.8","SS1604589564275","","null","","","","","","","","","","","","<img src=images/blank.png width =""500"" height = ""500"" style=""border:5px solid black"">","","",""
"","130.52999999857275","stimulus-presentation","231","454276","0.0-20.0-1.8","SS1604589564275","<img src='images/simple/7.png' width ='500' height = '500' style='border:5px solid black'>","40","all_simple","images/simple/17.png","images/simple/7.png","images/simple/5.png,images/simple/9.png,images/simple/2.png,images/simple/1.png,images/simple/16.png,images/simple/4.png,images/simple/15.png","2","null","","200","330.52999999857275","","","","background","",""
"","null","html-keyboard-response","232","455417","0.0-20.0-0.9","SS1604589564275","","null","","","","","","","","","","","","<img src=images/blank.png width =""500"" height = ""500"" style=""border:5px solid black"">","","",""
"","104.90500000014435","stimulus-presentation","233","455731","0.0-20.0-1.9","SS1604589564275","<img src='images/simple/9.png' width ='500' height = '500' style='border:5px solid black'>","40","all_simple","images/simple/17.png","images/simple/7.png","images/simple/5.png,images/simple/9.png,images/simple/2.png,images/simple/1.png,images/simple/16.png,images/simple/4.png,images/simple/15.png","2","null","","200","304.90500000014435","","","","deviant","",""
"","null","html-keyboard-response","234","456928","0.0-20.0-0.10","SS1604589564275","","null","","","","","","","","","","","","<img src=images/blank.png width =""500"" height = ""500"" style=""border:5px solid black"">","","",""
"","105.25499999860767","stimulus-presentation","235","457244","0.0-20.0-1.10","SS1604589564275","<img src='images/simple/7.png' width ='500' height = '500' style='border:5px solid black'>","40","all_simple","images/simple/17.png","images/simple/7.png","images/simple/5.png,images/simple/9.png,images/simple/2.png,images/simple/1.png,images/simple/16.png,images/simple/4.png,images/simple/15.png","2","null","","200","305.2549999986077","","","","background","",""
"","null","html-keyboard-response","236","458425","0.0-20.0-0.11","SS1604589564275","","null","","","","","","","","","","","","<img src=images/blank.png width =""500"" height = ""500"" style=""border:5px solid black"">","","",""
"","130.60500000213506","stimulus-presentation","237","458764","0.0-20.0-1.11","SS1604589564275","<img src='images/simple/7.png' width ='500' height = '500' style='border:5px solid black'>","40","all_simple","images/simple/17.png","images/simple/7.png","images/simple/5.png,images/simple/9.png,images/simple/2.png,images/simple/1.png,images/simple/16.png,images/simple/4.png,images/simple/15.png","2","null","","200","330.60500000213506","","","","background","",""
"","null","html-keyboard-response","238","459812","0.0-20.0-0.12","SS1604589564275","","null","","","","","","","","","","","","<img src=images/blank.png width =""500"" height = ""500"" style=""border:5px solid black"">","","",""
"","117.72500000003492","stimulus-presentation","239","460140","0.0-20.0-1.12","SS1604589564275","<img src='images/simple/7.png' width ='500' height = '500' style='border:5px solid black'>","40","all_simple","images/simple/17.png","images/simple/7.png","images/simple/5.png,images/simple/9.png,images/simple/2.png,images/simple/1.png,images/simple/16.png,images/simple/4.png,images/simple/15.png","2","null","","200","317.7250000000349","","","","background","",""
"","null","html-keyboard-response","240","461303","0.0-20.0-0.13","SS1604589564275","","null","","","","","","","","","","","","<img src=images/blank.png width =""500"" height = ""500"" style=""border:5px solid black"">","","",""
"","515.4899999979534","stimulus-presentation","241","462028","0.0-20.0-1.13","SS1604589564275","<img src='images/simple/17.png' width ='500' height = '500' style='border:5px solid black'>","40","all_simple","images/simple/17.png","images/simple/7.png","images/simple/5.png,images/simple/9.png,images/simple/2.png,images/simple/1.png,images/simple/16.png,images/simple/4.png,images/simple/15.png","2","null","","200","715.4899999979534","yes","187.61499999888474","","target","",""
"","null","html-keyboard-response","242","463275","0.0-20.0-0.14","SS1604589564275","","null","","","","","","","","","","","","<img src=images/blank.png width =""500"" height = ""500"" style=""border:5px solid black"">","","",""
"","399.62999999988824","stimulus-presentation","243","463883","0.0-20.0-1.14","SS1604589564275","<img src='images/simple/7.png' width ='500' height = '500' style='border:5px solid black'>","40","all_simple","images/simple/17.png","images/simple/7.png","images/simple/5.png,images/simple/9.png,images/simple/2.png,images/simple/1.png,images/simple/16.png,images/simple/4.png,images/simple/15.png","2","null","","200","599.6299999998882","","","","background","",""
"","null","html-keyboard-response","244","465423","0.0-20.0-0.15","SS1604589564275","","null","","","","","","","","","","","","<img src=images/blank.png width =""500"" height = ""500"" style=""border:5px solid black"">","","",""
"","259.9049999989802","stimulus-presentation","245","465932","0.0-20.0-1.15","SS1604589564275","<img src='images/simple/7.png' width ='500' height = '500' style='border:5px solid black'>","40","all_simple","images/simple/17.png","images/simple/7.png","images/simple/5.png,images/simple/9.png,images/simple/2.png,images/simple/1.png,images/simple/16.png,images/simple/4.png,images/simple/15.png","2","null","","200","459.9049999989802","","","","background","",""
"","null","html-keyboard-response","246","467025","0.0-20.0-0.16","SS1604589564275","","null","","","","","","","","","","","","<img src=images/blank.png width =""500"" height = ""500"" style=""border:5px solid black"">","","",""
"","86.2699999997858","stimulus-presentation","247","467324","0.0-20.0-1.16","SS1604589564275","<img src='images/simple/7.png' width ='500' height = '500' style='border:5px solid black'>","40","all_simple","images/simple/17.png","images/simple/7.png","images/simple/5.png,images/simple/9.png,images/simple/2.png,images/simple/1.png,images/simple/16.png,images/simple/4.png,images/simple/15.png","2","null","","200","286.2699999997858","","","","background","",""
"","null","html-keyboard-response","248","468627","0.0-20.0-0.17","SS1604589564275","","null","","","","","","","","","","","","<img src=images/blank.png width =""500"" height = ""500"" style=""border:5px solid black"">","","",""
"","485.3900000016438","stimulus-presentation","249","469323","0.0-20.0-1.17","SS1604589564275","<img src='images/simple/4.png' width ='500' height = '500' style='border:5px solid black'>","40","all_simple","images/simple/17.png","images/simple/7.png","images/simple/5.png,images/simple/9.png,images/simple/2.png,images/simple/1.png,images/simple/16.png,images/simple/4.png,images/simple/15.png","2","null","","200","685.3900000016438","","","","deviant","",""
"","null","html-keyboard-response","250","470269","0.0-20.0-0.18","SS1604589564275","","null","","","","","","","","","","","","<img src=images/blank.png width =""500"" height = ""500"" style=""border:5px solid black"">","","",""
"","149.4300000013318","stimulus-presentation","251","470627","0.0-20.0-1.18","SS1604589564275","<img src='images/simple/7.png' width ='500' height = '500' style='border:5px solid black'>","40","all_simple","images/simple/17.png","images/simple/7.png","images/simple/5.png,images/simple/9.png,images/simple/2.png,images/simple/1.png,images/simple/16.png,images/simple/4.png,images/simple/15.png","2","null","","200","349.4300000013318","","","","background","",""
"","null","html-keyboard-response","252","471866","0.0-20.0-0.19","SS1604589564275","","null","","","","","","","","","","","","<img src=images/blank.png width =""500"" height = ""500"" style=""border:5px solid black"">","","",""
"","67.94500000250991","stimulus-presentation","253","472140","0.0-20.0-1.19","SS1604589564275","<img src='images/simple/7.png' width ='500' height = '500' style='border:5px solid black'>","40","all_simple","images/simple/17.png","images/simple/7.png","images/simple/5.png,images/simple/9.png,images/simple/2.png,images/simple/1.png,images/simple/16.png,images/simple/4.png,images/simple/15.png","2","null","","200","267.9450000025099","","","","background","",""
"","null","html-keyboard-response","254","473370","0.0-20.0-0.20","SS1604589564275","","null","","","","","","","","","","","","<img src=images/blank.png width =""500"" height = ""500"" style=""border:5px solid black"">","","",""
"","59.685000000172295","stimulus-presentation","255","473643","0.0-20.0-1.20","SS1604589564275","<img src='images/simple/7.png' width ='500' height = '500' style='border:5px solid black'>","40","all_simple","images/simple/17.png","images/simple/7.png","images/simple/5.png,images/simple/9.png,images/simple/2.png,images/simple/1.png,images/simple/16.png,images/simple/4.png,images/simple/15.png","2","null","","200","259.6850000001723","","","","background","",""
"","null","html-keyboard-response","256","474889","0.0-20.0-0.21","SS1604589564275","","null","","","","","","","","","","","","<img src=images/blank.png width =""500"" height = ""500"" style=""border:5px solid black"">","","",""
"","140.3549999995157","stimulus-presentation","257","475236","0.0-20.0-1.21","SS1604589564275","<img src='images/simple/7.png' width ='500' height = '500' style='border:5px solid black'>","40","all_simple","images/simple/17.png","images/simple/7.png","images/simple/5.png,images/simple/9.png,images/simple/2.png,images/simple/1.png,images/simple/16.png,images/simple/4.png,images/simple/15.png","2","null","","200","340.3549999995157","","","","background","",""
"","null","html-keyboard-response","258","476539","0.0-20.0-0.22","SS1604589564275","","null","","","","","","","","","","","","<img src=images/blank.png width =""500"" height = ""500"" style=""border:5px solid black"">","","",""
"","109.79999999835854","stimulus-presentation","259","476859","0.0-20.0-1.22","SS1604589564275","<img src='images/simple/7.png' width ='500' height = '500' style='border:5px solid black'>","40","all_simple","images/simple/17.png","images/simple/7.png","images/simple/5.png,images/simple/9.png,images/simple/2.png,images/simple/1.png,images/simple/16.png,images/simple/4.png,images/simple/15.png","2","null","","200","309.79999999835854","","","","background","",""
"","null","html-keyboard-response","260","477951","0.0-20.0-0.23","SS1604589564275","","null","","","","","","","","","","","","<img src=images/blank.png width =""500"" height = ""500"" style=""border:5px solid black"">","","",""
"","141.8100000009872","stimulus-presentation","261","478299","0.0-20.0-1.23","SS1604589564275","<img src='images/simple/7.png' width ='500' height = '500' style='border:5px solid black'>","40","all_simple","images/simple/17.png","images/simple/7.png","images/simple/5.png,images/simple/9.png,images/simple/2.png,images/simple/1.png,images/simple/16.png,images/simple/4.png,images/simple/15.png","2","null","","200","341.8100000009872","","","","background","",""
"","null","html-keyboard-response","262","479362","0.0-20.0-0.24","SS1604589564275","","null","","","","","","","","","","","","<img src=images/blank.png width =""500"" height = ""500"" style=""border:5px solid black"">","","",""
"","277.40500000072643","stimulus-presentation","263","479853","0.0-20.0-1.24","SS1604589564275","<img src='images/simple/16.png' width ='500' height = '500' style='border:5px solid black'>","40","all_simple","images/simple/17.png","images/simple/7.png","images/simple/5.png,images/simple/9.png,images/simple/2.png,images/simple/1.png,images/simple/16.png,images/simple/4.png,images/simple/15.png","2","null","","200","477.40500000072643","","","","deviant","",""
"","null","html-keyboard-response","264","480806","0.0-20.0-0.25","SS1604589564275","","null","","","","","","","","","","","","<img src=images/blank.png width =""500"" height = ""500"" style=""border:5px solid black"">","","",""
"","207.7499999977881","stimulus-presentation","265","481221","0.0-20.0-1.25","SS1604589564275","<img src='images/simple/7.png' width ='500' height = '500' style='border:5px solid black'>","40","all_simple","images/simple/17.png","images/simple/7.png","images/simple/5.png,images/simple/9.png,images/simple/2.png,images/simple/1.png,images/simple/16.png,images/simple/4.png,images/simple/15.png","2","null","","200","407.7499999977881","","","","background","",""
"","null","html-keyboard-response","266","482295","0.0-20.0-0.26","SS1604589564275","","null","","","","","","","","","","","","<img src=images/blank.png width =""500"" height = ""500"" style=""border:5px solid black"">","","",""
"","130.0550000014482","stimulus-presentation","267","482635","0.0-20.0-1.26","SS1604589564275","<img src='images/simple/7.png' width ='500' height = '500' style='border:5px solid black'>","40","all_simple","images/simple/17.png","images/simple/7.png","images/simple/5.png,images/simple/9.png,images/simple/2.png,images/simple/1.png,images/simple/16.png,images/simple/4.png,images/simple/15.png","2","null","","200","330.0550000014482","","","","background","",""
"","null","html-keyboard-response","268","483619","0.0-20.0-0.27","SS1604589564275","","null","","","","","","","","","","","","<img src=images/blank.png width =""500"" height = ""500"" style=""border:5px solid black"">","","",""
"","110.44000000040978","stimulus-presentation","269","483940","0.0-20.0-1.27","SS1604589564275","<img src='images/simple/7.png' width ='500' height = '500' style='border:5px solid black'>","40","all_simple","images/simple/17.png","images/simple/7.png","images/simple/5.png,images/simple/9.png,images/simple/2.png,images/simple/1.png,images/simple/16.png,images/simple/4.png,images/simple/15.png","2","null","","200","310.4400000004098","","","","background","",""
"","null","html-keyboard-response","270","485059","0.0-20.0-0.28","SS1604589564275","","null","","","","","","","","","","","","<img src=images/blank.png width =""500"" height = ""500"" style=""border:5px solid black"">","","",""
"","109.83499999932246","stimulus-presentation","271","485379","0.0-20.0-1.28","SS1604589564275","<img src='images/simple/7.png' width ='500' height = '500' style='border:5px solid black'>","40","all_simple","images/simple/17.png","images/simple/7.png","images/simple/5.png,images/simple/9.png,images/simple/2.png,images/simple/1.png,images/simple/16.png,images/simple/4.png,images/simple/15.png","2","null","","200","309.83499999932246","","","","background","",""
"","null","html-keyboard-response","272","486527","0.0-20.0-0.29","SS1604589564275","","null","","","","","","","","","","","","<img src=images/blank.png width =""500"" height = ""500"" style=""border:5px solid black"">","","",""
"","533.3900000005378","stimulus-presentation","273","487276","0.0-20.0-1.29","SS1604589564275","<img src='images/simple/17.png' width ='500' height = '500' style='border:5px solid black'>","40","all_simple","images/simple/17.png","images/simple/7.png","images/simple/5.png,images/simple/9.png,images/simple/2.png,images/simple/1.png,images/simple/16.png,images/simple/4.png,images/simple/15.png","2","null","","200","733.3900000005378","yes","189.07499999844003","","target","",""
"","null","html-keyboard-response","274","488195","0.0-20.0-0.30","SS1604589564275","","null","","","","","","","","","","","","<img src=images/blank.png width =""500"" height = ""500"" style=""border:5px solid black"">","","",""
"","113.21999999927357","stimulus-presentation","275","488515","0.0-20.0-1.30","SS1604589564275","<img src='images/simple/2.png' width ='500' height = '500' style='border:5px solid black'>","40","all_simple","images/simple/17.png","images/simple/7.png","images/simple/5.png,images/simple/9.png,images/simple/2.png,images/simple/1.png,images/simple/16.png,images/simple/4.png,images/simple/15.png","2","null","","200","313.21999999927357","","","","deviant","",""
"","null","html-keyboard-response","276","489368","0.0-20.0-0.31","SS1604589564275","","null","","","","","","","","","","","","<img src=images/blank.png width =""500"" height = ""500"" style=""border:5px solid black"">","","",""
"","145.85499999887543","stimulus-presentation","277","489724","0.0-20.0-1.31","SS1604589564275","<img src='images/simple/7.png' width ='500' height = '500' style='border:5px solid black'>","40","all_simple","images/simple/17.png","images/simple/7.png","images/simple/5.png,images/simple/9.png,images/simple/2.png,images/simple/1.png,images/simple/16.png,images/simple/4.png,images/simple/15.png","2","null","","200","345.8549999988754","","","","background","",""
"","null","html-keyboard-response","278","490759","0.0-20.0-0.32","SS1604589564275","","null","","","","","","","","","","","","<img src=images/blank.png width =""500"" height = ""500"" style=""border:5px solid black"">","","",""
"","67.39999999990687","stimulus-presentation","279","491043","0.0-20.0-1.32","SS1604589564275","<img src='images/simple/7.png' width ='500' height = '500' style='border:5px solid black'>","40","all_simple","images/simple/17.png","images/simple/7.png","images/simple/5.png,images/simple/9.png,images/simple/2.png,images/simple/1.png,images/simple/16.png,images/simple/4.png,images/simple/15.png","2","null","","200","267.39999999990687","","","","background","",""
"","null","html-keyboard-response","280","491857","0.0-20.0-0.33","SS1604589564275","","null","","","","","","","","","","","","<img src=images/blank.png width =""500"" height = ""500"" style=""border:5px solid black"">","","",""
"","53.56000000028871","stimulus-presentation","281","492123","0.0-20.0-1.33","SS1604589564275","<img src='images/simple/7.png' width ='500' height = '500' style='border:5px solid black'>","40","all_simple","images/simple/17.png","images/simple/7.png","images/simple/5.png,images/simple/9.png,images/simple/2.png,images/simple/1.png,images/simple/16.png,images/simple/4.png,images/simple/15.png","2","null","","200","253.5600000002887","","","","background","",""
