view_history,rt,trial_type,trial_index,time_elapsed,internal_node_id,subject,trial_stimulus,key_press,task_type,task_target_stimulus,task_background_stimulus,task_deviant_stimuli,task_order_number,block_order_number,trial_order_number,minimum_viewing_duration,trial_looking_time,trial_pressed_space_bar,trial_space_bar_rt,stimulus,trial_stimulus_type,responses,question_order
"[{""page_index"":0,""viewing_time"":15311.419999983627},{""page_index"":1,""viewing_time"":489.5850000320934},{""page_index"":2,""viewing_time"":600.2849999931641},{""page_index"":3,""viewing_time"":592.1099999686703},{""page_index"":4,""viewing_time"":639.5849999971688},{""page_index"":5,""viewing_time"":480.1350000197999},{""page_index"":6,""viewing_time"":495.8350000088103},{""page_index"":7,""viewing_time"":456.18999999715015}]",19066.395,instructions,0,19069,0.0-0.0,SS1602727692346,,,,,,,,,,,,,,,,,
"[{""page_index"":0,""viewing_time"":915.1050000218675},{""page_index"":1,""viewing_time"":1424.1699999547563},{""page_index"":2,""viewing_time"":3031.4100000541657}]",5371.16,instructions,1,24444,0.0-1.0,SS1602727692346,,,,,,,,,,,,,,,,,
,537.48,practice-block,2,25591,0.0-2.0,SS1602727692346,<img src='images/practice/practice_background.jpeg' width ='500' height = '500' style='border:5px solid black'>,40,null,images/practice/practice_target.jpg,null,null,null,null,,600,1137.48,,,,,,
,null,html-keyboard-response,3,26769,0.0-3.0,SS1602727692346,,null,,,,,,,,,,,,"<img src=images/blank.png width =""500"" height = ""500"" style=""border:5px solid black"">",,,
,297.5,practice-block,4,27672,0.0-4.0,SS1602727692346,<img src='images/practice/practice_background.jpeg' width ='500' height = '500' style='border:5px solid black'>,40,null,images/practice/practice_target.jpg,null,null,null,null,,600,897.5,,,,,,
,null,html-keyboard-response,5,28844,0.0-5.0,SS1602727692346,,null,,,,,,,,,,,,"<img src=images/blank.png width =""500"" height = ""500"" style=""border:5px solid black"">",,,
,273.54,practice-block,6,29722,0.0-6.0,SS1602727692346,<img src='images/practice/practice_deviant.jpeg' width ='500' height = '500' style='border:5px solid black'>,40,null,images/practice/practice_target.jpg,null,null,null,null,,600,873.54,,,,,,
,null,html-keyboard-response,7,30897,0.0-7.0,SS1602727692346,,null,,,,,,,,,,,,"<img src=images/blank.png width =""500"" height = ""500"" style=""border:5px solid black"">",,,
,3630.015,practice-block,8,35136,0.0-8.0-0.0,SS1602727692346,<img src='images/practice/practice_target.jpg' width ='500' height = '500' style='border:5px solid black'>,40,null,images/practice/practice_target.jpg,null,null,null,null,,600,4230.015,yes,701.65,,,,
,null,html-keyboard-response,9,36327,0.0-9.0,SS1602727692346,,null,,,,,,,,,,,,"<img src=images/blank.png width =""500"" height = ""500"" style=""border:5px solid black"">",,,
,74.61499999,practice-block,10,37009,0.0-10.0,SS1602727692346,<img src='images/practice/practice_background.jpeg' width ='500' height = '500' style='border:5px solid black'>,40,null,images/practice/practice_target.jpg,null,null,null,null,,600,674.615,,,,,,
"[{""page_index"":0,""viewing_time"":1695}]",1695,task-instructions,11,38706,0.0-11.0,SS1602727692346,,,,,,,,,,,,,,,,,
,null,html-keyboard-response,12,39812,0.0-12.0-0.0,SS1602727692346,,null,,,,,,,,,,,,"<img src=images/blank.png width =""500"" height = ""500"" style=""border:5px solid black"">",,,
,387.805,stimulus-presentation,13,40807,0.0-12.0-1.0,SS1602727692346,<img src='images/simple/98.png' width ='500' height = '500' style='border:5px solid black'>,40,mixed_complex_deviant,images/simple/46.png,images/simple/98.png,"images/complex/72.png,images/complex/21.png,images/complex/87.png,images/complex/80.png,images/complex/74.png,images/complex/48.png,images/complex/15.png,images/complex/9.png,images/complex/11.png",0,null,,600,987.805,,,,background,,
,null,html-keyboard-response,14,41962,0.0-12.0-0.1,SS1602727692346,,null,,,,,,,,,,,,"<img src=images/blank.png width =""500"" height = ""500"" style=""border:5px solid black"">",,,
,26.75999998,stimulus-presentation,15,42598,0.0-12.0-1.1,SS1602727692346,<img src='images/complex/21.png' width ='500' height = '500' style='border:5px solid black'>,40,mixed_complex_deviant,images/simple/46.png,images/simple/98.png,"images/complex/72.png,images/complex/21.png,images/complex/87.png,images/complex/80.png,images/complex/74.png,images/complex/48.png,images/complex/15.png,images/complex/9.png,images/complex/11.png",0,null,,600,626.76,,,,deviant,,
,null,html-keyboard-response,16,43883,0.0-12.0-0.2,SS1602727692346,,null,,,,,,,,,,,,"<img src=images/blank.png width =""500"" height = ""500"" style=""border:5px solid black"">",,,
,344.495,stimulus-presentation,17,44831,0.0-12.0-1.2,SS1602727692346,<img src='images/simple/98.png' width ='500' height = '500' style='border:5px solid black'>,40,mixed_complex_deviant,images/simple/46.png,images/simple/98.png,"images/complex/72.png,images/complex/21.png,images/complex/87.png,images/complex/80.png,images/complex/74.png,images/complex/48.png,images/complex/15.png,images/complex/9.png,images/complex/11.png",0,null,,600,944.495,,,,background,,
,null,html-keyboard-response,18,45815,0.0-12.0-0.3,SS1602727692346,,null,,,,,,,,,,,,"<img src=images/blank.png width =""500"" height = ""500"" style=""border:5px solid black"">",,,
,198.365,stimulus-presentation,19,46622,0.0-12.0-1.3,SS1602727692346,<img src='images/simple/98.png' width ='500' height = '500' style='border:5px solid black'>,40,mixed_complex_deviant,images/simple/46.png,images/simple/98.png,"images/complex/72.png,images/complex/21.png,images/complex/87.png,images/complex/80.png,images/complex/74.png,images/complex/48.png,images/complex/15.png,images/complex/9.png,images/complex/11.png",0,null,,600,798.365,,,,background,,
,null,html-keyboard-response,20,47462,0.0-12.0-0.4,SS1602727692346,,null,,,,,,,,,,,,"<img src=images/blank.png width =""500"" height = ""500"" style=""border:5px solid black"">",,,
,41.43500002,stimulus-presentation,21,48114,0.0-12.0-1.4,SS1602727692346,<img src='images/complex/72.png' width ='500' height = '500' style='border:5px solid black'>,40,mixed_complex_deviant,images/simple/46.png,images/simple/98.png,"images/complex/72.png,images/complex/21.png,images/complex/87.png,images/complex/80.png,images/complex/74.png,images/complex/48.png,images/complex/15.png,images/complex/9.png,images/complex/11.png",0,null,,600,641.435,,,,deviant,,
,null,html-keyboard-response,22,48935,0.0-12.0-0.5,SS1602727692346,,null,,,,,,,,,,,,"<img src=images/blank.png width =""500"" height = ""500"" style=""border:5px solid black"">",,,
,5573.495,stimulus-presentation,23,55115,0.0-12.0-1.5,SS1602727692346,<img src='images/simple/98.png' width ='500' height = '500' style='border:5px solid black'>,40,mixed_complex_deviant,images/simple/46.png,images/simple/98.png,"images/complex/72.png,images/complex/21.png,images/complex/87.png,images/complex/80.png,images/complex/74.png,images/complex/48.png,images/complex/15.png,images/complex/9.png,images/complex/11.png",0,null,,600,6173.495,,,,background,,
,null,html-keyboard-response,24,55981,0.0-12.0-0.6,SS1602727692346,,null,,,,,,,,,,,,"<img src=images/blank.png width =""500"" height = ""500"" style=""border:5px solid black"">",,,
,128.245,stimulus-presentation,25,56717,0.0-12.0-1.6,SS1602727692346,<img src='images/simple/98.png' width ='500' height = '500' style='border:5px solid black'>,40,mixed_complex_deviant,images/simple/46.png,images/simple/98.png,"images/complex/72.png,images/complex/21.png,images/complex/87.png,images/complex/80.png,images/complex/74.png,images/complex/48.png,images/complex/15.png,images/complex/9.png,images/complex/11.png",0,null,,600,728.245,,,,background,,
,null,html-keyboard-response,26,57627,0.0-12.0-0.7,SS1602727692346,,null,,,,,,,,,,,,"<img src=images/blank.png width =""500"" height = ""500"" style=""border:5px solid black"">",,,
,49.02500001,stimulus-presentation,27,58283,0.0-12.0-1.7,SS1602727692346,<img src='images/simple/46.png' width ='500' height = '500' style='border:5px solid black'>,40,mixed_complex_deviant,images/simple/46.png,images/simple/98.png,"images/complex/72.png,images/complex/21.png,images/complex/87.png,images/complex/80.png,images/complex/74.png,images/complex/48.png,images/complex/15.png,images/complex/9.png,images/complex/11.png",0,null,,600,649.025,,,,target,,
,null,html-keyboard-response,28,59149,0.0-12.0-0.8,SS1602727692346,,null,,,,,,,,,,,,"<img src=images/blank.png width =""500"" height = ""500"" style=""border:5px solid black"">",,,
,21.07999998,stimulus-presentation,29,59776,0.0-12.0-1.8,SS1602727692346,<img src='images/simple/46.png' width ='500' height = '500' style='border:5px solid black'>,40,mixed_complex_deviant,images/simple/46.png,images/simple/98.png,"images/complex/72.png,images/complex/21.png,images/complex/87.png,images/complex/80.png,images/complex/74.png,images/complex/48.png,images/complex/15.png,images/complex/9.png,images/complex/11.png",0,null,,600,621.08,,,,target,,
,null,html-keyboard-response,30,61062,0.0-12.0-0.9,SS1602727692346,,null,,,,,,,,,,,,"<img src=images/blank.png width =""500"" height = ""500"" style=""border:5px solid black"">",,,
,155.165,stimulus-presentation,31,61823,0.0-12.0-1.9,SS1602727692346,<img src='images/complex/80.png' width ='500' height = '500' style='border:5px solid black'>,40,mixed_complex_deviant,images/simple/46.png,images/simple/98.png,"images/complex/72.png,images/complex/21.png,images/complex/87.png,images/complex/80.png,images/complex/74.png,images/complex/48.png,images/complex/15.png,images/complex/9.png,images/complex/11.png",0,null,,600,755.165,,,,deviant,,
,null,html-keyboard-response,32,62813,0.0-12.0-0.10,SS1602727692346,,null,,,,,,,,,,,,"<img src=images/blank.png width =""500"" height = ""500"" style=""border:5px solid black"">",,,
,2.635000041,stimulus-presentation,33,63424,0.0-12.0-1.10,SS1602727692346,<img src='images/simple/98.png' width ='500' height = '500' style='border:5px solid black'>,40,mixed_complex_deviant,images/simple/46.png,images/simple/98.png,"images/complex/72.png,images/complex/21.png,images/complex/87.png,images/complex/80.png,images/complex/74.png,images/complex/48.png,images/complex/15.png,images/complex/9.png,images/complex/11.png",0,null,,600,602.635,,,,background,,
,null,html-keyboard-response,34,64563,0.0-12.0-0.11,SS1602727692346,,null,,,,,,,,,,,,"<img src=images/blank.png width =""500"" height = ""500"" style=""border:5px solid black"">",,,
,354.785,stimulus-presentation,35,65528,0.0-12.0-1.11,SS1602727692346,<img src='images/simple/98.png' width ='500' height = '500' style='border:5px solid black'>,40,mixed_complex_deviant,images/simple/46.png,images/simple/98.png,"images/complex/72.png,images/complex/21.png,images/complex/87.png,images/complex/80.png,images/complex/74.png,images/complex/48.png,images/complex/15.png,images/complex/9.png,images/complex/11.png",0,null,,600,954.785,,,,background,,
,null,html-keyboard-response,36,66530,0.0-12.0-0.12,SS1602727692346,,null,,,,,,,,,,,,"<img src=images/blank.png width =""500"" height = ""500"" style=""border:5px solid black"">",,,
,159.44,stimulus-presentation,37,67296,0.0-12.0-1.12,SS1602727692346,<img src='images/simple/98.png' width ='500' height = '500' style='border:5px solid black'>,40,mixed_complex_deviant,images/simple/46.png,images/simple/98.png,"images/complex/72.png,images/complex/21.png,images/complex/87.png,images/complex/80.png,images/complex/74.png,images/complex/48.png,images/complex/15.png,images/complex/9.png,images/complex/11.png",0,null,,600,759.44,,,,background,,
,null,html-keyboard-response,38,68316,0.0-12.0-0.13,SS1602727692346,,null,,,,,,,,,,,,"<img src=images/blank.png width =""500"" height = ""500"" style=""border:5px solid black"">",,,
,546.95,stimulus-presentation,39,69473,0.0-12.0-1.13,SS1602727692346,<img src='images/simple/98.png' width ='500' height = '500' style='border:5px solid black'>,40,mixed_complex_deviant,images/simple/46.png,images/simple/98.png,"images/complex/72.png,images/complex/21.png,images/complex/87.png,images/complex/80.png,images/complex/74.png,images/complex/48.png,images/complex/15.png,images/complex/9.png,images/complex/11.png",0,null,,600,1146.95,,,,background,,
,null,html-keyboard-response,40,70399,0.0-12.0-0.14,SS1602727692346,,null,,,,,,,,,,,,"<img src=images/blank.png width =""500"" height = ""500"" style=""border:5px solid black"">",,,
,258.805,stimulus-presentation,41,71264,0.0-12.0-1.14,SS1602727692346,<img src='images/simple/98.png' width ='500' height = '500' style='border:5px solid black'>,40,mixed_complex_deviant,images/simple/46.png,images/simple/98.png,"images/complex/72.png,images/complex/21.png,images/complex/87.png,images/complex/80.png,images/complex/74.png,images/complex/48.png,images/complex/15.png,images/complex/9.png,images/complex/11.png",0,null,,600,858.805,,,,background,,
,null,html-keyboard-response,42,72483,0.0-12.0-0.15,SS1602727692346,,null,,,,,,,,,,,,"<img src=images/blank.png width =""500"" height = ""500"" style=""border:5px solid black"">",,,
,634.905,stimulus-presentation,43,73727,0.0-12.0-1.15,SS1602727692346,<img src='images/complex/15.png' width ='500' height = '500' style='border:5px solid black'>,40,mixed_complex_deviant,images/simple/46.png,images/simple/98.png,"images/complex/72.png,images/complex/21.png,images/complex/87.png,images/complex/80.png,images/complex/74.png,images/complex/48.png,images/complex/15.png,images/complex/9.png,images/complex/11.png",0,null,,600,1234.905,,,,deviant,,
,null,html-keyboard-response,44,75013,0.0-12.0-0.16,SS1602727692346,,null,,,,,,,,,,,,"<img src=images/blank.png width =""500"" height = ""500"" style=""border:5px solid black"">",,,
,622.795,stimulus-presentation,45,76241,0.0-12.0-1.16,SS1602727692346,<img src='images/simple/98.png' width ='500' height = '500' style='border:5px solid black'>,40,mixed_complex_deviant,images/simple/46.png,images/simple/98.png,"images/complex/72.png,images/complex/21.png,images/complex/87.png,images/complex/80.png,images/complex/74.png,images/complex/48.png,images/complex/15.png,images/complex/9.png,images/complex/11.png",0,null,,600,1222.795,,,,background,,
,null,html-keyboard-response,46,77399,0.0-12.0-0.17,SS1602727692346,,null,,,,,,,,,,,,"<img src=images/blank.png width =""500"" height = ""500"" style=""border:5px solid black"">",,,
,2692.965,stimulus-presentation,47,80700,0.0-12.0-1.17,SS1602727692346,<img src='images/simple/46.png' width ='500' height = '500' style='border:5px solid black'>,40,mixed_complex_deviant,images/simple/46.png,images/simple/98.png,"images/complex/72.png,images/complex/21.png,images/complex/87.png,images/complex/80.png,images/complex/74.png,images/complex/48.png,images/complex/15.png,images/complex/9.png,images/complex/11.png",0,null,,600,3292.965,,,,target,,
,null,html-keyboard-response,48,81755,0.0-12.0-0.18,SS1602727692346,,null,,,,,,,,,,,,"<img src=images/blank.png width =""500"" height = ""500"" style=""border:5px solid black"">",,,
,1608.34,stimulus-presentation,49,83972,0.0-12.0-1.18,SS1602727692346,<img src='images/simple/98.png' width ='500' height = '500' style='border:5px solid black'>,40,mixed_complex_deviant,images/simple/46.png,images/simple/98.png,"images/complex/72.png,images/complex/21.png,images/complex/87.png,images/complex/80.png,images/complex/74.png,images/complex/48.png,images/complex/15.png,images/complex/9.png,images/complex/11.png",0,null,,600,2208.34,,,,background,,
,null,html-keyboard-response,50,85049,0.0-12.0-0.19,SS1602727692346,,null,,,,,,,,,,,,"<img src=images/blank.png width =""500"" height = ""500"" style=""border:5px solid black"">",,,
,62.19500001,stimulus-presentation,51,85719,0.0-12.0-1.19,SS1602727692346,<img src='images/simple/98.png' width ='500' height = '500' style='border:5px solid black'>,40,mixed_complex_deviant,images/simple/46.png,images/simple/98.png,"images/complex/72.png,images/complex/21.png,images/complex/87.png,images/complex/80.png,images/complex/74.png,images/complex/48.png,images/complex/15.png,images/complex/9.png,images/complex/11.png",0,null,,600,662.195,,,,background,,
,null,html-keyboard-response,52,86543,0.0-12.0-0.20,SS1602727692346,,null,,,,,,,,,,,,"<img src=images/blank.png width =""500"" height = ""500"" style=""border:5px solid black"">",,,
,310.62,stimulus-presentation,53,87461,0.0-12.0-1.20,SS1602727692346,<img src='images/simple/98.png' width ='500' height = '500' style='border:5px solid black'>,40,mixed_complex_deviant,images/simple/46.png,images/simple/98.png,"images/complex/72.png,images/complex/21.png,images/complex/87.png,images/complex/80.png,images/complex/74.png,images/complex/48.png,images/complex/15.png,images/complex/9.png,images/complex/11.png",0,null,,600,910.62,,,,background,,
,null,html-keyboard-response,54,88466,0.0-12.0-0.21,SS1602727692346,,null,,,,,,,,,,,,"<img src=images/blank.png width =""500"" height = ""500"" style=""border:5px solid black"">",,,
,4627.68,stimulus-presentation,55,93701,0.0-12.0-1.21,SS1602727692346,<img src='images/simple/98.png' width ='500' height = '500' style='border:5px solid black'>,40,mixed_complex_deviant,images/simple/46.png,images/simple/98.png,"images/complex/72.png,images/complex/21.png,images/complex/87.png,images/complex/80.png,images/complex/74.png,images/complex/48.png,images/complex/15.png,images/complex/9.png,images/complex/11.png",0,null,,600,5227.68,,,,background,,
,null,html-keyboard-response,56,94694,0.0-12.0-0.22,SS1602727692346,,null,,,,,,,,,,,,"<img src=images/blank.png width =""500"" height = ""500"" style=""border:5px solid black"">",,,
,69.09499998,stimulus-presentation,57,95369,0.0-12.0-1.22,SS1602727692346,<img src='images/simple/98.png' width ='500' height = '500' style='border:5px solid black'>,40,mixed_complex_deviant,images/simple/46.png,images/simple/98.png,"images/complex/72.png,images/complex/21.png,images/complex/87.png,images/complex/80.png,images/complex/74.png,images/complex/48.png,images/complex/15.png,images/complex/9.png,images/complex/11.png",0,null,,600,669.095,,,,background,,
,null,html-keyboard-response,58,96300,0.0-12.0-0.23,SS1602727692346,,null,,,,,,,,,,,,"<img src=images/blank.png width =""500"" height = ""500"" style=""border:5px solid black"">",,,
,214.975,stimulus-presentation,59,97121,0.0-12.0-1.23,SS1602727692346,<img src='images/simple/98.png' width ='500' height = '500' style='border:5px solid black'>,40,mixed_complex_deviant,images/simple/46.png,images/simple/98.png,"images/complex/72.png,images/complex/21.png,images/complex/87.png,images/complex/80.png,images/complex/74.png,images/complex/48.png,images/complex/15.png,images/complex/9.png,images/complex/11.png",0,null,,600,814.975,,,,background,,
,null,html-keyboard-response,60,98399,0.0-12.0-0.24,SS1602727692346,,null,,,,,,,,,,,,"<img src=images/blank.png width =""500"" height = ""500"" style=""border:5px solid black"">",,,
,339.595,stimulus-presentation,61,99346,0.0-12.0-1.24,SS1602727692346,<img src='images/complex/87.png' width ='500' height = '500' style='border:5px solid black'>,40,mixed_complex_deviant,images/simple/46.png,images/simple/98.png,"images/complex/72.png,images/complex/21.png,images/complex/87.png,images/complex/80.png,images/complex/74.png,images/complex/48.png,images/complex/15.png,images/complex/9.png,images/complex/11.png",0,null,,600,939.595,,,,deviant,,
,null,html-keyboard-response,62,100271,0.0-12.0-0.25,SS1602727692346,,null,,,,,,,,,,,,"<img src=images/blank.png width =""500"" height = ""500"" style=""border:5px solid black"">",,,
,551.66,stimulus-presentation,63,101431,0.0-12.0-1.25,SS1602727692346,<img src='images/simple/98.png' width ='500' height = '500' style='border:5px solid black'>,40,mixed_complex_deviant,images/simple/46.png,images/simple/98.png,"images/complex/72.png,images/complex/21.png,images/complex/87.png,images/complex/80.png,images/complex/74.png,images/complex/48.png,images/complex/15.png,images/complex/9.png,images/complex/11.png",0,null,,600,1151.66,,,,background,,
,null,html-keyboard-response,64,102276,0.0-12.0-0.26,SS1602727692346,,null,,,,,,,,,,,,"<img src=images/blank.png width =""500"" height = ""500"" style=""border:5px solid black"">",,,
,4.145000014,stimulus-presentation,65,102888,0.0-12.0-1.26,SS1602727692346,<img src='images/simple/46.png' width ='500' height = '500' style='border:5px solid black'>,40,mixed_complex_deviant,images/simple/46.png,images/simple/98.png,"images/complex/72.png,images/complex/21.png,images/complex/87.png,images/complex/80.png,images/complex/74.png,images/complex/48.png,images/complex/15.png,images/complex/9.png,images/complex/11.png",0,null,,600,604.145,,,,target,,
,null,html-keyboard-response,66,103755,0.0-12.0-0.27,SS1602727692346,,null,,,,,,,,,,,,"<img src=images/blank.png width =""500"" height = ""500"" style=""border:5px solid black"">",,,
,1217.2,stimulus-presentation,67,105581,0.0-12.0-1.27,SS1602727692346,<img src='images/simple/46.png' width ='500' height = '500' style='border:5px solid black'>,40,mixed_complex_deviant,images/simple/46.png,images/simple/98.png,"images/complex/72.png,images/complex/21.png,images/complex/87.png,images/complex/80.png,images/complex/74.png,images/complex/48.png,images/complex/15.png,images/complex/9.png,images/complex/11.png",0,null,,600,1817.2,,,,target,,
,null,html-keyboard-response,68,106719,0.0-12.0-0.28,SS1602727692346,,null,,,,,,,,,,,,"<img src=images/blank.png width =""500"" height = ""500"" style=""border:5px solid black"">",,,
,310.13,stimulus-presentation,69,107640,0.0-12.0-1.28,SS1602727692346,<img src='images/simple/98.png' width ='500' height = '500' style='border:5px solid black'>,40,mixed_complex_deviant,images/simple/46.png,images/simple/98.png,"images/complex/72.png,images/complex/21.png,images/complex/87.png,images/complex/80.png,images/complex/74.png,images/complex/48.png,images/complex/15.png,images/complex/9.png,images/complex/11.png",0,null,,600,910.13,,,,background,,
,null,html-keyboard-response,70,108538,0.0-12.0-0.29,SS1602727692346,,null,,,,,,,,,,,,"<img src=images/blank.png width =""500"" height = ""500"" style=""border:5px solid black"">",,,
,22.65499998,stimulus-presentation,71,109168,0.0-12.0-1.29,SS1602727692346,<img src='images/simple/98.png' width ='500' height = '500' style='border:5px solid black'>,40,mixed_complex_deviant,images/simple/46.png,images/simple/98.png,"images/complex/72.png,images/complex/21.png,images/complex/87.png,images/complex/80.png,images/complex/74.png,images/complex/48.png,images/complex/15.png,images/complex/9.png,images/complex/11.png",0,null,,600,622.655,,,,background,,
,null,html-keyboard-response,72,110328,0.0-12.0-0.30,SS1602727692346,,null,,,,,,,,,,,,"<img src=images/blank.png width =""500"" height = ""500"" style=""border:5px solid black"">",,,
,366.38,stimulus-presentation,73,111304,0.0-12.0-1.30,SS1602727692346,<img src='images/simple/98.png' width ='500' height = '500' style='border:5px solid black'>,40,mixed_complex_deviant,images/simple/46.png,images/simple/98.png,"images/complex/72.png,images/complex/21.png,images/complex/87.png,images/complex/80.png,images/complex/74.png,images/complex/48.png,images/complex/15.png,images/complex/9.png,images/complex/11.png",0,null,,600,966.38,,,,background,,
,null,html-keyboard-response,74,112388,0.0-12.0-0.31,SS1602727692346,,null,,,,,,,,,,,,"<img src=images/blank.png width =""500"" height = ""500"" style=""border:5px solid black"">",,,
,1031.62,stimulus-presentation,75,114026,0.0-12.0-1.31,SS1602727692346,<img src='images/simple/98.png' width ='500' height = '500' style='border:5px solid black'>,40,mixed_complex_deviant,images/simple/46.png,images/simple/98.png,"images/complex/72.png,images/complex/21.png,images/complex/87.png,images/complex/80.png,images/complex/74.png,images/complex/48.png,images/complex/15.png,images/complex/9.png,images/complex/11.png",0,null,,600,1631.62,,,,background,,
,null,html-keyboard-response,76,115006,0.0-12.0-0.32,SS1602727692346,,null,,,,,,,,,,,,"<img src=images/blank.png width =""500"" height = ""500"" style=""border:5px solid black"">",,,
,1554.91,stimulus-presentation,77,117169,0.0-12.0-1.32,SS1602727692346,<img src='images/simple/98.png' width ='500' height = '500' style='border:5px solid black'>,40,mixed_complex_deviant,images/simple/46.png,images/simple/98.png,"images/complex/72.png,images/complex/21.png,images/complex/87.png,images/complex/80.png,images/complex/74.png,images/complex/48.png,images/complex/15.png,images/complex/9.png,images/complex/11.png",0,null,,600,2154.91,,,,background,,
,null,html-keyboard-response,78,118049,0.0-12.0-0.33,SS1602727692346,,null,,,,,,,,,,,,"<img src=images/blank.png width =""500"" height = ""500"" style=""border:5px solid black"">",,,
,2428.535,stimulus-presentation,79,121090,0.0-12.0-1.33,SS1602727692346,<img src='images/complex/9.png' width ='500' height = '500' style='border:5px solid black'>,40,mixed_complex_deviant,images/simple/46.png,images/simple/98.png,"images/complex/72.png,images/complex/21.png,images/complex/87.png,images/complex/80.png,images/complex/74.png,images/complex/48.png,images/complex/15.png,images/complex/9.png,images/complex/11.png",0,null,,600,3028.535,,,,deviant,,
,null,html-keyboard-response,80,122383,0.0-12.0-0.34,SS1602727692346,,null,,,,,,,,,,,,"<img src=images/blank.png width =""500"" height = ""500"" style=""border:5px solid black"">",,,
,170.31,stimulus-presentation,81,123163,0.0-12.0-1.34,SS1602727692346,<img src='images/simple/46.png' width ='500' height = '500' style='border:5px solid black'>,40,mixed_complex_deviant,images/simple/46.png,images/simple/98.png,"images/complex/72.png,images/complex/21.png,images/complex/87.png,images/complex/80.png,images/complex/74.png,images/complex/48.png,images/complex/15.png,images/complex/9.png,images/complex/11.png",0,null,,600,770.31,,,,target,,
,null,html-keyboard-response,82,124092,0.0-12.0-0.35,SS1602727692346,,null,,,,,,,,,,,,"<img src=images/blank.png width =""500"" height = ""500"" style=""border:5px solid black"">",,,
,218.895,stimulus-presentation,83,124920,0.0-12.0-1.35,SS1602727692346,<img src='images/complex/74.png' width ='500' height = '500' style='border:5px solid black'>,40,mixed_complex_deviant,images/simple/46.png,images/simple/98.png,"images/complex/72.png,images/complex/21.png,images/complex/87.png,images/complex/80.png,images/complex/74.png,images/complex/48.png,images/complex/15.png,images/complex/9.png,images/complex/11.png",0,null,,600,818.895,,,,deviant,,
,null,html-keyboard-response,84,125978,0.0-12.0-0.36,SS1602727692346,,null,,,,,,,,,,,,"<img src=images/blank.png width =""500"" height = ""500"" style=""border:5px solid black"">",,,
,2233.84,stimulus-presentation,85,128820,0.0-12.0-1.36,SS1602727692346,<img src='images/simple/98.png' width ='500' height = '500' style='border:5px solid black'>,40,mixed_complex_deviant,images/simple/46.png,images/simple/98.png,"images/complex/72.png,images/complex/21.png,images/complex/87.png,images/complex/80.png,images/complex/74.png,images/complex/48.png,images/complex/15.png,images/complex/9.png,images/complex/11.png",0,null,,600,2833.84,,,,background,,
,null,html-keyboard-response,86,130016,0.0-12.0-0.37,SS1602727692346,,null,,,,,,,,,,,,"<img src=images/blank.png width =""500"" height = ""500"" style=""border:5px solid black"">",,,
,841.635,stimulus-presentation,87,131466,0.0-12.0-1.37,SS1602727692346,<img src='images/simple/98.png' width ='500' height = '500' style='border:5px solid black'>,40,mixed_complex_deviant,images/simple/46.png,images/simple/98.png,"images/complex/72.png,images/complex/21.png,images/complex/87.png,images/complex/80.png,images/complex/74.png,images/complex/48.png,images/complex/15.png,images/complex/9.png,images/complex/11.png",0,null,,600,1441.635,,,,background,,
,null,html-keyboard-response,88,132599,0.0-12.0-0.38,SS1602727692346,,null,,,,,,,,,,,,"<img src=images/blank.png width =""500"" height = ""500"" style=""border:5px solid black"">",,,
,44.14999997,stimulus-presentation,89,133250,0.0-12.0-1.38,SS1602727692346,<img src='images/simple/98.png' width ='500' height = '500' style='border:5px solid black'>,40,mixed_complex_deviant,images/simple/46.png,images/simple/98.png,"images/complex/72.png,images/complex/21.png,images/complex/87.png,images/complex/80.png,images/complex/74.png,images/complex/48.png,images/complex/15.png,images/complex/9.png,images/complex/11.png",0,null,,600,644.15,,,,background,,
,null,html-keyboard-response,90,134501,0.0-12.0-0.39,SS1602727692346,,null,,,,,,,,,,,,"<img src=images/blank.png width =""500"" height = ""500"" style=""border:5px solid black"">",,,
,1081.225,stimulus-presentation,91,136191,0.0-12.0-1.39,SS1602727692346,<img src='images/simple/98.png' width ='500' height = '500' style='border:5px solid black'>,40,mixed_complex_deviant,images/simple/46.png,images/simple/98.png,"images/complex/72.png,images/complex/21.png,images/complex/87.png,images/complex/80.png,images/complex/74.png,images/complex/48.png,images/complex/15.png,images/complex/9.png,images/complex/11.png",0,null,,600,1681.225,,,,background,,
,null,html-keyboard-response,92,137428,0.0-12.0-0.40,SS1602727692346,,null,,,,,,,,,,,,"<img src=images/blank.png width =""500"" height = ""500"" style=""border:5px solid black"">",,,
,2111.53,stimulus-presentation,93,140151,0.0-12.0-1.40,SS1602727692346,<img src='images/simple/98.png' width ='500' height = '500' style='border:5px solid black'>,40,mixed_complex_deviant,images/simple/46.png,images/simple/98.png,"images/complex/72.png,images/complex/21.png,images/complex/87.png,images/complex/80.png,images/complex/74.png,images/complex/48.png,images/complex/15.png,images/complex/9.png,images/complex/11.png",0,null,,600,2711.53,,,,background,,
,null,html-keyboard-response,94,141136,0.0-12.0-0.41,SS1602727692346,,null,,,,,,,,,,,,"<img src=images/blank.png width =""500"" height = ""500"" style=""border:5px solid black"">",,,
,1105.805,stimulus-presentation,95,142849,0.0-12.0-1.41,SS1602727692346,<img src='images/simple/98.png' width ='500' height = '500' style='border:5px solid black'>,40,mixed_complex_deviant,images/simple/46.png,images/simple/98.png,"images/complex/72.png,images/complex/21.png,images/complex/87.png,images/complex/80.png,images/complex/74.png,images/complex/48.png,images/complex/15.png,images/complex/9.png,images/complex/11.png",0,null,,600,1705.805,,,,background,,
,null,html-keyboard-response,96,143914,0.0-12.0-0.42,SS1602727692346,,null,,,,,,,,,,,,"<img src=images/blank.png width =""500"" height = ""500"" style=""border:5px solid black"">",,,
,214.22,stimulus-presentation,97,144737,0.0-12.0-1.42,SS1602727692346,<img src='images/complex/48.png' width ='500' height = '500' style='border:5px solid black'>,40,mixed_complex_deviant,images/simple/46.png,images/simple/98.png,"images/complex/72.png,images/complex/21.png,images/complex/87.png,images/complex/80.png,images/complex/74.png,images/complex/48.png,images/complex/15.png,images/complex/9.png,images/complex/11.png",0,null,,600,814.22,,,,deviant,,
,null,html-keyboard-response,98,145672,0.0-12.0-0.43,SS1602727692346,,null,,,,,,,,,,,,"<img src=images/blank.png width =""500"" height = ""500"" style=""border:5px solid black"">",,,
,864.735,stimulus-presentation,99,147148,0.0-12.0-1.43,SS1602727692346,<img src='images/simple/98.png' width ='500' height = '500' style='border:5px solid black'>,40,mixed_complex_deviant,images/simple/46.png,images/simple/98.png,"images/complex/72.png,images/complex/21.png,images/complex/87.png,images/complex/80.png,images/complex/74.png,images/complex/48.png,images/complex/15.png,images/complex/9.png,images/complex/11.png",0,null,,600,1464.735,,,,background,,
,null,html-keyboard-response,100,148439,0.0-12.0-0.44,SS1602727692346,,null,,,,,,,,,,,,"<img src=images/blank.png width =""500"" height = ""500"" style=""border:5px solid black"">",,,
,543.405,stimulus-presentation,101,149594,0.0-12.0-1.44,SS1602727692346,<img src='images/simple/98.png' width ='500' height = '500' style='border:5px solid black'>,40,mixed_complex_deviant,images/simple/46.png,images/simple/98.png,"images/complex/72.png,images/complex/21.png,images/complex/87.png,images/complex/80.png,images/complex/74.png,images/complex/48.png,images/complex/15.png,images/complex/9.png,images/complex/11.png",0,null,,600,1143.405,,,,background,,
,null,html-keyboard-response,102,150540,0.0-12.0-0.45,SS1602727692346,,null,,,,,,,,,,,,"<img src=images/blank.png width =""500"" height = ""500"" style=""border:5px solid black"">",,,
,942.365,stimulus-presentation,103,152093,0.0-12.0-1.45,SS1602727692346,<img src='images/simple/98.png' width ='500' height = '500' style='border:5px solid black'>,40,mixed_complex_deviant,images/simple/46.png,images/simple/98.png,"images/complex/72.png,images/complex/21.png,images/complex/87.png,images/complex/80.png,images/complex/74.png,images/complex/48.png,images/complex/15.png,images/complex/9.png,images/complex/11.png",0,null,,600,1542.365,,,,background,,
,null,html-keyboard-response,104,153284,0.0-12.0-0.46,SS1602727692346,,null,,,,,,,,,,,,"<img src=images/blank.png width =""500"" height = ""500"" style=""border:5px solid black"">",,,
,462.99,stimulus-presentation,105,154355,0.0-12.0-1.46,SS1602727692346,<img src='images/simple/98.png' width ='500' height = '500' style='border:5px solid black'>,40,mixed_complex_deviant,images/simple/46.png,images/simple/98.png,"images/complex/72.png,images/complex/21.png,images/complex/87.png,images/complex/80.png,images/complex/74.png,images/complex/48.png,images/complex/15.png,images/complex/9.png,images/complex/11.png",0,null,,600,1062.99,,,,background,,
,null,html-keyboard-response,106,155328,0.0-12.0-0.47,SS1602727692346,,null,,,,,,,,,,,,"<img src=images/blank.png width =""500"" height = ""500"" style=""border:5px solid black"">",,,
,160.69,stimulus-presentation,107,156099,0.0-12.0-1.47,SS1602727692346,<img src='images/simple/98.png' width ='500' height = '500' style='border:5px solid black'>,40,mixed_complex_deviant,images/simple/46.png,images/simple/98.png,"images/complex/72.png,images/complex/21.png,images/complex/87.png,images/complex/80.png,images/complex/74.png,images/complex/48.png,images/complex/15.png,images/complex/9.png,images/complex/11.png",0,null,,600,760.69,,,,background,,
,null,html-keyboard-response,108,157383,0.0-12.0-0.48,SS1602727692346,,null,,,,,,,,,,,,"<img src=images/blank.png width =""500"" height = ""500"" style=""border:5px solid black"">",,,
,1644.695,stimulus-presentation,109,159635,0.0-12.0-1.48,SS1602727692346,<img src='images/simple/98.png' width ='500' height = '500' style='border:5px solid black'>,40,mixed_complex_deviant,images/simple/46.png,images/simple/98.png,"images/complex/72.png,images/complex/21.png,images/complex/87.png,images/complex/80.png,images/complex/74.png,images/complex/48.png,images/complex/15.png,images/complex/9.png,images/complex/11.png",0,null,,600,2244.695,,,,background,,
,null,html-keyboard-response,110,160720,0.0-12.0-0.49,SS1602727692346,,null,,,,,,,,,,,,"<img src=images/blank.png width =""500"" height = ""500"" style=""border:5px solid black"">",,,
,27.31999999,stimulus-presentation,111,161354,0.0-12.0-1.49,SS1602727692346,<img src='images/simple/98.png' width ='500' height = '500' style='border:5px solid black'>,40,mixed_complex_deviant,images/simple/46.png,images/simple/98.png,"images/complex/72.png,images/complex/21.png,images/complex/87.png,images/complex/80.png,images/complex/74.png,images/complex/48.png,images/complex/15.png,images/complex/9.png,images/complex/11.png",0,null,,600,627.32,,,,background,,
,null,html-keyboard-response,112,162598,0.0-12.0-0.50,SS1602727692346,,null,,,,,,,,,,,,"<img src=images/blank.png width =""500"" height = ""500"" style=""border:5px solid black"">",,,
,196.08,stimulus-presentation,113,163401,0.0-12.0-1.50,SS1602727692346,<img src='images/simple/98.png' width ='500' height = '500' style='border:5px solid black'>,40,mixed_complex_deviant,images/simple/46.png,images/simple/98.png,"images/complex/72.png,images/complex/21.png,images/complex/87.png,images/complex/80.png,images/complex/74.png,images/complex/48.png,images/complex/15.png,images/complex/9.png,images/complex/11.png",0,null,,600,796.08,,,,background,,
,null,html-keyboard-response,114,164646,0.0-12.0-0.51,SS1602727692346,,null,,,,,,,,,,,,"<img src=images/blank.png width =""500"" height = ""500"" style=""border:5px solid black"">",,,
,404.445,stimulus-presentation,115,165660,0.0-12.0-1.51,SS1602727692346,<img src='images/simple/98.png' width ='500' height = '500' style='border:5px solid black'>,40,mixed_complex_deviant,images/simple/46.png,images/simple/98.png,"images/complex/72.png,images/complex/21.png,images/complex/87.png,images/complex/80.png,images/complex/74.png,images/complex/48.png,images/complex/15.png,images/complex/9.png,images/complex/11.png",0,null,,600,1004.445,,,,background,,
,null,html-keyboard-response,116,166932,0.0-12.0-0.52,SS1602727692346,,null,,,,,,,,,,,,"<img src=images/blank.png width =""500"" height = ""500"" style=""border:5px solid black"">",,,
,261.04,stimulus-presentation,117,167802,0.0-12.0-1.52,SS1602727692346,<img src='images/complex/11.png' width ='500' height = '500' style='border:5px solid black'>,40,mixed_complex_deviant,images/simple/46.png,images/simple/98.png,"images/complex/72.png,images/complex/21.png,images/complex/87.png,images/complex/80.png,images/complex/74.png,images/complex/48.png,images/complex/15.png,images/complex/9.png,images/complex/11.png",0,null,,600,861.04,,,,deviant,,
,null,html-keyboard-response,118,169048,0.0-12.0-0.53,SS1602727692346,,null,,,,,,,,,,,,"<img src=images/blank.png width =""500"" height = ""500"" style=""border:5px solid black"">",,,
,1561.295,stimulus-presentation,119,171218,0.0-12.0-1.53,SS1602727692346,<img src='images/simple/98.png' width ='500' height = '500' style='border:5px solid black'>,40,mixed_complex_deviant,images/simple/46.png,images/simple/98.png,"images/complex/72.png,images/complex/21.png,images/complex/87.png,images/complex/80.png,images/complex/74.png,images/complex/48.png,images/complex/15.png,images/complex/9.png,images/complex/11.png",0,null,,600,2161.295,,,,background,,
,null,html-keyboard-response,120,172507,0.0-12.0-0.54,SS1602727692346,,null,,,,,,,,,,,,"<img src=images/blank.png width =""500"" height = ""500"" style=""border:5px solid black"">",,,
,1557.63,stimulus-presentation,121,174676,0.0-12.0-1.54,SS1602727692346,<img src='images/simple/46.png' width ='500' height = '500' style='border:5px solid black'>,40,mixed_complex_deviant,images/simple/46.png,images/simple/98.png,"images/complex/72.png,images/complex/21.png,images/complex/87.png,images/complex/80.png,images/complex/74.png,images/complex/48.png,images/complex/15.png,images/complex/9.png,images/complex/11.png",0,null,,600,2157.63,,,,target,,
,null,html-keyboard-response,122,175782,0.0-12.0-0.55,SS1602727692346,,null,,,,,,,,,,,,"<img src=images/blank.png width =""500"" height = ""500"" style=""border:5px solid black"">",,,
,194.03,stimulus-presentation,123,176585,0.0-12.0-1.55,SS1602727692346,<img src='images/simple/46.png' width ='500' height = '500' style='border:5px solid black'>,40,mixed_complex_deviant,images/simple/46.png,images/simple/98.png,"images/complex/72.png,images/complex/21.png,images/complex/87.png,images/complex/80.png,images/complex/74.png,images/complex/48.png,images/complex/15.png,images/complex/9.png,images/complex/11.png",0,null,,600,794.03,,,,target,,
,null,html-keyboard-response,124,177638,0.0-12.0-0.56,SS1602727692346,,null,,,,,,,,,,,,"<img src=images/blank.png width =""500"" height = ""500"" style=""border:5px solid black"">",,,
,296.67,stimulus-presentation,125,178543,0.0-12.0-1.56,SS1602727692346,<img src='images/simple/98.png' width ='500' height = '500' style='border:5px solid black'>,40,mixed_complex_deviant,images/simple/46.png,images/simple/98.png,"images/complex/72.png,images/complex/21.png,images/complex/87.png,images/complex/80.png,images/complex/74.png,images/complex/48.png,images/complex/15.png,images/complex/9.png,images/complex/11.png",0,null,,600,896.67,,,,background,,
,null,html-keyboard-response,126,179793,0.0-12.0-0.57,SS1602727692346,,null,,,,,,,,,,,,"<img src=images/blank.png width =""500"" height = ""500"" style=""border:5px solid black"">",,,
,376.06,stimulus-presentation,127,180779,0.0-12.0-1.57,SS1602727692346,<img src='images/simple/98.png' width ='500' height = '500' style='border:5px solid black'>,40,mixed_complex_deviant,images/simple/46.png,images/simple/98.png,"images/complex/72.png,images/complex/21.png,images/complex/87.png,images/complex/80.png,images/complex/74.png,images/complex/48.png,images/complex/15.png,images/complex/9.png,images/complex/11.png",0,null,,600,976.06,,,,background,,
,null,html-keyboard-response,128,181706,0.0-12.0-0.58,SS1602727692346,,null,,,,,,,,,,,,"<img src=images/blank.png width =""500"" height = ""500"" style=""border:5px solid black"">",,,
,245.955,stimulus-presentation,129,182563,0.0-12.0-1.58,SS1602727692346,<img src='images/simple/98.png' width ='500' height = '500' style='border:5px solid black'>,40,mixed_complex_deviant,images/simple/46.png,images/simple/98.png,"images/complex/72.png,images/complex/21.png,images/complex/87.png,images/complex/80.png,images/complex/74.png,images/complex/48.png,images/complex/15.png,images/complex/9.png,images/complex/11.png",0,null,,600,845.955,,,,background,,
,null,html-keyboard-response,130,183384,0.0-12.0-0.59,SS1602727692346,,null,,,,,,,,,,,,"<img src=images/blank.png width =""500"" height = ""500"" style=""border:5px solid black"">",,,
,145.55,stimulus-presentation,131,184142,0.0-12.0-1.59,SS1602727692346,<img src='images/simple/98.png' width ='500' height = '500' style='border:5px solid black'>,40,mixed_complex_deviant,images/simple/46.png,images/simple/98.png,"images/complex/72.png,images/complex/21.png,images/complex/87.png,images/complex/80.png,images/complex/74.png,images/complex/48.png,images/complex/15.png,images/complex/9.png,images/complex/11.png",0,null,,600,745.55,,,,background,,
,null,html-keyboard-response,132,185301,0.0-12.0-0.60,SS1602727692346,,null,,,,,,,,,,,,"<img src=images/blank.png width =""500"" height = ""500"" style=""border:5px solid black"">",,,
,364.07,stimulus-presentation,133,186274,0.0-12.0-1.60,SS1602727692346,<img src='images/simple/46.png' width ='500' height = '500' style='border:5px solid black'>,40,mixed_complex_deviant,images/simple/46.png,images/simple/98.png,"images/complex/72.png,images/complex/21.png,images/complex/87.png,images/complex/80.png,images/complex/74.png,images/complex/48.png,images/complex/15.png,images/complex/9.png,images/complex/11.png",0,null,,600,964.07,,,,target,,
"[{""page_index"":0,""viewing_time"":15556.579999974929},{""page_index"":1,""viewing_time"":1441.5850000223145},{""page_index"":2,""viewing_time"":1415.6700000166893}]",18414.315,instructions,134,204694,0.0-13.0,SS1602727692346,,,,,,,,,,,,,,,,,
"[{""page_index"":0,""viewing_time"":46562}]",46563,task-instructions,135,251263,0.0-14.0,SS1602727692346,,,,,,,,,,,,,,,,,
,null,html-keyboard-response,136,252556,0.0-15.0-0.0,SS1602727692346,,null,,,,,,,,,,,,"<img src=images/blank.png width =""500"" height = ""500"" style=""border:5px solid black"">",,,
,388.825,stimulus-presentation,137,253557,0.0-15.0-1.0,SS1602727692346,<img src='images/complex/61.png' width ='500' height = '500' style='border:5px solid black'>,40,mixed_simple_deviant,images/complex/82.png,images/complex/61.png,"images/simple/70.png,images/simple/82.png,images/simple/22.png,images/simple/12.png,images/simple/74.png,images/simple/86.png,images/simple/105.png,images/simple/97.png,images/simple/11.png",1,null,,600,988.825,,,,background,,
,null,html-keyboard-response,138,254494,0.0-15.0-0.1,SS1602727692346,,null,,,,,,,,,,,,"<img src=images/blank.png width =""500"" height = ""500"" style=""border:5px solid black"">",,,
,211.38,stimulus-presentation,139,255318,0.0-15.0-1.1,SS1602727692346,<img src='images/complex/61.png' width ='500' height = '500' style='border:5px solid black'>,40,mixed_simple_deviant,images/complex/82.png,images/complex/61.png,"images/simple/70.png,images/simple/82.png,images/simple/22.png,images/simple/12.png,images/simple/74.png,images/simple/86.png,images/simple/105.png,images/simple/97.png,images/simple/11.png",1,null,,600,811.38,,,,background,,
,null,html-keyboard-response,140,256486,0.0-15.0-0.2,SS1602727692346,,null,,,,,,,,,,,,"<img src=images/blank.png width =""500"" height = ""500"" style=""border:5px solid black"">",,,
,405.9,stimulus-presentation,141,257501,0.0-15.0-1.2,SS1602727692346,<img src='images/simple/12.png' width ='500' height = '500' style='border:5px solid black'>,40,mixed_simple_deviant,images/complex/82.png,images/complex/61.png,"images/simple/70.png,images/simple/82.png,images/simple/22.png,images/simple/12.png,images/simple/74.png,images/simple/86.png,images/simple/105.png,images/simple/97.png,images/simple/11.png",1,null,,600,1005.9,,,,deviant,,
,null,html-keyboard-response,142,258728,0.0-15.0-0.3,SS1602727692346,,null,,,,,,,,,,,,"<img src=images/blank.png width =""500"" height = ""500"" style=""border:5px solid black"">",,,
,666.69,stimulus-presentation,143,260004,0.0-15.0-1.3,SS1602727692346,<img src='images/complex/61.png' width ='500' height = '500' style='border:5px solid black'>,40,mixed_simple_deviant,images/complex/82.png,images/complex/61.png,"images/simple/70.png,images/simple/82.png,images/simple/22.png,images/simple/12.png,images/simple/74.png,images/simple/86.png,images/simple/105.png,images/simple/97.png,images/simple/11.png",1,null,,600,1266.69,,,,background,,
,null,html-keyboard-response,144,261148,0.0-15.0-0.4,SS1602727692346,,null,,,,,,,,,,,,"<img src=images/blank.png width =""500"" height = ""500"" style=""border:5px solid black"">",,,
,535.245,stimulus-presentation,145,262294,0.0-15.0-1.4,SS1602727692346,<img src='images/complex/61.png' width ='500' height = '500' style='border:5px solid black'>,40,mixed_simple_deviant,images/complex/82.png,images/complex/61.png,"images/simple/70.png,images/simple/82.png,images/simple/22.png,images/simple/12.png,images/simple/74.png,images/simple/86.png,images/simple/105.png,images/simple/97.png,images/simple/11.png",1,null,,600,1135.245,,,,background,,
,null,html-keyboard-response,146,263305,0.0-15.0-0.5,SS1602727692346,,null,,,,,,,,,,,,"<img src=images/blank.png width =""500"" height = ""500"" style=""border:5px solid black"">",,,
,153.755,stimulus-presentation,147,264068,0.0-15.0-1.5,SS1602727692346,<img src='images/complex/61.png' width ='500' height = '500' style='border:5px solid black'>,40,mixed_simple_deviant,images/complex/82.png,images/complex/61.png,"images/simple/70.png,images/simple/82.png,images/simple/22.png,images/simple/12.png,images/simple/74.png,images/simple/86.png,images/simple/105.png,images/simple/97.png,images/simple/11.png",1,null,,600,753.755,,,,background,,
,null,html-keyboard-response,148,265170,0.0-15.0-0.6,SS1602727692346,,null,,,,,,,,,,,,"<img src=images/blank.png width =""500"" height = ""500"" style=""border:5px solid black"">",,,
,120.02,stimulus-presentation,149,265901,0.0-15.0-1.6,SS1602727692346,<img src='images/complex/61.png' width ='500' height = '500' style='border:5px solid black'>,40,mixed_simple_deviant,images/complex/82.png,images/complex/61.png,"images/simple/70.png,images/simple/82.png,images/simple/22.png,images/simple/12.png,images/simple/74.png,images/simple/86.png,images/simple/105.png,images/simple/97.png,images/simple/11.png",1,null,,600,720.02,,,,background,,
,null,html-keyboard-response,150,266836,0.0-15.0-0.7,SS1602727692346,,null,,,,,,,,,,,,"<img src=images/blank.png width =""500"" height = ""500"" style=""border:5px solid black"">",,,
,366.87,stimulus-presentation,151,267811,0.0-15.0-1.7,SS1602727692346,<img src='images/complex/61.png' width ='500' height = '500' style='border:5px solid black'>,40,mixed_simple_deviant,images/complex/82.png,images/complex/61.png,"images/simple/70.png,images/simple/82.png,images/simple/22.png,images/simple/12.png,images/simple/74.png,images/simple/86.png,images/simple/105.png,images/simple/97.png,images/simple/11.png",1,null,,600,966.87,,,,background,,
,null,html-keyboard-response,152,268660,0.0-15.0-0.8,SS1602727692346,,null,,,,,,,,,,,,"<img src=images/blank.png width =""500"" height = ""500"" style=""border:5px solid black"">",,,
,302.945,stimulus-presentation,153,269571,0.0-15.0-1.8,SS1602727692346,<img src='images/complex/61.png' width ='500' height = '500' style='border:5px solid black'>,40,mixed_simple_deviant,images/complex/82.png,images/complex/61.png,"images/simple/70.png,images/simple/82.png,images/simple/22.png,images/simple/12.png,images/simple/74.png,images/simple/86.png,images/simple/105.png,images/simple/97.png,images/simple/11.png",1,null,,600,902.945,,,,background,,
,null,html-keyboard-response,154,270538,0.0-15.0-0.9,SS1602727692346,,null,,,,,,,,,,,,"<img src=images/blank.png width =""500"" height = ""500"" style=""border:5px solid black"">",,,
,854.54,stimulus-presentation,155,272000,0.0-15.0-1.9,SS1602727692346,<img src='images/simple/86.png' width ='500' height = '500' style='border:5px solid black'>,40,mixed_simple_deviant,images/complex/82.png,images/complex/61.png,"images/simple/70.png,images/simple/82.png,images/simple/22.png,images/simple/12.png,images/simple/74.png,images/simple/86.png,images/simple/105.png,images/simple/97.png,images/simple/11.png",1,null,,600,1454.54,,,,deviant,,
,null,html-keyboard-response,156,272856,0.0-15.0-0.10,SS1602727692346,,null,,,,,,,,,,,,"<img src=images/blank.png width =""500"" height = ""500"" style=""border:5px solid black"">",,,
,635.4800001,stimulus-presentation,157,274102,0.0-15.0-1.10,SS1602727692346,<img src='images/complex/61.png' width ='500' height = '500' style='border:5px solid black'>,40,mixed_simple_deviant,images/complex/82.png,images/complex/61.png,"images/simple/70.png,images/simple/82.png,images/simple/22.png,images/simple/12.png,images/simple/74.png,images/simple/86.png,images/simple/105.png,images/simple/97.png,images/simple/11.png",1,null,,600,1235.48,,,,background,,
,null,html-keyboard-response,158,275014,0.0-15.0-0.11,SS1602727692346,,null,,,,,,,,,,,,"<img src=images/blank.png width =""500"" height = ""500"" style=""border:5px solid black"">",,,
,1977.135,stimulus-presentation,159,277606,0.0-15.0-1.11,SS1602727692346,<img src='images/complex/61.png' width ='500' height = '500' style='border:5px solid black'>,40,mixed_simple_deviant,images/complex/82.png,images/complex/61.png,"images/simple/70.png,images/simple/82.png,images/simple/22.png,images/simple/12.png,images/simple/74.png,images/simple/86.png,images/simple/105.png,images/simple/97.png,images/simple/11.png",1,null,,600,2577.135,,,,background,,
,null,html-keyboard-response,160,278760,0.0-15.0-0.12,SS1602727692346,,null,,,,,,,,,,,,"<img src=images/blank.png width =""500"" height = ""500"" style=""border:5px solid black"">",,,
,1241,stimulus-presentation,161,280611,0.0-15.0-1.12,SS1602727692346,<img src='images/complex/82.png' width ='500' height = '500' style='border:5px solid black'>,40,mixed_simple_deviant,images/complex/82.png,images/complex/61.png,"images/simple/70.png,images/simple/82.png,images/simple/22.png,images/simple/12.png,images/simple/74.png,images/simple/86.png,images/simple/105.png,images/simple/97.png,images/simple/11.png",1,null,,600,1841,,,,target,,
,null,html-keyboard-response,162,281841,0.0-15.0-0.13,SS1602727692346,,null,,,,,,,,,,,,"<img src=images/blank.png width =""500"" height = ""500"" style=""border:5px solid black"">",,,
,2359.955,stimulus-presentation,163,284813,0.0-15.0-1.13,SS1602727692346,<img src='images/simple/97.png' width ='500' height = '500' style='border:5px solid black'>,40,mixed_simple_deviant,images/complex/82.png,images/complex/61.png,"images/simple/70.png,images/simple/82.png,images/simple/22.png,images/simple/12.png,images/simple/74.png,images/simple/86.png,images/simple/105.png,images/simple/97.png,images/simple/11.png",1,null,,600,2959.955,,,,deviant,,
,null,html-keyboard-response,164,285749,0.0-15.0-0.14,SS1602727692346,,null,,,,,,,,,,,,"<img src=images/blank.png width =""500"" height = ""500"" style=""border:5px solid black"">",,,
,2443.605,stimulus-presentation,165,288805,0.0-15.0-1.14,SS1602727692346,<img src='images/complex/61.png' width ='500' height = '500' style='border:5px solid black'>,40,mixed_simple_deviant,images/complex/82.png,images/complex/61.png,"images/simple/70.png,images/simple/82.png,images/simple/22.png,images/simple/12.png,images/simple/74.png,images/simple/86.png,images/simple/105.png,images/simple/97.png,images/simple/11.png",1,null,,600,3043.605,,,,background,,
,null,html-keyboard-response,166,289930,0.0-15.0-0.15,SS1602727692346,,null,,,,,,,,,,,,"<img src=images/blank.png width =""500"" height = ""500"" style=""border:5px solid black"">",,,
,495.42,stimulus-presentation,167,291039,0.0-15.0-1.15,SS1602727692346,<img src='images/complex/61.png' width ='500' height = '500' style='border:5px solid black'>,40,mixed_simple_deviant,images/complex/82.png,images/complex/61.png,"images/simple/70.png,images/simple/82.png,images/simple/22.png,images/simple/12.png,images/simple/74.png,images/simple/86.png,images/simple/105.png,images/simple/97.png,images/simple/11.png",1,null,,600,1095.42,,,,background,,
,null,html-keyboard-response,168,292003,0.0-15.0-0.16,SS1602727692346,,null,,,,,,,,,,,,"<img src=images/blank.png width =""500"" height = ""500"" style=""border:5px solid black"">",,,
,391.86,stimulus-presentation,169,293002,0.0-15.0-1.16,SS1602727692346,<img src='images/complex/61.png' width ='500' height = '500' style='border:5px solid black'>,40,mixed_simple_deviant,images/complex/82.png,images/complex/61.png,"images/simple/70.png,images/simple/82.png,images/simple/22.png,images/simple/12.png,images/simple/74.png,images/simple/86.png,images/simple/105.png,images/simple/97.png,images/simple/11.png",1,null,,600,991.86,,,,background,,
,null,html-keyboard-response,170,293845,0.0-15.0-0.17,SS1602727692346,,null,,,,,,,,,,,,"<img src=images/blank.png width =""500"" height = ""500"" style=""border:5px solid black"">",,,
,445.24,stimulus-presentation,171,294899,0.0-15.0-1.17,SS1602727692346,<img src='images/complex/61.png' width ='500' height = '500' style='border:5px solid black'>,40,mixed_simple_deviant,images/complex/82.png,images/complex/61.png,"images/simple/70.png,images/simple/82.png,images/simple/22.png,images/simple/12.png,images/simple/74.png,images/simple/86.png,images/simple/105.png,images/simple/97.png,images/simple/11.png",1,null,,600,1045.24,,,,background,,
,null,html-keyboard-response,172,296040,0.0-15.0-0.18,SS1602727692346,,null,,,,,,,,,,,,"<img src=images/blank.png width =""500"" height = ""500"" style=""border:5px solid black"">",,,
,1433.805,stimulus-presentation,173,298085,0.0-15.0-1.18,SS1602727692346,<img src='images/simple/74.png' width ='500' height = '500' style='border:5px solid black'>,40,mixed_simple_deviant,images/complex/82.png,images/complex/61.png,"images/simple/70.png,images/simple/82.png,images/simple/22.png,images/simple/12.png,images/simple/74.png,images/simple/86.png,images/simple/105.png,images/simple/97.png,images/simple/11.png",1,null,,600,2033.805,,,,deviant,,
,null,html-keyboard-response,174,299008,0.0-15.0-0.19,SS1602727692346,,null,,,,,,,,,,,,"<img src=images/blank.png width =""500"" height = ""500"" style=""border:5px solid black"">",,,
,879.495,stimulus-presentation,175,300500,0.0-15.0-1.19,SS1602727692346,<img src='images/complex/61.png' width ='500' height = '500' style='border:5px solid black'>,40,mixed_simple_deviant,images/complex/82.png,images/complex/61.png,"images/simple/70.png,images/simple/82.png,images/simple/22.png,images/simple/12.png,images/simple/74.png,images/simple/86.png,images/simple/105.png,images/simple/97.png,images/simple/11.png",1,null,,600,1479.495,,,,background,,
,null,html-keyboard-response,176,301376,0.0-15.0-0.20,SS1602727692346,,null,,,,,,,,,,,,"<img src=images/blank.png width =""500"" height = ""500"" style=""border:5px solid black"">",,,
,561.765,stimulus-presentation,177,302548,0.0-15.0-1.20,SS1602727692346,<img src='images/complex/61.png' width ='500' height = '500' style='border:5px solid black'>,40,mixed_simple_deviant,images/complex/82.png,images/complex/61.png,"images/simple/70.png,images/simple/82.png,images/simple/22.png,images/simple/12.png,images/simple/74.png,images/simple/86.png,images/simple/105.png,images/simple/97.png,images/simple/11.png",1,null,,600,1161.765,,,,background,,
,null,html-keyboard-response,178,303466,0.0-15.0-0.21,SS1602727692346,,null,,,,,,,,,,,,"<img src=images/blank.png width =""500"" height = ""500"" style=""border:5px solid black"">",,,
,254.025,stimulus-presentation,179,304333,0.0-15.0-1.21,SS1602727692346,<img src='images/complex/61.png' width ='500' height = '500' style='border:5px solid black'>,40,mixed_simple_deviant,images/complex/82.png,images/complex/61.png,"images/simple/70.png,images/simple/82.png,images/simple/22.png,images/simple/12.png,images/simple/74.png,images/simple/86.png,images/simple/105.png,images/simple/97.png,images/simple/11.png",1,null,,600,854.025,,,,background,,
,null,html-keyboard-response,180,305195,0.0-15.0-0.22,SS1602727692346,,null,,,,,,,,,,,,"<img src=images/blank.png width =""500"" height = ""500"" style=""border:5px solid black"">",,,
,642.54,stimulus-presentation,181,306450,0.0-15.0-1.22,SS1602727692346,<img src='images/complex/82.png' width ='500' height = '500' style='border:5px solid black'>,40,mixed_simple_deviant,images/complex/82.png,images/complex/61.png,"images/simple/70.png,images/simple/82.png,images/simple/22.png,images/simple/12.png,images/simple/74.png,images/simple/86.png,images/simple/105.png,images/simple/97.png,images/simple/11.png",1,null,,600,1242.54,,,,target,,
,null,html-keyboard-response,182,307481,0.0-15.0-0.23,SS1602727692346,,null,,,,,,,,,,,,"<img src=images/blank.png width =""500"" height = ""500"" style=""border:5px solid black"">",,,
,483.445,stimulus-presentation,183,308577,0.0-15.0-1.23,SS1602727692346,<img src='images/simple/105.png' width ='500' height = '500' style='border:5px solid black'>,40,mixed_simple_deviant,images/complex/82.png,images/complex/61.png,"images/simple/70.png,images/simple/82.png,images/simple/22.png,images/simple/12.png,images/simple/74.png,images/simple/86.png,images/simple/105.png,images/simple/97.png,images/simple/11.png",1,null,,600,1083.445,,,,deviant,,
,null,html-keyboard-response,184,309623,0.0-15.0-0.24,SS1602727692346,,null,,,,,,,,,,,,"<img src=images/blank.png width =""500"" height = ""500"" style=""border:5px solid black"">",,,
,776.025,stimulus-presentation,185,311012,0.0-15.0-1.24,SS1602727692346,<img src='images/complex/61.png' width ='500' height = '500' style='border:5px solid black'>,40,mixed_simple_deviant,images/complex/82.png,images/complex/61.png,"images/simple/70.png,images/simple/82.png,images/simple/22.png,images/simple/12.png,images/simple/74.png,images/simple/86.png,images/simple/105.png,images/simple/97.png,images/simple/11.png",1,null,,600,1376.025,,,,background,,
,null,html-keyboard-response,186,312222,0.0-15.0-0.25,SS1602727692346,,null,,,,,,,,,,,,"<img src=images/blank.png width =""500"" height = ""500"" style=""border:5px solid black"">",,,
,1731.21,stimulus-presentation,187,314564,0.0-15.0-1.25,SS1602727692346,<img src='images/complex/61.png' width ='500' height = '500' style='border:5px solid black'>,40,mixed_simple_deviant,images/complex/82.png,images/complex/61.png,"images/simple/70.png,images/simple/82.png,images/simple/22.png,images/simple/12.png,images/simple/74.png,images/simple/86.png,images/simple/105.png,images/simple/97.png,images/simple/11.png",1,null,,600,2331.21,,,,background,,
,null,html-keyboard-response,188,315723,0.0-15.0-0.26,SS1602727692346,,null,,,,,,,,,,,,"<img src=images/blank.png width =""500"" height = ""500"" style=""border:5px solid black"">",,,
,49.72499999,stimulus-presentation,189,316381,0.0-15.0-1.26,SS1602727692346,<img src='images/complex/61.png' width ='500' height = '500' style='border:5px solid black'>,40,mixed_simple_deviant,images/complex/82.png,images/complex/61.png,"images/simple/70.png,images/simple/82.png,images/simple/22.png,images/simple/12.png,images/simple/74.png,images/simple/86.png,images/simple/105.png,images/simple/97.png,images/simple/11.png",1,null,,600,649.725,,,,background,,
,null,html-keyboard-response,190,317451,0.0-15.0-0.27,SS1602727692346,,null,,,,,,,,,,,,"<img src=images/blank.png width =""500"" height = ""500"" style=""border:5px solid black"">",,,
,287.84,stimulus-presentation,191,318349,0.0-15.0-1.27,SS1602727692346,<img src='images/complex/61.png' width ='500' height = '500' style='border:5px solid black'>,40,mixed_simple_deviant,images/complex/82.png,images/complex/61.png,"images/simple/70.png,images/simple/82.png,images/simple/22.png,images/simple/12.png,images/simple/74.png,images/simple/86.png,images/simple/105.png,images/simple/97.png,images/simple/11.png",1,null,,600,887.84,,,,background,,
,null,html-keyboard-response,192,319479,0.0-15.0-0.28,SS1602727692346,,null,,,,,,,,,,,,"<img src=images/blank.png width =""500"" height = ""500"" style=""border:5px solid black"">",,,
,1336.34,stimulus-presentation,193,321429,0.0-15.0-1.28,SS1602727692346,<img src='images/complex/61.png' width ='500' height = '500' style='border:5px solid black'>,40,mixed_simple_deviant,images/complex/82.png,images/complex/61.png,"images/simple/70.png,images/simple/82.png,images/simple/22.png,images/simple/12.png,images/simple/74.png,images/simple/86.png,images/simple/105.png,images/simple/97.png,images/simple/11.png",1,null,,600,1936.34,,,,background,,
,null,html-keyboard-response,194,322434,0.0-15.0-0.29,SS1602727692346,,null,,,,,,,,,,,,"<img src=images/blank.png width =""500"" height = ""500"" style=""border:5px solid black"">",,,
,133.94,stimulus-presentation,195,323181,0.0-15.0-1.29,SS1602727692346,<img src='images/complex/61.png' width ='500' height = '500' style='border:5px solid black'>,40,mixed_simple_deviant,images/complex/82.png,images/complex/61.png,"images/simple/70.png,images/simple/82.png,images/simple/22.png,images/simple/12.png,images/simple/74.png,images/simple/86.png,images/simple/105.png,images/simple/97.png,images/simple/11.png",1,null,,600,733.94,,,,background,,
,null,html-keyboard-response,196,324225,0.0-15.0-0.30,SS1602727692346,,null,,,,,,,,,,,,"<img src=images/blank.png width =""500"" height = ""500"" style=""border:5px solid black"">",,,
,215.935,stimulus-presentation,197,325053,0.0-15.0-1.30,SS1602727692346,<img src='images/complex/61.png' width ='500' height = '500' style='border:5px solid black'>,40,mixed_simple_deviant,images/complex/82.png,images/complex/61.png,"images/simple/70.png,images/simple/82.png,images/simple/22.png,images/simple/12.png,images/simple/74.png,images/simple/86.png,images/simple/105.png,images/simple/97.png,images/simple/11.png",1,null,,600,815.935,,,,background,,
,null,html-keyboard-response,198,325880,0.0-15.0-0.31,SS1602727692346,,null,,,,,,,,,,,,"<img src=images/blank.png width =""500"" height = ""500"" style=""border:5px solid black"">",,,
,771.86,stimulus-presentation,199,327266,0.0-15.0-1.31,SS1602727692346,<img src='images/complex/82.png' width ='500' height = '500' style='border:5px solid black'>,40,mixed_simple_deviant,images/complex/82.png,images/complex/61.png,"images/simple/70.png,images/simple/82.png,images/simple/22.png,images/simple/12.png,images/simple/74.png,images/simple/86.png,images/simple/105.png,images/simple/97.png,images/simple/11.png",1,null,,600,1371.86,,,,target,,
,null,html-keyboard-response,200,328332,0.0-15.0-0.32,SS1602727692346,,null,,,,,,,,,,,,"<img src=images/blank.png width =""500"" height = ""500"" style=""border:5px solid black"">",,,
,182.17,stimulus-presentation,201,329125,0.0-15.0-1.32,SS1602727692346,<img src='images/complex/61.png' width ='500' height = '500' style='border:5px solid black'>,40,mixed_simple_deviant,images/complex/82.png,images/complex/61.png,"images/simple/70.png,images/simple/82.png,images/simple/22.png,images/simple/12.png,images/simple/74.png,images/simple/86.png,images/simple/105.png,images/simple/97.png,images/simple/11.png",1,null,,600,782.17,,,,background,,
,null,html-keyboard-response,202,330403,0.0-15.0-0.33,SS1602727692346,,null,,,,,,,,,,,,"<img src=images/blank.png width =""500"" height = ""500"" style=""border:5px solid black"">",,,
,51.73500004,stimulus-presentation,203,331066,0.0-15.0-1.33,SS1602727692346,<img src='images/complex/61.png' width ='500' height = '500' style='border:5px solid black'>,40,mixed_simple_deviant,images/complex/82.png,images/complex/61.png,"images/simple/70.png,images/simple/82.png,images/simple/22.png,images/simple/12.png,images/simple/74.png,images/simple/86.png,images/simple/105.png,images/simple/97.png,images/simple/11.png",1,null,,600,651.735,,,,background,,
,null,html-keyboard-response,204,332075,0.0-15.0-0.34,SS1602727692346,,null,,,,,,,,,,,,"<img src=images/blank.png width =""500"" height = ""500"" style=""border:5px solid black"">",,,
,492.83,stimulus-presentation,205,333181,0.0-15.0-1.34,SS1602727692346,<img src='images/complex/61.png' width ='500' height = '500' style='border:5px solid black'>,40,mixed_simple_deviant,images/complex/82.png,images/complex/61.png,"images/simple/70.png,images/simple/82.png,images/simple/22.png,images/simple/12.png,images/simple/74.png,images/simple/86.png,images/simple/105.png,images/simple/97.png,images/simple/11.png",1,null,,600,1092.83,,,,background,,
,null,html-keyboard-response,206,334438,0.0-15.0-0.35,SS1602727692346,,null,,,,,,,,,,,,"<img src=images/blank.png width =""500"" height = ""500"" style=""border:5px solid black"">",,,
,50.87000004,stimulus-presentation,207,335101,0.0-15.0-1.35,SS1602727692346,<img src='images/complex/82.png' width ='500' height = '500' style='border:5px solid black'>,40,mixed_simple_deviant,images/complex/82.png,images/complex/61.png,"images/simple/70.png,images/simple/82.png,images/simple/22.png,images/simple/12.png,images/simple/74.png,images/simple/86.png,images/simple/105.png,images/simple/97.png,images/simple/11.png",1,null,,600,650.87,,,,target,,
,null,html-keyboard-response,208,336072,0.0-15.0-0.36,SS1602727692346,,null,,,,,,,,,,,,"<img src=images/blank.png width =""500"" height = ""500"" style=""border:5px solid black"">",,,
,377.605,stimulus-presentation,209,337062,0.0-15.0-1.36,SS1602727692346,<img src='images/complex/61.png' width ='500' height = '500' style='border:5px solid black'>,40,mixed_simple_deviant,images/complex/82.png,images/complex/61.png,"images/simple/70.png,images/simple/82.png,images/simple/22.png,images/simple/12.png,images/simple/74.png,images/simple/86.png,images/simple/105.png,images/simple/97.png,images/simple/11.png",1,null,,600,977.605,,,,background,,
,null,html-keyboard-response,210,338081,0.0-15.0-0.37,SS1602727692346,,null,,,,,,,,,,,,"<img src=images/blank.png width =""500"" height = ""500"" style=""border:5px solid black"">",,,
,1311.63,stimulus-presentation,211,340005,0.0-15.0-1.37,SS1602727692346,<img src='images/simple/82.png' width ='500' height = '500' style='border:5px solid black'>,40,mixed_simple_deviant,images/complex/82.png,images/complex/61.png,"images/simple/70.png,images/simple/82.png,images/simple/22.png,images/simple/12.png,images/simple/74.png,images/simple/86.png,images/simple/105.png,images/simple/97.png,images/simple/11.png",1,null,,600,1911.63,,,,deviant,,
,null,html-keyboard-response,212,341056,0.0-15.0-0.38,SS1602727692346,,null,,,,,,,,,,,,"<img src=images/blank.png width =""500"" height = ""500"" style=""border:5px solid black"">",,,
,18.39499996,stimulus-presentation,213,341684,0.0-15.0-1.38,SS1602727692346,<img src='images/complex/82.png' width ='500' height = '500' style='border:5px solid black'>,40,mixed_simple_deviant,images/complex/82.png,images/complex/61.png,"images/simple/70.png,images/simple/82.png,images/simple/22.png,images/simple/12.png,images/simple/74.png,images/simple/86.png,images/simple/105.png,images/simple/97.png,images/simple/11.png",1,null,,600,618.395,,,,target,,
,null,html-keyboard-response,214,342583,0.0-15.0-0.39,SS1602727692346,,null,,,,,,,,,,,,"<img src=images/blank.png width =""500"" height = ""500"" style=""border:5px solid black"">",,,
,248.435,stimulus-presentation,215,343445,0.0-15.0-1.39,SS1602727692346,<img src='images/complex/82.png' width ='500' height = '500' style='border:5px solid black'>,40,mixed_simple_deviant,images/complex/82.png,images/complex/61.png,"images/simple/70.png,images/simple/82.png,images/simple/22.png,images/simple/12.png,images/simple/74.png,images/simple/86.png,images/simple/105.png,images/simple/97.png,images/simple/11.png",1,null,,600,848.435,,,,target,,
,null,html-keyboard-response,216,344754,0.0-15.0-0.40,SS1602727692346,,null,,,,,,,,,,,,"<img src=images/blank.png width =""500"" height = ""500"" style=""border:5px solid black"">",,,
,247.81,stimulus-presentation,217,345610,0.0-15.0-1.40,SS1602727692346,<img src='images/complex/61.png' width ='500' height = '500' style='border:5px solid black'>,40,mixed_simple_deviant,images/complex/82.png,images/complex/61.png,"images/simple/70.png,images/simple/82.png,images/simple/22.png,images/simple/12.png,images/simple/74.png,images/simple/86.png,images/simple/105.png,images/simple/97.png,images/simple/11.png",1,null,,600,847.81,,,,background,,
,null,html-keyboard-response,218,346615,0.0-15.0-0.41,SS1602727692346,,null,,,,,,,,,,,,"<img src=images/blank.png width =""500"" height = ""500"" style=""border:5px solid black"">",,,
,1449.865,stimulus-presentation,219,348679,0.0-15.0-1.41,SS1602727692346,<img src='images/simple/70.png' width ='500' height = '500' style='border:5px solid black'>,40,mixed_simple_deviant,images/complex/82.png,images/complex/61.png,"images/simple/70.png,images/simple/82.png,images/simple/22.png,images/simple/12.png,images/simple/74.png,images/simple/86.png,images/simple/105.png,images/simple/97.png,images/simple/11.png",1,null,,600,2049.865,,,,deviant,,
,null,html-keyboard-response,220,349596,0.0-15.0-0.42,SS1602727692346,,null,,,,,,,,,,,,"<img src=images/blank.png width =""500"" height = ""500"" style=""border:5px solid black"">",,,
,362.755,stimulus-presentation,221,350571,0.0-15.0-1.42,SS1602727692346,<img src='images/complex/61.png' width ='500' height = '500' style='border:5px solid black'>,40,mixed_simple_deviant,images/complex/82.png,images/complex/61.png,"images/simple/70.png,images/simple/82.png,images/simple/22.png,images/simple/12.png,images/simple/74.png,images/simple/86.png,images/simple/105.png,images/simple/97.png,images/simple/11.png",1,null,,600,962.755,,,,background,,
,null,html-keyboard-response,222,351604,0.0-15.0-0.43,SS1602727692346,,null,,,,,,,,,,,,"<img src=images/blank.png width =""500"" height = ""500"" style=""border:5px solid black"">",,,
,1042.865,stimulus-presentation,223,353258,0.0-15.0-1.43,SS1602727692346,<img src='images/complex/61.png' width ='500' height = '500' style='border:5px solid black'>,40,mixed_simple_deviant,images/complex/82.png,images/complex/61.png,"images/simple/70.png,images/simple/82.png,images/simple/22.png,images/simple/12.png,images/simple/74.png,images/simple/86.png,images/simple/105.png,images/simple/97.png,images/simple/11.png",1,null,,600,1642.865,,,,background,,
,null,html-keyboard-response,224,354230,0.0-15.0-0.44,SS1602727692346,,null,,,,,,,,,,,,"<img src=images/blank.png width =""500"" height = ""500"" style=""border:5px solid black"">",,,
,232.295,stimulus-presentation,225,355076,0.0-15.0-1.44,SS1602727692346,<img src='images/complex/61.png' width ='500' height = '500' style='border:5px solid black'>,40,mixed_simple_deviant,images/complex/82.png,images/complex/61.png,"images/simple/70.png,images/simple/82.png,images/simple/22.png,images/simple/12.png,images/simple/74.png,images/simple/86.png,images/simple/105.png,images/simple/97.png,images/simple/11.png",1,null,,600,832.295,,,,background,,
,null,html-keyboard-response,226,356311,0.0-15.0-0.45,SS1602727692346,,null,,,,,,,,,,,,"<img src=images/blank.png width =""500"" height = ""500"" style=""border:5px solid black"">",,,
,278.595,stimulus-presentation,227,357198,0.0-15.0-1.45,SS1602727692346,<img src='images/complex/61.png' width ='500' height = '500' style='border:5px solid black'>,40,mixed_simple_deviant,images/complex/82.png,images/complex/61.png,"images/simple/70.png,images/simple/82.png,images/simple/22.png,images/simple/12.png,images/simple/74.png,images/simple/86.png,images/simple/105.png,images/simple/97.png,images/simple/11.png",1,null,,600,878.595,,,,background,,
,null,html-keyboard-response,228,358385,0.0-15.0-0.46,SS1602727692346,,null,,,,,,,,,,,,"<img src=images/blank.png width =""500"" height = ""500"" style=""border:5px solid black"">",,,
,114.675,stimulus-presentation,229,359110,0.0-15.0-1.46,SS1602727692346,<img src='images/complex/82.png' width ='500' height = '500' style='border:5px solid black'>,40,mixed_simple_deviant,images/complex/82.png,images/complex/61.png,"images/simple/70.png,images/simple/82.png,images/simple/22.png,images/simple/12.png,images/simple/74.png,images/simple/86.png,images/simple/105.png,images/simple/97.png,images/simple/11.png",1,null,,600,714.675,,,,target,,
,null,html-keyboard-response,230,360304,0.0-15.0-0.47,SS1602727692346,,null,,,,,,,,,,,,"<img src=images/blank.png width =""500"" height = ""500"" style=""border:5px solid black"">",,,
,865.995,stimulus-presentation,231,361781,0.0-15.0-1.47,SS1602727692346,<img src='images/complex/61.png' width ='500' height = '500' style='border:5px solid black'>,40,mixed_simple_deviant,images/complex/82.png,images/complex/61.png,"images/simple/70.png,images/simple/82.png,images/simple/22.png,images/simple/12.png,images/simple/74.png,images/simple/86.png,images/simple/105.png,images/simple/97.png,images/simple/11.png",1,null,,600,1465.995,,,,background,,
,null,html-keyboard-response,232,362953,0.0-15.0-0.48,SS1602727692346,,null,,,,,,,,,,,,"<img src=images/blank.png width =""500"" height = ""500"" style=""border:5px solid black"">",,,
,462.87,stimulus-presentation,233,364028,0.0-15.0-1.48,SS1602727692346,<img src='images/complex/61.png' width ='500' height = '500' style='border:5px solid black'>,40,mixed_simple_deviant,images/complex/82.png,images/complex/61.png,"images/simple/70.png,images/simple/82.png,images/simple/22.png,images/simple/12.png,images/simple/74.png,images/simple/86.png,images/simple/105.png,images/simple/97.png,images/simple/11.png",1,null,,600,1062.87,,,,background,,
,null,html-keyboard-response,234,365218,0.0-15.0-0.49,SS1602727692346,,null,,,,,,,,,,,,"<img src=images/blank.png width =""500"" height = ""500"" style=""border:5px solid black"">",,,
,925.085,stimulus-presentation,235,366758,0.0-15.0-1.49,SS1602727692346,<img src='images/complex/61.png' width ='500' height = '500' style='border:5px solid black'>,40,mixed_simple_deviant,images/complex/82.png,images/complex/61.png,"images/simple/70.png,images/simple/82.png,images/simple/22.png,images/simple/12.png,images/simple/74.png,images/simple/86.png,images/simple/105.png,images/simple/97.png,images/simple/11.png",1,null,,600,1525.085,,,,background,,
,null,html-keyboard-response,236,367908,0.0-15.0-0.50,SS1602727692346,,null,,,,,,,,,,,,"<img src=images/blank.png width =""500"" height = ""500"" style=""border:5px solid black"">",,,
,1783.54,stimulus-presentation,237,370303,0.0-15.0-1.50,SS1602727692346,<img src='images/simple/22.png' width ='500' height = '500' style='border:5px solid black'>,40,mixed_simple_deviant,images/complex/82.png,images/complex/61.png,"images/simple/70.png,images/simple/82.png,images/simple/22.png,images/simple/12.png,images/simple/74.png,images/simple/86.png,images/simple/105.png,images/simple/97.png,images/simple/11.png",1,null,,600,2383.54,,,,deviant,,
,null,html-keyboard-response,238,371495,0.0-15.0-0.51,SS1602727692346,,null,,,,,,,,,,,,"<img src=images/blank.png width =""500"" height = ""500"" style=""border:5px solid black"">",,,
,400.3799999,stimulus-presentation,239,372508,0.0-15.0-1.51,SS1602727692346,<img src='images/complex/61.png' width ='500' height = '500' style='border:5px solid black'>,40,mixed_simple_deviant,images/complex/82.png,images/complex/61.png,"images/simple/70.png,images/simple/82.png,images/simple/22.png,images/simple/12.png,images/simple/74.png,images/simple/86.png,images/simple/105.png,images/simple/97.png,images/simple/11.png",1,null,,600,1000.38,,,,background,,
,null,html-keyboard-response,240,373704,0.0-15.0-0.52,SS1602727692346,,null,,,,,,,,,,,,"<img src=images/blank.png width =""500"" height = ""500"" style=""border:5px solid black"">",,,
,1683.6,stimulus-presentation,241,375997,0.0-15.0-1.52,SS1602727692346,<img src='images/complex/61.png' width ='500' height = '500' style='border:5px solid black'>,40,mixed_simple_deviant,images/complex/82.png,images/complex/61.png,"images/simple/70.png,images/simple/82.png,images/simple/22.png,images/simple/12.png,images/simple/74.png,images/simple/86.png,images/simple/105.png,images/simple/97.png,images/simple/11.png",1,null,,600,2283.6,,,,background,,
,null,html-keyboard-response,242,377197,0.0-15.0-0.53,SS1602727692346,,null,,,,,,,,,,,,"<img src=images/blank.png width =""500"" height = ""500"" style=""border:5px solid black"">",,,
,579.615,stimulus-presentation,243,378390,0.0-15.0-1.53,SS1602727692346,<img src='images/complex/61.png' width ='500' height = '500' style='border:5px solid black'>,40,mixed_simple_deviant,images/complex/82.png,images/complex/61.png,"images/simple/70.png,images/simple/82.png,images/simple/22.png,images/simple/12.png,images/simple/74.png,images/simple/86.png,images/simple/105.png,images/simple/97.png,images/simple/11.png",1,null,,600,1179.615,,,,background,,
,null,html-keyboard-response,244,379374,0.0-15.0-0.54,SS1602727692346,,null,,,,,,,,,,,,"<img src=images/blank.png width =""500"" height = ""500"" style=""border:5px solid black"">",,,
,1243.97,stimulus-presentation,245,381233,0.0-15.0-1.54,SS1602727692346,<img src='images/simple/11.png' width ='500' height = '500' style='border:5px solid black'>,40,mixed_simple_deviant,images/complex/82.png,images/complex/61.png,"images/simple/70.png,images/simple/82.png,images/simple/22.png,images/simple/12.png,images/simple/74.png,images/simple/86.png,images/simple/105.png,images/simple/97.png,images/simple/11.png",1,null,,600,1843.97,,,,deviant,,
,null,html-keyboard-response,246,382349,0.0-15.0-0.55,SS1602727692346,,null,,,,,,,,,,,,"<img src=images/blank.png width =""500"" height = ""500"" style=""border:5px solid black"">",,,
,172.805,stimulus-presentation,247,383133,0.0-15.0-1.55,SS1602727692346,<img src='images/complex/82.png' width ='500' height = '500' style='border:5px solid black'>,40,mixed_simple_deviant,images/complex/82.png,images/complex/61.png,"images/simple/70.png,images/simple/82.png,images/simple/22.png,images/simple/12.png,images/simple/74.png,images/simple/86.png,images/simple/105.png,images/simple/97.png,images/simple/11.png",1,null,,600,772.805,,,,target,,
,null,html-keyboard-response,248,384097,0.0-15.0-0.56,SS1602727692346,,null,,,,,,,,,,,,"<img src=images/blank.png width =""500"" height = ""500"" style=""border:5px solid black"">",,,
,215.075,stimulus-presentation,249,384926,0.0-15.0-1.56,SS1602727692346,<img src='images/complex/61.png' width ='500' height = '500' style='border:5px solid black'>,40,mixed_simple_deviant,images/complex/82.png,images/complex/61.png,"images/simple/70.png,images/simple/82.png,images/simple/22.png,images/simple/12.png,images/simple/74.png,images/simple/86.png,images/simple/105.png,images/simple/97.png,images/simple/11.png",1,null,,600,815.075,,,,background,,
,null,html-keyboard-response,250,385810,0.0-15.0-0.57,SS1602727692346,,null,,,,,,,,,,,,"<img src=images/blank.png width =""500"" height = ""500"" style=""border:5px solid black"">",,,
,150.095,stimulus-presentation,251,386575,0.0-15.0-1.57,SS1602727692346,<img src='images/complex/61.png' width ='500' height = '500' style='border:5px solid black'>,40,mixed_simple_deviant,images/complex/82.png,images/complex/61.png,"images/simple/70.png,images/simple/82.png,images/simple/22.png,images/simple/12.png,images/simple/74.png,images/simple/86.png,images/simple/105.png,images/simple/97.png,images/simple/11.png",1,null,,600,750.095,,,,background,,
,null,html-keyboard-response,252,387402,0.0-15.0-0.58,SS1602727692346,,null,,,,,,,,,,,,"<img src=images/blank.png width =""500"" height = ""500"" style=""border:5px solid black"">",,,
,230.775,stimulus-presentation,253,388245,0.0-15.0-1.58,SS1602727692346,<img src='images/complex/82.png' width ='500' height = '500' style='border:5px solid black'>,40,mixed_simple_deviant,images/complex/82.png,images/complex/61.png,"images/simple/70.png,images/simple/82.png,images/simple/22.png,images/simple/12.png,images/simple/74.png,images/simple/86.png,images/simple/105.png,images/simple/97.png,images/simple/11.png",1,null,,600,830.775,,,,target,,
,null,html-keyboard-response,254,389165,0.0-15.0-0.59,SS1602727692346,,null,,,,,,,,,,,,"<img src=images/blank.png width =""500"" height = ""500"" style=""border:5px solid black"">",,,
,692.28,stimulus-presentation,255,390472,0.0-15.0-1.59,SS1602727692346,<img src='images/complex/61.png' width ='500' height = '500' style='border:5px solid black'>,40,mixed_simple_deviant,images/complex/82.png,images/complex/61.png,"images/simple/70.png,images/simple/82.png,images/simple/22.png,images/simple/12.png,images/simple/74.png,images/simple/86.png,images/simple/105.png,images/simple/97.png,images/simple/11.png",1,null,,600,1292.28,,,,background,,
,null,html-keyboard-response,256,391531,0.0-15.0-0.60,SS1602727692346,,null,,,,,,,,,,,,"<img src=images/blank.png width =""500"" height = ""500"" style=""border:5px solid black"">",,,
,687.47,stimulus-presentation,257,392829,0.0-15.0-1.60,SS1602727692346,<img src='images/complex/61.png' width ='500' height = '500' style='border:5px solid black'>,40,mixed_simple_deviant,images/complex/82.png,images/complex/61.png,"images/simple/70.png,images/simple/82.png,images/simple/22.png,images/simple/12.png,images/simple/74.png,images/simple/86.png,images/simple/105.png,images/simple/97.png,images/simple/11.png",1,null,,600,1287.47,,,,background,,
"[{""page_index"":0,""viewing_time"":5179.974999977276},{""page_index"":1,""viewing_time"":1439.699999988079},{""page_index"":2,""viewing_time"":1120.809999993071}]",7741,instructions,258,400578,0.0-16.0,SS1602727692346,,,,,,,,,,,,,,,,,
"[{""page_index"":0,""viewing_time"":5165}]",5165,task-instructions,259,405752,0.0-17.0,SS1602727692346,,,,,,,,,,,,,,,,,
,null,html-keyboard-response,260,406717,0.0-18.0-0.0,SS1602727692346,,null,,,,,,,,,,,,"<img src=images/blank.png width =""500"" height = ""500"" style=""border:5px solid black"">",,,
,298.3199999,stimulus-presentation,261,407628,0.0-18.0-1.0,SS1602727692346,<img src='images/simple/54.png' width ='500' height = '500' style='border:5px solid black'>,40,all_simple,images/simple/120.png,images/simple/54.png,"images/simple/83.png,images/simple/80.png,images/simple/3.png,images/simple/94.png,images/simple/9.png,images/simple/108.png,images/simple/32.png,images/simple/68.png,images/simple/55.png",2,null,,600,898.3199999,,,,background,,
,null,html-keyboard-response,262,408867,0.0-18.0-0.1,SS1602727692346,,null,,,,,,,,,,,,"<img src=images/blank.png width =""500"" height = ""500"" style=""border:5px solid black"">",,,
,105.54,stimulus-presentation,263,409588,0.0-18.0-1.1,SS1602727692346,<img src='images/simple/9.png' width ='500' height = '500' style='border:5px solid black'>,40,all_simple,images/simple/120.png,images/simple/54.png,"images/simple/83.png,images/simple/80.png,images/simple/3.png,images/simple/94.png,images/simple/9.png,images/simple/108.png,images/simple/32.png,images/simple/68.png,images/simple/55.png",2,null,,600,705.54,,,,deviant,,
,null,html-keyboard-response,264,410604,0.0-18.0-0.2,SS1602727692346,,null,,,,,,,,,,,,"<img src=images/blank.png width =""500"" height = ""500"" style=""border:5px solid black"">",,,
,128.165,stimulus-presentation,265,411343,0.0-18.0-1.2,SS1602727692346,<img src='images/simple/54.png' width ='500' height = '500' style='border:5px solid black'>,40,all_simple,images/simple/120.png,images/simple/54.png,"images/simple/83.png,images/simple/80.png,images/simple/3.png,images/simple/94.png,images/simple/9.png,images/simple/108.png,images/simple/32.png,images/simple/68.png,images/simple/55.png",2,null,,600,728.165,,,,background,,
,null,html-keyboard-response,266,412562,0.0-18.0-0.3,SS1602727692346,,null,,,,,,,,,,,,"<img src=images/blank.png width =""500"" height = ""500"" style=""border:5px solid black"">",,,
,172.28,stimulus-presentation,267,413349,0.0-18.0-1.3,SS1602727692346,<img src='images/simple/54.png' width ='500' height = '500' style='border:5px solid black'>,40,all_simple,images/simple/120.png,images/simple/54.png,"images/simple/83.png,images/simple/80.png,images/simple/3.png,images/simple/94.png,images/simple/9.png,images/simple/108.png,images/simple/32.png,images/simple/68.png,images/simple/55.png",2,null,,600,772.28,,,,background,,
,null,html-keyboard-response,268,414222,0.0-18.0-0.4,SS1602727692346,,null,,,,,,,,,,,,"<img src=images/blank.png width =""500"" height = ""500"" style=""border:5px solid black"">",,,
,301.955,stimulus-presentation,269,415138,0.0-18.0-1.4,SS1602727692346,<img src='images/simple/108.png' width ='500' height = '500' style='border:5px solid black'>,40,all_simple,images/simple/120.png,images/simple/54.png,"images/simple/83.png,images/simple/80.png,images/simple/3.png,images/simple/94.png,images/simple/9.png,images/simple/108.png,images/simple/32.png,images/simple/68.png,images/simple/55.png",2,null,,600,901.955,,,,deviant,,
,null,html-keyboard-response,270,416018,0.0-18.0-0.5,SS1602727692346,,null,,,,,,,,,,,,"<img src=images/blank.png width =""500"" height = ""500"" style=""border:5px solid black"">",,,
,65.52500004,stimulus-presentation,271,416695,0.0-18.0-1.5,SS1602727692346,<img src='images/simple/120.png' width ='500' height = '500' style='border:5px solid black'>,40,all_simple,images/simple/120.png,images/simple/54.png,"images/simple/83.png,images/simple/80.png,images/simple/3.png,images/simple/94.png,images/simple/9.png,images/simple/108.png,images/simple/32.png,images/simple/68.png,images/simple/55.png",2,null,,600,665.525,,,,target,,
,null,html-keyboard-response,272,417740,0.0-18.0-0.6,SS1602727692346,,null,,,,,,,,,,,,"<img src=images/blank.png width =""500"" height = ""500"" style=""border:5px solid black"">",,,
,77.90999999,stimulus-presentation,273,418429,0.0-18.0-1.6,SS1602727692346,<img src='images/simple/54.png' width ='500' height = '500' style='border:5px solid black'>,40,all_simple,images/simple/120.png,images/simple/54.png,"images/simple/83.png,images/simple/80.png,images/simple/3.png,images/simple/94.png,images/simple/9.png,images/simple/108.png,images/simple/32.png,images/simple/68.png,images/simple/55.png",2,null,,600,677.91,,,,background,,
,null,html-keyboard-response,274,419409,0.0-18.0-0.7,SS1602727692346,,null,,,,,,,,,,,,"<img src=images/blank.png width =""500"" height = ""500"" style=""border:5px solid black"">",,,
,501.795,stimulus-presentation,275,420525,0.0-18.0-1.7,SS1602727692346,<img src='images/simple/54.png' width ='500' height = '500' style='border:5px solid black'>,40,all_simple,images/simple/120.png,images/simple/54.png,"images/simple/83.png,images/simple/80.png,images/simple/3.png,images/simple/94.png,images/simple/9.png,images/simple/108.png,images/simple/32.png,images/simple/68.png,images/simple/55.png",2,null,,600,1101.795,,,,background,,
,null,html-keyboard-response,276,421468,0.0-18.0-0.8,SS1602727692346,,null,,,,,,,,,,,,"<img src=images/blank.png width =""500"" height = ""500"" style=""border:5px solid black"">",,,
,268.265,stimulus-presentation,277,422351,0.0-18.0-1.8,SS1602727692346,<img src='images/simple/54.png' width ='500' height = '500' style='border:5px solid black'>,40,all_simple,images/simple/120.png,images/simple/54.png,"images/simple/83.png,images/simple/80.png,images/simple/3.png,images/simple/94.png,images/simple/9.png,images/simple/108.png,images/simple/32.png,images/simple/68.png,images/simple/55.png",2,null,,600,868.265,,,,background,,
,null,html-keyboard-response,278,423638,0.0-18.0-0.9,SS1602727692346,,null,,,,,,,,,,,,"<img src=images/blank.png width =""500"" height = ""500"" style=""border:5px solid black"">",,,
,2204.37,stimulus-presentation,279,426454,0.0-18.0-1.9,SS1602727692346,<img src='images/simple/54.png' width ='500' height = '500' style='border:5px solid black'>,40,all_simple,images/simple/120.png,images/simple/54.png,"images/simple/83.png,images/simple/80.png,images/simple/3.png,images/simple/94.png,images/simple/9.png,images/simple/108.png,images/simple/32.png,images/simple/68.png,images/simple/55.png",2,null,,600,2804.37,,,,background,,
,null,html-keyboard-response,280,427673,0.0-18.0-0.10,SS1602727692346,,null,,,,,,,,,,,,"<img src=images/blank.png width =""500"" height = ""500"" style=""border:5px solid black"">",,,
,423.335,stimulus-presentation,281,428709,0.0-18.0-1.10,SS1602727692346,<img src='images/simple/120.png' width ='500' height = '500' style='border:5px solid black'>,40,all_simple,images/simple/120.png,images/simple/54.png,"images/simple/83.png,images/simple/80.png,images/simple/3.png,images/simple/94.png,images/simple/9.png,images/simple/108.png,images/simple/32.png,images/simple/68.png,images/simple/55.png",2,null,,600,1023.335,,,,target,,
,null,html-keyboard-response,282,429973,0.0-18.0-0.11,SS1602727692346,,null,,,,,,,,,,,,"<img src=images/blank.png width =""500"" height = ""500"" style=""border:5px solid black"">",,,
,340.32,stimulus-presentation,283,430926,0.0-18.0-1.11,SS1602727692346,<img src='images/simple/55.png' width ='500' height = '500' style='border:5px solid black'>,40,all_simple,images/simple/120.png,images/simple/54.png,"images/simple/83.png,images/simple/80.png,images/simple/3.png,images/simple/94.png,images/simple/9.png,images/simple/108.png,images/simple/32.png,images/simple/68.png,images/simple/55.png",2,null,,600,940.32,,,,deviant,,
,null,html-keyboard-response,284,432025,0.0-18.0-0.12,SS1602727692346,,null,,,,,,,,,,,,"<img src=images/blank.png width =""500"" height = ""500"" style=""border:5px solid black"">",,,
,416.225,stimulus-presentation,285,433055,0.0-18.0-1.12,SS1602727692346,<img src='images/simple/54.png' width ='500' height = '500' style='border:5px solid black'>,40,all_simple,images/simple/120.png,images/simple/54.png,"images/simple/83.png,images/simple/80.png,images/simple/3.png,images/simple/94.png,images/simple/9.png,images/simple/108.png,images/simple/32.png,images/simple/68.png,images/simple/55.png",2,null,,600,1016.225,,,,background,,
,null,html-keyboard-response,286,433898,0.0-18.0-0.13,SS1602727692346,,null,,,,,,,,,,,,"<img src=images/blank.png width =""500"" height = ""500"" style=""border:5px solid black"">",,,
,330.73,stimulus-presentation,287,434837,0.0-18.0-1.13,SS1602727692346,<img src='images/simple/54.png' width ='500' height = '500' style='border:5px solid black'>,40,all_simple,images/simple/120.png,images/simple/54.png,"images/simple/83.png,images/simple/80.png,images/simple/3.png,images/simple/94.png,images/simple/9.png,images/simple/108.png,images/simple/32.png,images/simple/68.png,images/simple/55.png",2,null,,600,930.73,,,,background,,
,null,html-keyboard-response,288,435876,0.0-18.0-0.14,SS1602727692346,,null,,,,,,,,,,,,"<img src=images/blank.png width =""500"" height = ""500"" style=""border:5px solid black"">",,,
,13.54999997,stimulus-presentation,289,436501,0.0-18.0-1.14,SS1602727692346,<img src='images/simple/120.png' width ='500' height = '500' style='border:5px solid black'>,40,all_simple,images/simple/120.png,images/simple/54.png,"images/simple/83.png,images/simple/80.png,images/simple/3.png,images/simple/94.png,images/simple/9.png,images/simple/108.png,images/simple/32.png,images/simple/68.png,images/simple/55.png",2,null,,600,613.55,,,,target,,
,null,html-keyboard-response,290,437704,0.0-18.0-0.15,SS1602727692346,,null,,,,,,,,,,,,"<img src=images/blank.png width =""500"" height = ""500"" style=""border:5px solid black"">",,,
,1306.26,stimulus-presentation,291,439624,0.0-18.0-1.15,SS1602727692346,<img src='images/simple/54.png' width ='500' height = '500' style='border:5px solid black'>,40,all_simple,images/simple/120.png,images/simple/54.png,"images/simple/83.png,images/simple/80.png,images/simple/3.png,images/simple/94.png,images/simple/9.png,images/simple/108.png,images/simple/32.png,images/simple/68.png,images/simple/55.png",2,null,,600,1906.26,yes,72.34999997,,background,,
,null,html-keyboard-response,292,440719,0.0-18.0-0.16,SS1602727692346,,null,,,,,,,,,,,,"<img src=images/blank.png width =""500"" height = ""500"" style=""border:5px solid black"">",,,
,56.73999997,stimulus-presentation,293,441389,0.0-18.0-1.16,SS1602727692346,<img src='images/simple/54.png' width ='500' height = '500' style='border:5px solid black'>,40,all_simple,images/simple/120.png,images/simple/54.png,"images/simple/83.png,images/simple/80.png,images/simple/3.png,images/simple/94.png,images/simple/9.png,images/simple/108.png,images/simple/32.png,images/simple/68.png,images/simple/55.png",2,null,,600,656.74,,,,background,,
,null,html-keyboard-response,294,442437,0.0-18.0-0.17,SS1602727692346,,null,,,,,,,,,,,,"<img src=images/blank.png width =""500"" height = ""500"" style=""border:5px solid black"">",,,
,392.11,stimulus-presentation,295,443445,0.0-18.0-1.17,SS1602727692346,<img src='images/simple/54.png' width ='500' height = '500' style='border:5px solid black'>,40,all_simple,images/simple/120.png,images/simple/54.png,"images/simple/83.png,images/simple/80.png,images/simple/3.png,images/simple/94.png,images/simple/9.png,images/simple/108.png,images/simple/32.png,images/simple/68.png,images/simple/55.png",2,null,,600,992.11,,,,background,,
,null,html-keyboard-response,296,444291,0.0-18.0-0.18,SS1602727692346,,null,,,,,,,,,,,,"<img src=images/blank.png width =""500"" height = ""500"" style=""border:5px solid black"">",,,
,1462.51,stimulus-presentation,297,446366,0.0-18.0-1.18,SS1602727692346,<img src='images/simple/68.png' width ='500' height = '500' style='border:5px solid black'>,40,all_simple,images/simple/120.png,images/simple/54.png,"images/simple/83.png,images/simple/80.png,images/simple/3.png,images/simple/94.png,images/simple/9.png,images/simple/108.png,images/simple/32.png,images/simple/68.png,images/simple/55.png",2,null,,600,2062.51,,,,deviant,,
,null,html-keyboard-response,298,447566,0.0-18.0-0.19,SS1602727692346,,null,,,,,,,,,,,,"<img src=images/blank.png width =""500"" height = ""500"" style=""border:5px solid black"">",,,
,1021.015,stimulus-presentation,299,449199,0.0-18.0-1.19,SS1602727692346,<img src='images/simple/54.png' width ='500' height = '500' style='border:5px solid black'>,40,all_simple,images/simple/120.png,images/simple/54.png,"images/simple/83.png,images/simple/80.png,images/simple/3.png,images/simple/94.png,images/simple/9.png,images/simple/108.png,images/simple/32.png,images/simple/68.png,images/simple/55.png",2,null,,600,1621.015,,,,background,,
,null,html-keyboard-response,300,450405,0.0-18.0-0.20,SS1602727692346,,null,,,,,,,,,,,,"<img src=images/blank.png width =""500"" height = ""500"" style=""border:5px solid black"">",,,
,1759.63,stimulus-presentation,301,452773,0.0-18.0-1.20,SS1602727692346,<img src='images/simple/54.png' width ='500' height = '500' style='border:5px solid black'>,40,all_simple,images/simple/120.png,images/simple/54.png,"images/simple/83.png,images/simple/80.png,images/simple/3.png,images/simple/94.png,images/simple/9.png,images/simple/108.png,images/simple/32.png,images/simple/68.png,images/simple/55.png",2,null,,600,2359.63,,,,background,,
,null,html-keyboard-response,302,453609,0.0-18.0-0.21,SS1602727692346,,null,,,,,,,,,,,,"<img src=images/blank.png width =""500"" height = ""500"" style=""border:5px solid black"">",,,
,1021.97,stimulus-presentation,303,455246,0.0-18.0-1.21,SS1602727692346,<img src='images/simple/54.png' width ='500' height = '500' style='border:5px solid black'>,40,all_simple,images/simple/120.png,images/simple/54.png,"images/simple/83.png,images/simple/80.png,images/simple/3.png,images/simple/94.png,images/simple/9.png,images/simple/108.png,images/simple/32.png,images/simple/68.png,images/simple/55.png",2,null,,600,1621.97,,,,background,,
,null,html-keyboard-response,304,456443,0.0-18.0-0.22,SS1602727692346,,null,,,,,,,,,,,,"<img src=images/blank.png width =""500"" height = ""500"" style=""border:5px solid black"">",,,
,554.845,stimulus-presentation,305,457614,0.0-18.0-1.22,SS1602727692346,<img src='images/simple/54.png' width ='500' height = '500' style='border:5px solid black'>,40,all_simple,images/simple/120.png,images/simple/54.png,"images/simple/83.png,images/simple/80.png,images/simple/3.png,images/simple/94.png,images/simple/9.png,images/simple/108.png,images/simple/32.png,images/simple/68.png,images/simple/55.png",2,null,,600,1154.845,,,,background,,
,null,html-keyboard-response,306,458785,0.0-18.0-0.23,SS1602727692346,,null,,,,,,,,,,,,"<img src=images/blank.png width =""500"" height = ""500"" style=""border:5px solid black"">",,,
,968.97,stimulus-presentation,307,460366,0.0-18.0-1.23,SS1602727692346,<img src='images/simple/54.png' width ='500' height = '500' style='border:5px solid black'>,40,all_simple,images/simple/120.png,images/simple/54.png,"images/simple/83.png,images/simple/80.png,images/simple/3.png,images/simple/94.png,images/simple/9.png,images/simple/108.png,images/simple/32.png,images/simple/68.png,images/simple/55.png",2,null,,600,1568.97,,,,background,,
,null,html-keyboard-response,308,461424,0.0-18.0-0.24,SS1602727692346,,null,,,,,,,,,,,,"<img src=images/blank.png width =""500"" height = ""500"" style=""border:5px solid black"">",,,
,2685.085,stimulus-presentation,309,464719,0.0-18.0-1.24,SS1602727692346,<img src='images/simple/54.png' width ='500' height = '500' style='border:5px solid black'>,40,all_simple,images/simple/120.png,images/simple/54.png,"images/simple/83.png,images/simple/80.png,images/simple/3.png,images/simple/94.png,images/simple/9.png,images/simple/108.png,images/simple/32.png,images/simple/68.png,images/simple/55.png",2,null,,600,3285.085,,,,background,,
,null,html-keyboard-response,310,465947,0.0-18.0-0.25,SS1602727692346,,null,,,,,,,,,,,,"<img src=images/blank.png width =""500"" height = ""500"" style=""border:5px solid black"">",,,
,992.36,stimulus-presentation,311,467551,0.0-18.0-1.25,SS1602727692346,<img src='images/simple/54.png' width ='500' height = '500' style='border:5px solid black'>,40,all_simple,images/simple/120.png,images/simple/54.png,"images/simple/83.png,images/simple/80.png,images/simple/3.png,images/simple/94.png,images/simple/9.png,images/simple/108.png,images/simple/32.png,images/simple/68.png,images/simple/55.png",2,null,,600,1592.36,,,,background,,
,null,html-keyboard-response,312,468543,0.0-18.0-0.26,SS1602727692346,,null,,,,,,,,,,,,"<img src=images/blank.png width =""500"" height = ""500"" style=""border:5px solid black"">",,,
,690.92,stimulus-presentation,313,469847,0.0-18.0-1.26,SS1602727692346,<img src='images/simple/54.png' width ='500' height = '500' style='border:5px solid black'>,40,all_simple,images/simple/120.png,images/simple/54.png,"images/simple/83.png,images/simple/80.png,images/simple/3.png,images/simple/94.png,images/simple/9.png,images/simple/108.png,images/simple/32.png,images/simple/68.png,images/simple/55.png",2,null,,600,1290.92,,,,background,,
