"view_history","rt","trial_type","trial_index","time_elapsed","internal_node_id","subject","trial_stimulus","key_press","task_type","task_target_stimulus","task_background_stimulus","task_deviant_stimuli","task_order_number","block_order_number","trial_order_number","minimum_viewing_duration","trial_looking_time","trial_pressed_space_bar","trial_space_bar_rt","stimulus","trial_stimulus_type","responses","question_order"
"[{""page_index"":0,""viewing_time"":2737.3099999967963},{""page_index"":1,""viewing_time"":439.3399999826215},{""page_index"":2,""viewing_time"":343.17500004544854},{""page_index"":3,""viewing_time"":29721.869999950286},{""page_index"":4,""viewing_time"":671.1400000494905},{""page_index"":5,""viewing_time"":639.6949999616481},{""page_index"":6,""viewing_time"":456.26000000629574},{""page_index"":7,""viewing_time"":423.8950000144541}]","35434.69999998342","instructions","0","35440","0.0-0.0","SS1602822284263","","","","","","","","","","","","","","","","",""
"[{""page_index"":0,""viewing_time"":1255.0499999779277},{""page_index"":1,""viewing_time"":1234.4550000270829},{""page_index"":2,""viewing_time"":1056.0200000181794}]","3546.0999999777414","instructions","1","38989","0.0-1.0","SS1602822284263","","","","","","","","","","","","","","","","",""
"","1416.0499999998137","practice-block","2","40611","0.0-2.0","SS1602822284263","<img src='images/practice/practice_background.jpeg' width ='500' height = '500' style='border:5px solid black'>","40","null","images/practice/practice_target.jpg","null","null","null","null","","200","1616.0499999998137","","","","","",""
"","null","html-keyboard-response","3","41465","0.0-3.0","SS1602822284263","","null","","","","","","","","","","","","<img src=images/blank.png width =""500"" height = ""500"" style=""border:5px solid black"">","","",""
"","752.4200000334531","practice-block","4","42426","0.0-4.0","SS1602822284263","<img src='images/practice/practice_background.jpeg' width ='500' height = '500' style='border:5px solid black'>","40","null","images/practice/practice_target.jpg","null","null","null","null","","200","952.4200000334531","","","","","",""
"","null","html-keyboard-response","5","43491","0.0-5.0","SS1602822284263","","null","","","","","","","","","","","","<img src=images/blank.png width =""500"" height = ""500"" style=""border:5px solid black"">","","",""
"","626.7900000093505","practice-block","6","44323","0.0-6.0","SS1602822284263","<img src='images/practice/practice_deviant.jpeg' width ='500' height = '500' style='border:5px solid black'>","40","null","images/practice/practice_target.jpg","null","null","null","null","","200","826.7900000093505","","","","","",""
"","null","html-keyboard-response","7","45198","0.0-7.0","SS1602822284263","","null","","","","","","","","","","","","<img src=images/blank.png width =""500"" height = ""500"" style=""border:5px solid black"">","","",""
"","785.8600000035949","practice-block","8","50808","0.0-8.0-0.0","SS1602822284263","<img src='images/practice/practice_target.jpg' width ='500' height = '500' style='border:5px solid black'>","40","null","images/practice/practice_target.jpg","null","null","null","null","","200","985.8600000035949","","","","","",""
"","5714.295000012498","practice-block","9","56730","0.0-8.1-0.1","SS1602822284263","<img src='images/practice/practice_target.jpg' width ='500' height = '500' style='border:5px solid black'>","40","null","images/practice/practice_target.jpg","null","null","null","null","","200","5914.295000012498","yes","1461.0450000036508","","","",""
"","null","html-keyboard-response","10","57537","0.0-9.0","SS1602822284263","","null","","","","","","","","","","","","<img src=images/blank.png width =""500"" height = ""500"" style=""border:5px solid black"">","","",""
"","805.0849999999627","practice-block","11","58546","0.0-10.0","SS1602822284263","<img src='images/practice/practice_background.jpeg' width ='500' height = '500' style='border:5px solid black'>","40","null","images/practice/practice_target.jpg","null","null","null","null","","200","1005.0849999999627","","","","","",""
"[{""page_index"":0,""viewing_time"":1599}]","1600","task-instructions","12","60149","0.0-11.0","SS1602822284263","","","","","","","","","","","","","","","","",""
"[{""page_index"":0,""viewing_time"":1277.7000000351109},{""page_index"":1,""viewing_time"":1639.6850000019185},{""page_index"":2,""viewing_time"":976.2499999487773}]","3894.0200000070035","instructions","13","64045","0.0-12.0","SS1602822284263","","","","","","","","","","","","","","","","",""
"","null","html-keyboard-response","14","65316","0.0-13.0-0.0","SS1602822284263","","null","","","","","","","","","","","","<img src=images/blank.png width =""500"" height = ""500"" style=""border:5px solid black"">","","",""
"","468.8299999688752","stimulus-presentation","15","65995","0.0-13.0-1.0","SS1602822284263","<img src='images/complex/8.png' width ='500' height = '500' style='border:5px solid black'>","40","mixed_simple_deviant","images/complex/8.png","images/complex/5.png","images/simple/15.png,images/simple/14.png,images/simple/10.png,images/simple/1.png,images/simple/7.png,images/simple/13.png,images/simple/17.png","0","null","","200","668.8299999688752","","","","target","",""
"","null","html-keyboard-response","16","67211","0.0-13.0-0.1","SS1602822284263","","null","","","","","","","","","","","","<img src=images/blank.png width =""500"" height = ""500"" style=""border:5px solid black"">","","",""
"","453.1849999912083","stimulus-presentation","17","67874","0.0-13.0-1.1","SS1602822284263","<img src='images/complex/5.png' width ='500' height = '500' style='border:5px solid black'>","40","mixed_simple_deviant","images/complex/8.png","images/complex/5.png","images/simple/15.png,images/simple/14.png,images/simple/10.png,images/simple/1.png,images/simple/7.png,images/simple/13.png,images/simple/17.png","0","null","","200","653.1849999912083","","","","background","",""
"","null","html-keyboard-response","18","69028","0.0-13.0-0.2","SS1602822284263","","null","","","","","","","","","","","","<img src=images/blank.png width =""500"" height = ""500"" style=""border:5px solid black"">","","",""
"","309.320000000298","stimulus-presentation","19","69545","0.0-13.0-1.2","SS1602822284263","<img src='images/complex/5.png' width ='500' height = '500' style='border:5px solid black'>","40","mixed_simple_deviant","images/complex/8.png","images/complex/5.png","images/simple/15.png,images/simple/14.png,images/simple/10.png,images/simple/1.png,images/simple/7.png,images/simple/13.png,images/simple/17.png","0","null","","200","509.320000000298","","","","background","",""
"","null","html-keyboard-response","20","70463","0.0-13.0-0.3","SS1602822284263","","null","","","","","","","","","","","","<img src=images/blank.png width =""500"" height = ""500"" style=""border:5px solid black"">","","",""
"","178.77499997848645","stimulus-presentation","21","70850","0.0-13.0-1.3","SS1602822284263","<img src='images/complex/5.png' width ='500' height = '500' style='border:5px solid black'>","40","mixed_simple_deviant","images/complex/8.png","images/complex/5.png","images/simple/15.png,images/simple/14.png,images/simple/10.png,images/simple/1.png,images/simple/7.png,images/simple/13.png,images/simple/17.png","0","null","","200","378.77499997848645","","","","background","",""
"","null","html-keyboard-response","22","71886","0.0-13.0-0.4","SS1602822284263","","null","","","","","","","","","","","","<img src=images/blank.png width =""500"" height = ""500"" style=""border:5px solid black"">","","",""
"","202.5349999894388","stimulus-presentation","23","72299","0.0-13.0-1.4","SS1602822284263","<img src='images/complex/5.png' width ='500' height = '500' style='border:5px solid black'>","40","mixed_simple_deviant","images/complex/8.png","images/complex/5.png","images/simple/15.png,images/simple/14.png,images/simple/10.png,images/simple/1.png,images/simple/7.png,images/simple/13.png,images/simple/17.png","0","null","","200","402.5349999894388","","","","background","",""
"","null","html-keyboard-response","24","73252","0.0-13.0-0.5","SS1602822284263","","null","","","","","","","","","","","","<img src=images/blank.png width =""500"" height = ""500"" style=""border:5px solid black"">","","",""
"","314.4349999492988","stimulus-presentation","25","73775","0.0-13.0-1.5","SS1602822284263","<img src='images/complex/5.png' width ='500' height = '500' style='border:5px solid black'>","40","mixed_simple_deviant","images/complex/8.png","images/complex/5.png","images/simple/15.png,images/simple/14.png,images/simple/10.png,images/simple/1.png,images/simple/7.png,images/simple/13.png,images/simple/17.png","0","null","","200","514.4349999492988","","","","background","",""
"","null","html-keyboard-response","26","74802","0.0-13.0-0.6","SS1602822284263","","null","","","","","","","","","","","","<img src=images/blank.png width =""500"" height = ""500"" style=""border:5px solid black"">","","",""
"","253.00500000594184","stimulus-presentation","27","75263","0.0-13.0-1.6","SS1602822284263","<img src='images/complex/8.png' width ='500' height = '500' style='border:5px solid black'>","40","mixed_simple_deviant","images/complex/8.png","images/complex/5.png","images/simple/15.png,images/simple/14.png,images/simple/10.png,images/simple/1.png,images/simple/7.png,images/simple/13.png,images/simple/17.png","0","null","","200","453.00500000594184","","","","target","",""
"","null","html-keyboard-response","28","76201","0.0-13.0-0.7","SS1602822284263","","null","","","","","","","","","","","","<img src=images/blank.png width =""500"" height = ""500"" style=""border:5px solid black"">","","",""
"","351.7850000062026","stimulus-presentation","29","76756","0.0-13.0-1.7","SS1602822284263","<img src='images/complex/5.png' width ='500' height = '500' style='border:5px solid black'>","40","mixed_simple_deviant","images/complex/8.png","images/complex/5.png","images/simple/15.png,images/simple/14.png,images/simple/10.png,images/simple/1.png,images/simple/7.png,images/simple/13.png,images/simple/17.png","0","null","","200","551.7850000062026","","","","background","",""
"","null","html-keyboard-response","30","78046","0.0-13.0-0.8","SS1602822284263","","null","","","","","","","","","","","","<img src=images/blank.png width =""500"" height = ""500"" style=""border:5px solid black"">","","",""
"","190.1450000004843","stimulus-presentation","31","78443","0.0-13.0-1.8","SS1602822284263","<img src='images/simple/15.png' width ='500' height = '500' style='border:5px solid black'>","40","mixed_simple_deviant","images/complex/8.png","images/complex/5.png","images/simple/15.png,images/simple/14.png,images/simple/10.png,images/simple/1.png,images/simple/7.png,images/simple/13.png,images/simple/17.png","0","null","","200","390.1450000004843","","","","deviant","",""
"","null","html-keyboard-response","32","79506","0.0-13.0-0.9","SS1602822284263","","null","","","","","","","","","","","","<img src=images/blank.png width =""500"" height = ""500"" style=""border:5px solid black"">","","",""
"","898.1350000249222","stimulus-presentation","33","80609","0.0-13.0-1.9","SS1602822284263","<img src='images/complex/8.png' width ='500' height = '500' style='border:5px solid black'>","40","mixed_simple_deviant","images/complex/8.png","images/complex/5.png","images/simple/15.png,images/simple/14.png,images/simple/10.png,images/simple/1.png,images/simple/7.png,images/simple/13.png,images/simple/17.png","0","null","","200","1098.1350000249222","yes","275.15499998116866","","target","",""
"","null","html-keyboard-response","34","81510","0.0-13.0-0.10","SS1602822284263","","null","","","","","","","","","","","","<img src=images/blank.png width =""500"" height = ""500"" style=""border:5px solid black"">","","",""
"","285.4899999802001","stimulus-presentation","35","82002","0.0-13.0-1.10","SS1602822284263","<img src='images/complex/5.png' width ='500' height = '500' style='border:5px solid black'>","40","mixed_simple_deviant","images/complex/8.png","images/complex/5.png","images/simple/15.png,images/simple/14.png,images/simple/10.png,images/simple/1.png,images/simple/7.png,images/simple/13.png,images/simple/17.png","0","null","","200","485.4899999802001","","","","background","",""
"","null","html-keyboard-response","36","83076","0.0-13.0-0.11","SS1602822284263","","null","","","","","","","","","","","","<img src=images/blank.png width =""500"" height = ""500"" style=""border:5px solid black"">","","",""
"","192.96499999472871","stimulus-presentation","37","83475","0.0-13.0-1.11","SS1602822284263","<img src='images/complex/5.png' width ='500' height = '500' style='border:5px solid black'>","40","mixed_simple_deviant","images/complex/8.png","images/complex/5.png","images/simple/15.png,images/simple/14.png,images/simple/10.png,images/simple/1.png,images/simple/7.png,images/simple/13.png,images/simple/17.png","0","null","","200","392.9649999947287","","","","background","",""
"","null","html-keyboard-response","38","84315","0.0-13.0-0.12","SS1602822284263","","null","","","","","","","","","","","","<img src=images/blank.png width =""500"" height = ""500"" style=""border:5px solid black"">","","",""
"","369.30000002030283","stimulus-presentation","39","84892","0.0-13.0-1.12","SS1602822284263","<img src='images/simple/17.png' width ='500' height = '500' style='border:5px solid black'>","40","mixed_simple_deviant","images/complex/8.png","images/complex/5.png","images/simple/15.png,images/simple/14.png,images/simple/10.png,images/simple/1.png,images/simple/7.png,images/simple/13.png,images/simple/17.png","0","null","","200","569.3000000203028","","","","deviant","",""
"","null","html-keyboard-response","40","85877","0.0-13.0-0.13","SS1602822284263","","null","","","","","","","","","","","","<img src=images/blank.png width =""500"" height = ""500"" style=""border:5px solid black"">","","",""
"","830.8949999627657","stimulus-presentation","41","86916","0.0-13.0-1.13","SS1602822284263","<img src='images/complex/5.png' width ='500' height = '500' style='border:5px solid black'>","40","mixed_simple_deviant","images/complex/8.png","images/complex/5.png","images/simple/15.png,images/simple/14.png,images/simple/10.png,images/simple/1.png,images/simple/7.png,images/simple/13.png,images/simple/17.png","0","null","","200","1030.8949999627657","yes","349.4899999932386","","background","",""
"","null","html-keyboard-response","42","87946","0.0-13.0-0.14","SS1602822284263","","null","","","","","","","","","","","","<img src=images/blank.png width =""500"" height = ""500"" style=""border:5px solid black"">","","",""
"","185.82000001333654","stimulus-presentation","43","88339","0.0-13.0-1.14","SS1602822284263","<img src='images/complex/5.png' width ='500' height = '500' style='border:5px solid black'>","40","mixed_simple_deviant","images/complex/8.png","images/complex/5.png","images/simple/15.png,images/simple/14.png,images/simple/10.png,images/simple/1.png,images/simple/7.png,images/simple/13.png,images/simple/17.png","0","null","","200","385.82000001333654","","","","background","",""
"","null","html-keyboard-response","44","89629","0.0-13.0-0.15","SS1602822284263","","null","","","","","","","","","","","","<img src=images/blank.png width =""500"" height = ""500"" style=""border:5px solid black"">","","",""
"","868.8449999899603","stimulus-presentation","45","90706","0.0-13.0-1.15","SS1602822284263","<img src='images/complex/8.png' width ='500' height = '500' style='border:5px solid black'>","40","mixed_simple_deviant","images/complex/8.png","images/complex/5.png","images/simple/15.png,images/simple/14.png,images/simple/10.png,images/simple/1.png,images/simple/7.png,images/simple/13.png,images/simple/17.png","0","null","","200","1068.8449999899603","yes","259.98999999137595","","target","",""
"","null","html-keyboard-response","46","91822","0.0-13.0-0.16","SS1602822284263","","null","","","","","","","","","","","","<img src=images/blank.png width =""500"" height = ""500"" style=""border:5px solid black"">","","",""
"","229.26500003086403","stimulus-presentation","47","92261","0.0-13.0-1.16","SS1602822284263","<img src='images/complex/5.png' width ='500' height = '500' style='border:5px solid black'>","40","mixed_simple_deviant","images/complex/8.png","images/complex/5.png","images/simple/15.png,images/simple/14.png,images/simple/10.png,images/simple/1.png,images/simple/7.png,images/simple/13.png,images/simple/17.png","0","null","","200","429.26500003086403","","","","background","",""
"","null","html-keyboard-response","48","93243","0.0-13.0-0.17","SS1602822284263","","null","","","","","","","","","","","","<img src=images/blank.png width =""500"" height = ""500"" style=""border:5px solid black"">","","",""
"","292.6300000399351","stimulus-presentation","49","93746","0.0-13.0-1.17","SS1602822284263","<img src='images/simple/13.png' width ='500' height = '500' style='border:5px solid black'>","40","mixed_simple_deviant","images/complex/8.png","images/complex/5.png","images/simple/15.png,images/simple/14.png,images/simple/10.png,images/simple/1.png,images/simple/7.png,images/simple/13.png,images/simple/17.png","0","null","","200","492.6300000399351","","","","deviant","",""
"","null","html-keyboard-response","50","94618","0.0-13.0-0.18","SS1602822284263","","null","","","","","","","","","","","","<img src=images/blank.png width =""500"" height = ""500"" style=""border:5px solid black"">","","",""
"","451.2749999994412","stimulus-presentation","51","95274","0.0-13.0-1.18","SS1602822284263","<img src='images/complex/5.png' width ='500' height = '500' style='border:5px solid black'>","40","mixed_simple_deviant","images/complex/8.png","images/complex/5.png","images/simple/15.png,images/simple/14.png,images/simple/10.png,images/simple/1.png,images/simple/7.png,images/simple/13.png,images/simple/17.png","0","null","","200","651.2749999994412","","","","background","",""
"","null","html-keyboard-response","52","96111","0.0-13.0-0.19","SS1602822284263","","null","","","","","","","","","","","","<img src=images/blank.png width =""500"" height = ""500"" style=""border:5px solid black"">","","",""
"","1116.730000008829","stimulus-presentation","53","97435","0.0-13.0-1.19","SS1602822284263","<img src='images/complex/8.png' width ='500' height = '500' style='border:5px solid black'>","40","mixed_simple_deviant","images/complex/8.png","images/complex/5.png","images/simple/15.png,images/simple/14.png,images/simple/10.png,images/simple/1.png,images/simple/7.png,images/simple/13.png,images/simple/17.png","0","null","","200","1316.730000008829","yes","443.459999980405","","target","",""
"","null","html-keyboard-response","54","98308","0.0-13.0-0.20","SS1602822284263","","null","","","","","","","","","","","","<img src=images/blank.png width =""500"" height = ""500"" style=""border:5px solid black"">","","",""
"","161.9850000133738","stimulus-presentation","55","98678","0.0-13.0-1.20","SS1602822284263","<img src='images/complex/5.png' width ='500' height = '500' style='border:5px solid black'>","40","mixed_simple_deviant","images/complex/8.png","images/complex/5.png","images/simple/15.png,images/simple/14.png,images/simple/10.png,images/simple/1.png,images/simple/7.png,images/simple/13.png,images/simple/17.png","0","null","","200","361.9850000133738","","","","background","",""
"","null","html-keyboard-response","56","99635","0.0-13.0-0.21","SS1602822284263","","null","","","","","","","","","","","","<img src=images/blank.png width =""500"" height = ""500"" style=""border:5px solid black"">","","",""
"","142.26999995298684","stimulus-presentation","57","99985","0.0-13.0-1.21","SS1602822284263","<img src='images/complex/5.png' width ='500' height = '500' style='border:5px solid black'>","40","mixed_simple_deviant","images/complex/8.png","images/complex/5.png","images/simple/15.png,images/simple/14.png,images/simple/10.png,images/simple/1.png,images/simple/7.png,images/simple/13.png,images/simple/17.png","0","null","","200","342.26999995298684","","","","background","",""
"","null","html-keyboard-response","58","100943","0.0-13.0-0.22","SS1602822284263","","null","","","","","","","","","","","","<img src=images/blank.png width =""500"" height = ""500"" style=""border:5px solid black"">","","",""
"","243.819999974221","stimulus-presentation","59","101395","0.0-13.0-1.22","SS1602822284263","<img src='images/complex/5.png' width ='500' height = '500' style='border:5px solid black'>","40","mixed_simple_deviant","images/complex/8.png","images/complex/5.png","images/simple/15.png,images/simple/14.png,images/simple/10.png,images/simple/1.png,images/simple/7.png,images/simple/13.png,images/simple/17.png","0","null","","200","443.819999974221","","","","background","",""
"","null","html-keyboard-response","60","102447","0.0-13.0-0.23","SS1602822284263","","null","","","","","","","","","","","","<img src=images/blank.png width =""500"" height = ""500"" style=""border:5px solid black"">","","",""
"","934.9899999797344","stimulus-presentation","61","103594","0.0-13.0-1.23","SS1602822284263","<img src='images/complex/8.png' width ='500' height = '500' style='border:5px solid black'>","40","mixed_simple_deviant","images/complex/8.png","images/complex/5.png","images/simple/15.png,images/simple/14.png,images/simple/10.png,images/simple/1.png,images/simple/7.png,images/simple/13.png,images/simple/17.png","0","null","","200","1134.9899999797344","yes","367.38999997032806","","target","",""
"","null","html-keyboard-response","62","104719","0.0-13.0-0.24","SS1602822284263","","null","","","","","","","","","","","","<img src=images/blank.png width =""500"" height = ""500"" style=""border:5px solid black"">","","",""
"","939.1550000291318","stimulus-presentation","63","105865","0.0-13.0-1.24","SS1602822284263","<img src='images/complex/5.png' width ='500' height = '500' style='border:5px solid black'>","40","mixed_simple_deviant","images/complex/8.png","images/complex/5.png","images/simple/15.png,images/simple/14.png,images/simple/10.png,images/simple/1.png,images/simple/7.png,images/simple/13.png,images/simple/17.png","0","null","","200","1139.1550000291318","","","","background","",""
"","null","html-keyboard-response","64","106792","0.0-13.0-0.25","SS1602822284263","","null","","","","","","","","","","","","<img src=images/blank.png width =""500"" height = ""500"" style=""border:5px solid black"">","","",""
"","1457.2950000292622","stimulus-presentation","65","108460","0.0-13.0-1.25","SS1602822284263","<img src='images/complex/5.png' width ='500' height = '500' style='border:5px solid black'>","40","mixed_simple_deviant","images/complex/8.png","images/complex/5.png","images/simple/15.png,images/simple/14.png,images/simple/10.png,images/simple/1.png,images/simple/7.png,images/simple/13.png,images/simple/17.png","0","null","","200","1657.2950000292622","","","","background","",""
"","null","html-keyboard-response","66","109392","0.0-13.0-0.26","SS1602822284263","","null","","","","","","","","","","","","<img src=images/blank.png width =""500"" height = ""500"" style=""border:5px solid black"">","","",""
"","628.7599999923259","stimulus-presentation","67","110232","0.0-13.0-1.26","SS1602822284263","<img src='images/complex/5.png' width ='500' height = '500' style='border:5px solid black'>","40","mixed_simple_deviant","images/complex/8.png","images/complex/5.png","images/simple/15.png,images/simple/14.png,images/simple/10.png,images/simple/1.png,images/simple/7.png,images/simple/13.png,images/simple/17.png","0","null","","200","828.7599999923259","","","","background","",""
"","null","html-keyboard-response","68","111257","0.0-13.0-0.27","SS1602822284263","","null","","","","","","","","","","","","<img src=images/blank.png width =""500"" height = ""500"" style=""border:5px solid black"">","","",""
"","1683.164999994915","stimulus-presentation","69","113154","0.0-13.0-1.27","SS1602822284263","<img src='images/complex/8.png' width ='500' height = '500' style='border:5px solid black'>","40","mixed_simple_deviant","images/complex/8.png","images/complex/5.png","images/simple/15.png,images/simple/14.png,images/simple/10.png,images/simple/1.png,images/simple/7.png,images/simple/13.png,images/simple/17.png","0","null","","200","1883.164999994915","","","","target","",""
"","null","html-keyboard-response","70","114048","0.0-13.0-0.28","SS1602822284263","","null","","","","","","","","","","","","<img src=images/blank.png width =""500"" height = ""500"" style=""border:5px solid black"">","","",""
"","634.6849999972619","stimulus-presentation","71","114891","0.0-13.0-1.28","SS1602822284263","<img src='images/simple/10.png' width ='500' height = '500' style='border:5px solid black'>","40","mixed_simple_deviant","images/complex/8.png","images/complex/5.png","images/simple/15.png,images/simple/14.png,images/simple/10.png,images/simple/1.png,images/simple/7.png,images/simple/13.png,images/simple/17.png","0","null","","200","834.6849999972619","","","","deviant","",""
"","null","html-keyboard-response","72","115753","0.0-13.0-0.29","SS1602822284263","","null","","","","","","","","","","","","<img src=images/blank.png width =""500"" height = ""500"" style=""border:5px solid black"">","","",""
"","232.2099999873899","stimulus-presentation","73","116195","0.0-13.0-1.29","SS1602822284263","<img src='images/complex/5.png' width ='500' height = '500' style='border:5px solid black'>","40","mixed_simple_deviant","images/complex/8.png","images/complex/5.png","images/simple/15.png,images/simple/14.png,images/simple/10.png,images/simple/1.png,images/simple/7.png,images/simple/13.png,images/simple/17.png","0","null","","200","432.2099999873899","","","","background","",""
"","null","html-keyboard-response","74","117395","0.0-13.0-0.30","SS1602822284263","","null","","","","","","","","","","","","<img src=images/blank.png width =""500"" height = ""500"" style=""border:5px solid black"">","","",""
"","224.23500003060326","stimulus-presentation","75","117828","0.0-13.0-1.30","SS1602822284263","<img src='images/complex/5.png' width ='500' height = '500' style='border:5px solid black'>","40","mixed_simple_deviant","images/complex/8.png","images/complex/5.png","images/simple/15.png,images/simple/14.png,images/simple/10.png,images/simple/1.png,images/simple/7.png,images/simple/13.png,images/simple/17.png","0","null","","200","424.23500003060326","","","","background","",""
"","null","html-keyboard-response","76","118693","0.0-13.0-0.31","SS1602822284263","","null","","","","","","","","","","","","<img src=images/blank.png width =""500"" height = ""500"" style=""border:5px solid black"">","","",""
"","213.64999999059364","stimulus-presentation","77","119117","0.0-13.0-1.31","SS1602822284263","<img src='images/complex/5.png' width ='500' height = '500' style='border:5px solid black'>","40","mixed_simple_deviant","images/complex/8.png","images/complex/5.png","images/simple/15.png,images/simple/14.png,images/simple/10.png,images/simple/1.png,images/simple/7.png,images/simple/13.png,images/simple/17.png","0","null","","200","413.64999999059364","","","","background","",""
"","null","html-keyboard-response","78","120103","0.0-13.0-0.32","SS1602822284263","","null","","","","","","","","","","","","<img src=images/blank.png width =""500"" height = ""500"" style=""border:5px solid black"">","","",""
"","195.91000000946224","stimulus-presentation","79","120506","0.0-13.0-1.32","SS1602822284263","<img src='images/complex/5.png' width ='500' height = '500' style='border:5px solid black'>","40","mixed_simple_deviant","images/complex/8.png","images/complex/5.png","images/simple/15.png,images/simple/14.png,images/simple/10.png,images/simple/1.png,images/simple/7.png,images/simple/13.png,images/simple/17.png","0","null","","200","395.91000000946224","","","","background","",""
"","null","html-keyboard-response","80","121694","0.0-13.0-0.33","SS1602822284263","","null","","","","","","","","","","","","<img src=images/blank.png width =""500"" height = ""500"" style=""border:5px solid black"">","","",""
"","539.1149999923073","stimulus-presentation","81","122443","0.0-13.0-1.33","SS1602822284263","<img src='images/simple/7.png' width ='500' height = '500' style='border:5px solid black'>","40","mixed_simple_deviant","images/complex/8.png","images/complex/5.png","images/simple/15.png,images/simple/14.png,images/simple/10.png,images/simple/1.png,images/simple/7.png,images/simple/13.png,images/simple/17.png","0","null","","200","739.1149999923073","","","","deviant","",""
"","null","html-keyboard-response","82","123328","0.0-13.0-0.34","SS1602822284263","","null","","","","","","","","","","","","<img src=images/blank.png width =""500"" height = ""500"" style=""border:5px solid black"">","","",""
"","248.84499999461696","stimulus-presentation","83","123785","0.0-13.0-1.34","SS1602822284263","<img src='images/complex/5.png' width ='500' height = '500' style='border:5px solid black'>","40","mixed_simple_deviant","images/complex/8.png","images/complex/5.png","images/simple/15.png,images/simple/14.png,images/simple/10.png,images/simple/1.png,images/simple/7.png,images/simple/13.png,images/simple/17.png","0","null","","200","448.84499999461696","","","","background","",""
"","null","html-keyboard-response","84","124853","0.0-13.0-0.35","SS1602822284263","","null","","","","","","","","","","","","<img src=images/blank.png width =""500"" height = ""500"" style=""border:5px solid black"">","","",""
"","244.47999999392778","stimulus-presentation","85","125306","0.0-13.0-1.35","SS1602822284263","<img src='images/complex/5.png' width ='500' height = '500' style='border:5px solid black'>","40","mixed_simple_deviant","images/complex/8.png","images/complex/5.png","images/simple/15.png,images/simple/14.png,images/simple/10.png,images/simple/1.png,images/simple/7.png,images/simple/13.png,images/simple/17.png","0","null","","200","444.4799999939278","","","","background","",""
"","null","html-keyboard-response","86","126380","0.0-13.0-0.36","SS1602822284263","","null","","","","","","","","","","","","<img src=images/blank.png width =""500"" height = ""500"" style=""border:5px solid black"">","","",""
"","363.68499998934567","stimulus-presentation","87","126953","0.0-13.0-1.36","SS1602822284263","<img src='images/simple/14.png' width ='500' height = '500' style='border:5px solid black'>","40","mixed_simple_deviant","images/complex/8.png","images/complex/5.png","images/simple/15.png,images/simple/14.png,images/simple/10.png,images/simple/1.png,images/simple/7.png,images/simple/13.png,images/simple/17.png","0","null","","200","563.6849999893457","","","","deviant","",""
"","null","html-keyboard-response","88","127984","0.0-13.0-0.37","SS1602822284263","","null","","","","","","","","","","","","<img src=images/blank.png width =""500"" height = ""500"" style=""border:5px solid black"">","","",""
"","356.58500000135973","stimulus-presentation","89","128547","0.0-13.0-1.37","SS1602822284263","<img src='images/complex/5.png' width ='500' height = '500' style='border:5px solid black'>","40","mixed_simple_deviant","images/complex/8.png","images/complex/5.png","images/simple/15.png,images/simple/14.png,images/simple/10.png,images/simple/1.png,images/simple/7.png,images/simple/13.png,images/simple/17.png","0","null","","200","556.5850000013597","","","","background","",""
"","null","html-keyboard-response","90","129391","0.0-13.0-0.38","SS1602822284263","","null","","","","","","","","","","","","<img src=images/blank.png width =""500"" height = ""500"" style=""border:5px solid black"">","","",""
"","208.95000000018626","stimulus-presentation","91","129810","0.0-13.0-1.38","SS1602822284263","<img src='images/complex/5.png' width ='500' height = '500' style='border:5px solid black'>","40","mixed_simple_deviant","images/complex/8.png","images/complex/5.png","images/simple/15.png,images/simple/14.png,images/simple/10.png,images/simple/1.png,images/simple/7.png,images/simple/13.png,images/simple/17.png","0","null","","200","408.95000000018626","","","","background","",""
"","null","html-keyboard-response","92","130652","0.0-13.0-0.39","SS1602822284263","","null","","","","","","","","","","","","<img src=images/blank.png width =""500"" height = ""500"" style=""border:5px solid black"">","","",""
"","177.44499997934327","stimulus-presentation","93","131040","0.0-13.0-1.39","SS1602822284263","<img src='images/complex/5.png' width ='500' height = '500' style='border:5px solid black'>","40","mixed_simple_deviant","images/complex/8.png","images/complex/5.png","images/simple/15.png,images/simple/14.png,images/simple/10.png,images/simple/1.png,images/simple/7.png,images/simple/13.png,images/simple/17.png","0","null","","200","377.44499997934327","","","","background","",""
"","null","html-keyboard-response","94","132099","0.0-13.0-0.40","SS1602822284263","","null","","","","","","","","","","","","<img src=images/blank.png width =""500"" height = ""500"" style=""border:5px solid black"">","","",""
"","281.2699999776669","stimulus-presentation","95","132588","0.0-13.0-1.40","SS1602822284263","<img src='images/simple/1.png' width ='500' height = '500' style='border:5px solid black'>","40","mixed_simple_deviant","images/complex/8.png","images/complex/5.png","images/simple/15.png,images/simple/14.png,images/simple/10.png,images/simple/1.png,images/simple/7.png,images/simple/13.png,images/simple/17.png","0","null","","200","481.2699999776669","","","","deviant","",""
"","null","html-keyboard-response","96","133482","0.0-13.0-0.41","SS1602822284263","","null","","","","","","","","","","","","<img src=images/blank.png width =""500"" height = ""500"" style=""border:5px solid black"">","","",""
"","470.5299999914132","stimulus-presentation","97","134162","0.0-13.0-1.41","SS1602822284263","<img src='images/complex/5.png' width ='500' height = '500' style='border:5px solid black'>","40","mixed_simple_deviant","images/complex/8.png","images/complex/5.png","images/simple/15.png,images/simple/14.png,images/simple/10.png,images/simple/1.png,images/simple/7.png,images/simple/13.png,images/simple/17.png","0","null","","200","670.5299999914132","","","","background","",""
"","null","html-keyboard-response","98","135176","0.0-13.0-0.42","SS1602822284263","","null","","","","","","","","","","","","<img src=images/blank.png width =""500"" height = ""500"" style=""border:5px solid black"">","","",""
"","165.0849999859929","stimulus-presentation","99","135553","0.0-13.0-1.42","SS1602822284263","<img src='images/complex/5.png' width ='500' height = '500' style='border:5px solid black'>","40","mixed_simple_deviant","images/complex/8.png","images/complex/5.png","images/simple/15.png,images/simple/14.png,images/simple/10.png,images/simple/1.png,images/simple/7.png,images/simple/13.png,images/simple/17.png","0","null","","200","365.0849999859929","","","","background","",""
"","null","html-keyboard-response","100","136845","0.0-13.0-0.43","SS1602822284263","","null","","","","","","","","","","","","<img src=images/blank.png width =""500"" height = ""500"" style=""border:5px solid black"">","","",""
"","228.22499996982515","stimulus-presentation","101","137282","0.0-13.0-1.43","SS1602822284263","<img src='images/complex/5.png' width ='500' height = '500' style='border:5px solid black'>","40","mixed_simple_deviant","images/complex/8.png","images/complex/5.png","images/simple/15.png,images/simple/14.png,images/simple/10.png,images/simple/1.png,images/simple/7.png,images/simple/13.png,images/simple/17.png","0","null","","200","428.22499996982515","","","","background","",""
"","null","html-keyboard-response","102","138278","0.0-13.0-0.44","SS1602822284263","","null","","","","","","","","","","","","<img src=images/blank.png width =""500"" height = ""500"" style=""border:5px solid black"">","","",""
"","266.09000004827976","stimulus-presentation","103","138756","0.0-13.0-1.44","SS1602822284263","<img src='images/complex/5.png' width ='500' height = '500' style='border:5px solid black'>","40","mixed_simple_deviant","images/complex/8.png","images/complex/5.png","images/simple/15.png,images/simple/14.png,images/simple/10.png,images/simple/1.png,images/simple/7.png,images/simple/13.png,images/simple/17.png","0","null","","200","466.09000004827976","","","","background","",""
"","null","html-keyboard-response","104","139713","0.0-13.0-0.45","SS1602822284263","","null","","","","","","","","","","","","<img src=images/blank.png width =""500"" height = ""500"" style=""border:5px solid black"">","","",""
"","204.5199999702163","stimulus-presentation","105","140126","0.0-13.0-1.45","SS1602822284263","<img src='images/complex/5.png' width ='500' height = '500' style='border:5px solid black'>","40","mixed_simple_deviant","images/complex/8.png","images/complex/5.png","images/simple/15.png,images/simple/14.png,images/simple/10.png,images/simple/1.png,images/simple/7.png,images/simple/13.png,images/simple/17.png","0","null","","200","404.5199999702163","","","","background","",""
"","null","html-keyboard-response","106","141249","0.0-13.0-0.46","SS1602822284263","","null","","","","","","","","","","","","<img src=images/blank.png width =""500"" height = ""500"" style=""border:5px solid black"">","","",""
"","184.5949999988079","stimulus-presentation","107","141644","0.0-13.0-1.46","SS1602822284263","<img src='images/complex/5.png' width ='500' height = '500' style='border:5px solid black'>","40","mixed_simple_deviant","images/complex/8.png","images/complex/5.png","images/simple/15.png,images/simple/14.png,images/simple/10.png,images/simple/1.png,images/simple/7.png,images/simple/13.png,images/simple/17.png","0","null","","200","384.5949999988079","","","","background","",""
"","null","html-keyboard-response","108","142687","0.0-13.0-0.47","SS1602822284263","","null","","","","","","","","","","","","<img src=images/blank.png width =""500"" height = ""500"" style=""border:5px solid black"">","","",""
"","322.24999996833503","stimulus-presentation","109","143219","0.0-13.0-1.47","SS1602822284263","<img src='images/complex/5.png' width ='500' height = '500' style='border:5px solid black'>","40","mixed_simple_deviant","images/complex/8.png","images/complex/5.png","images/simple/15.png,images/simple/14.png,images/simple/10.png,images/simple/1.png,images/simple/7.png,images/simple/13.png,images/simple/17.png","0","null","","200","522.249999968335","","","","background","",""
"","null","html-keyboard-response","110","144123","0.0-13.0-0.48","SS1602822284263","","null","","","","","","","","","","","","<img src=images/blank.png width =""500"" height = ""500"" style=""border:5px solid black"">","","",""
"","304.0000000037253","stimulus-presentation","111","144635","0.0-13.0-1.48","SS1602822284263","<img src='images/complex/5.png' width ='500' height = '500' style='border:5px solid black'>","40","mixed_simple_deviant","images/complex/8.png","images/complex/5.png","images/simple/15.png,images/simple/14.png,images/simple/10.png,images/simple/1.png,images/simple/7.png,images/simple/13.png,images/simple/17.png","0","null","","200","504.0000000037253","","","","background","",""
"[{""page_index"":0,""viewing_time"":1894}]","1894","task-instructions","112","146534","0.0-14.0","SS1602822284263","","","","","","","","","","","","","","","","",""
"[{""page_index"":0,""viewing_time"":820.1750000007451},{""page_index"":1,""viewing_time"":1488.0600000033155},{""page_index"":2,""viewing_time"":1087.5900000100955}]","3396.3100000401028","instructions","113","149935","0.0-15.0","SS1602822284263","","","","","","","","","","","","","","","","",""
"","null","html-keyboard-response","114","150854","0.0-16.0-0.0","SS1602822284263","","null","","","","","","","","","","","","<img src=images/blank.png width =""500"" height = ""500"" style=""border:5px solid black"">","","",""
"","541.6900000418536","stimulus-presentation","115","151605","0.0-16.0-1.0","SS1602822284263","<img src='images/complex/16.png' width ='500' height = '500' style='border:5px solid black'>","40","all_complex","images/complex/13.png","images/complex/16.png","images/complex/3.png,images/complex/7.png,images/complex/15.png,images/complex/18.png,images/complex/14.png,images/complex/11.png,images/complex/10.png","1","null","","200","741.6900000418536","","","","background","",""
"","null","html-keyboard-response","116","152614","0.0-16.0-0.1","SS1602822284263","","null","","","","","","","","","","","","<img src=images/blank.png width =""500"" height = ""500"" style=""border:5px solid black"">","","",""
"","245.66499999491498","stimulus-presentation","117","153067","0.0-16.0-1.1","SS1602822284263","<img src='images/complex/10.png' width ='500' height = '500' style='border:5px solid black'>","40","all_complex","images/complex/13.png","images/complex/16.png","images/complex/3.png,images/complex/7.png,images/complex/15.png,images/complex/18.png,images/complex/14.png,images/complex/11.png,images/complex/10.png","1","null","","200","445.664999994915","","","","deviant","",""
"","null","html-keyboard-response","118","154076","0.0-16.0-0.2","SS1602822284263","","null","","","","","","","","","","","","<img src=images/blank.png width =""500"" height = ""500"" style=""border:5px solid black"">","","",""
"","212.85000001080334","stimulus-presentation","119","154495","0.0-16.0-1.2","SS1602822284263","<img src='images/complex/16.png' width ='500' height = '500' style='border:5px solid black'>","40","all_complex","images/complex/13.png","images/complex/16.png","images/complex/3.png,images/complex/7.png,images/complex/15.png,images/complex/18.png,images/complex/14.png,images/complex/11.png,images/complex/10.png","1","null","","200","412.85000001080334","","","","background","",""
"","null","html-keyboard-response","120","155633","0.0-16.0-0.3","SS1602822284263","","null","","","","","","","","","","","","<img src=images/blank.png width =""500"" height = ""500"" style=""border:5px solid black"">","","",""
"","260.83000004291534","stimulus-presentation","121","156101","0.0-16.0-1.3","SS1602822284263","<img src='images/complex/16.png' width ='500' height = '500' style='border:5px solid black'>","40","all_complex","images/complex/13.png","images/complex/16.png","images/complex/3.png,images/complex/7.png,images/complex/15.png,images/complex/18.png,images/complex/14.png,images/complex/11.png,images/complex/10.png","1","null","","200","460.83000004291534","","","","background","",""
"","null","html-keyboard-response","122","156997","0.0-16.0-0.4","SS1602822284263","","null","","","","","","","","","","","","<img src=images/blank.png width =""500"" height = ""500"" style=""border:5px solid black"">","","",""
"","198.47500004107133","stimulus-presentation","123","157402","0.0-16.0-1.4","SS1602822284263","<img src='images/complex/16.png' width ='500' height = '500' style='border:5px solid black'>","40","all_complex","images/complex/13.png","images/complex/16.png","images/complex/3.png,images/complex/7.png,images/complex/15.png,images/complex/18.png,images/complex/14.png,images/complex/11.png,images/complex/10.png","1","null","","200","398.4750000410713","","","","background","",""
"","null","html-keyboard-response","124","158551","0.0-16.0-0.5","SS1602822284263","","null","","","","","","","","","","","","<img src=images/blank.png width =""500"" height = ""500"" style=""border:5px solid black"">","","",""
"","158.5400000330992","stimulus-presentation","125","158917","0.0-16.0-1.5","SS1602822284263","<img src='images/complex/16.png' width ='500' height = '500' style='border:5px solid black'>","40","all_complex","images/complex/13.png","images/complex/16.png","images/complex/3.png,images/complex/7.png,images/complex/15.png,images/complex/18.png,images/complex/14.png,images/complex/11.png,images/complex/10.png","1","null","","200","358.5400000330992","","","","background","",""
"","null","html-keyboard-response","126","159999","0.0-16.0-0.6","SS1602822284263","","null","","","","","","","","","","","","<img src=images/blank.png width =""500"" height = ""500"" style=""border:5px solid black"">","","",""
"","173.3349999994971","stimulus-presentation","127","160377","0.0-16.0-1.6","SS1602822284263","<img src='images/complex/16.png' width ='500' height = '500' style='border:5px solid black'>","40","all_complex","images/complex/13.png","images/complex/16.png","images/complex/3.png,images/complex/7.png,images/complex/15.png,images/complex/18.png,images/complex/14.png,images/complex/11.png,images/complex/10.png","1","null","","200","373.3349999994971","","","","background","",""
"","null","html-keyboard-response","128","161255","0.0-16.0-0.7","SS1602822284263","","null","","","","","","","","","","","","<img src=images/blank.png width =""500"" height = ""500"" style=""border:5px solid black"">","","",""
"","357.90000000270084","stimulus-presentation","129","161821","0.0-16.0-1.7","SS1602822284263","<img src='images/complex/7.png' width ='500' height = '500' style='border:5px solid black'>","40","all_complex","images/complex/13.png","images/complex/16.png","images/complex/3.png,images/complex/7.png,images/complex/15.png,images/complex/18.png,images/complex/14.png,images/complex/11.png,images/complex/10.png","1","null","","200","557.9000000027008","","","","deviant","",""
"","null","html-keyboard-response","130","162853","0.0-16.0-0.8","SS1602822284263","","null","","","","","","","","","","","","<img src=images/blank.png width =""500"" height = ""500"" style=""border:5px solid black"">","","",""
"","387.9000000306405","stimulus-presentation","131","163451","0.0-16.0-1.8","SS1602822284263","<img src='images/complex/13.png' width ='500' height = '500' style='border:5px solid black'>","40","all_complex","images/complex/13.png","images/complex/16.png","images/complex/3.png,images/complex/7.png,images/complex/15.png,images/complex/18.png,images/complex/14.png,images/complex/11.png,images/complex/10.png","1","null","","200","587.9000000306405","","","","target","",""
"","null","html-keyboard-response","132","164659","0.0-16.0-0.9","SS1602822284263","","null","","","","","","","","","","","","<img src=images/blank.png width =""500"" height = ""500"" style=""border:5px solid black"">","","",""
"","172.51000000396743","stimulus-presentation","133","165036","0.0-16.0-1.9","SS1602822284263","<img src='images/complex/16.png' width ='500' height = '500' style='border:5px solid black'>","40","all_complex","images/complex/13.png","images/complex/16.png","images/complex/3.png,images/complex/7.png,images/complex/15.png,images/complex/18.png,images/complex/14.png,images/complex/11.png,images/complex/10.png","1","null","","200","372.51000000396743","","","","background","",""
"","null","html-keyboard-response","134","166293","0.0-16.0-0.10","SS1602822284263","","null","","","","","","","","","","","","<img src=images/blank.png width =""500"" height = ""500"" style=""border:5px solid black"">","","",""
"","474.8249999829568","stimulus-presentation","135","166978","0.0-16.0-1.10","SS1602822284263","<img src='images/complex/11.png' width ='500' height = '500' style='border:5px solid black'>","40","all_complex","images/complex/13.png","images/complex/16.png","images/complex/3.png,images/complex/7.png,images/complex/15.png,images/complex/18.png,images/complex/14.png,images/complex/11.png,images/complex/10.png","1","null","","200","674.8249999829568","","","","deviant","",""
"","null","html-keyboard-response","136","167843","0.0-16.0-0.11","SS1602822284263","","null","","","","","","","","","","","","<img src=images/blank.png width =""500"" height = ""500"" style=""border:5px solid black"">","","",""
"","520.6849999958649","stimulus-presentation","137","168574","0.0-16.0-1.11","SS1602822284263","<img src='images/complex/16.png' width ='500' height = '500' style='border:5px solid black'>","40","all_complex","images/complex/13.png","images/complex/16.png","images/complex/3.png,images/complex/7.png,images/complex/15.png,images/complex/18.png,images/complex/14.png,images/complex/11.png,images/complex/10.png","1","null","","200","720.6849999958649","","","","background","",""
"","null","html-keyboard-response","138","169739","0.0-16.0-0.12","SS1602822284263","","null","","","","","","","","","","","","<img src=images/blank.png width =""500"" height = ""500"" style=""border:5px solid black"">","","",""
"","318.72500001918525","stimulus-presentation","139","170267","0.0-16.0-1.12","SS1602822284263","<img src='images/complex/16.png' width ='500' height = '500' style='border:5px solid black'>","40","all_complex","images/complex/13.png","images/complex/16.png","images/complex/3.png,images/complex/7.png,images/complex/15.png,images/complex/18.png,images/complex/14.png,images/complex/11.png,images/complex/10.png","1","null","","200","518.7250000191852","","","","background","",""
"","null","html-keyboard-response","140","171421","0.0-16.0-0.13","SS1602822284263","","null","","","","","","","","","","","","<img src=images/blank.png width =""500"" height = ""500"" style=""border:5px solid black"">","","",""
"","360.97000003792346","stimulus-presentation","141","171989","0.0-16.0-1.13","SS1602822284263","<img src='images/complex/16.png' width ='500' height = '500' style='border:5px solid black'>","40","all_complex","images/complex/13.png","images/complex/16.png","images/complex/3.png,images/complex/7.png,images/complex/15.png,images/complex/18.png,images/complex/14.png,images/complex/11.png,images/complex/10.png","1","null","","200","560.9700000379235","","","","background","",""
"","null","html-keyboard-response","142","172913","0.0-16.0-0.14","SS1602822284263","","null","","","","","","","","","","","","<img src=images/blank.png width =""500"" height = ""500"" style=""border:5px solid black"">","","",""
"","426.244999980554","stimulus-presentation","143","173546","0.0-16.0-1.14","SS1602822284263","<img src='images/complex/14.png' width ='500' height = '500' style='border:5px solid black'>","40","all_complex","images/complex/13.png","images/complex/16.png","images/complex/3.png,images/complex/7.png,images/complex/15.png,images/complex/18.png,images/complex/14.png,images/complex/11.png,images/complex/10.png","1","null","","200","626.244999980554","","","","deviant","",""
"","null","html-keyboard-response","144","174501","0.0-16.0-0.15","SS1602822284263","","null","","","","","","","","","","","","<img src=images/blank.png width =""500"" height = ""500"" style=""border:5px solid black"">","","",""
"","255.6099999928847","stimulus-presentation","145","174968","0.0-16.0-1.15","SS1602822284263","<img src='images/complex/16.png' width ='500' height = '500' style='border:5px solid black'>","40","all_complex","images/complex/13.png","images/complex/16.png","images/complex/3.png,images/complex/7.png,images/complex/15.png,images/complex/18.png,images/complex/14.png,images/complex/11.png,images/complex/10.png","1","null","","200","455.6099999928847","","","","background","",""
"","null","html-keyboard-response","146","176156","0.0-16.0-0.16","SS1602822284263","","null","","","","","","","","","","","","<img src=images/blank.png width =""500"" height = ""500"" style=""border:5px solid black"">","","",""
"","207.76499999919906","stimulus-presentation","147","176578","0.0-16.0-1.16","SS1602822284263","<img src='images/complex/16.png' width ='500' height = '500' style='border:5px solid black'>","40","all_complex","images/complex/13.png","images/complex/16.png","images/complex/3.png,images/complex/7.png,images/complex/15.png,images/complex/18.png,images/complex/14.png,images/complex/11.png,images/complex/10.png","1","null","","200","407.76499999919906","","","","background","",""
"","null","html-keyboard-response","148","177780","0.0-16.0-0.17","SS1602822284263","","null","","","","","","","","","","","","<img src=images/blank.png width =""500"" height = ""500"" style=""border:5px solid black"">","","",""
"","195.0749999959953","stimulus-presentation","149","178186","0.0-16.0-1.17","SS1602822284263","<img src='images/complex/16.png' width ='500' height = '500' style='border:5px solid black'>","40","all_complex","images/complex/13.png","images/complex/16.png","images/complex/3.png,images/complex/7.png,images/complex/15.png,images/complex/18.png,images/complex/14.png,images/complex/11.png,images/complex/10.png","1","null","","200","395.0749999959953","","","","background","",""
"","null","html-keyboard-response","150","179026","0.0-16.0-0.18","SS1602822284263","","null","","","","","","","","","","","","<img src=images/blank.png width =""500"" height = ""500"" style=""border:5px solid black"">","","",""
"","158.4100000327453","stimulus-presentation","151","179395","0.0-16.0-1.18","SS1602822284263","<img src='images/complex/16.png' width ='500' height = '500' style='border:5px solid black'>","40","all_complex","images/complex/13.png","images/complex/16.png","images/complex/3.png,images/complex/7.png,images/complex/15.png,images/complex/18.png,images/complex/14.png,images/complex/11.png,images/complex/10.png","1","null","","200","358.4100000327453","","","","background","",""
"","null","html-keyboard-response","152","180626","0.0-16.0-0.19","SS1602822284263","","null","","","","","","","","","","","","<img src=images/blank.png width =""500"" height = ""500"" style=""border:5px solid black"">","","",""
"","206.45500003593042","stimulus-presentation","153","181044","0.0-16.0-1.19","SS1602822284263","<img src='images/complex/16.png' width ='500' height = '500' style='border:5px solid black'>","40","all_complex","images/complex/13.png","images/complex/16.png","images/complex/3.png,images/complex/7.png,images/complex/15.png,images/complex/18.png,images/complex/14.png,images/complex/11.png,images/complex/10.png","1","null","","200","406.4550000359304","","","","background","",""
"","null","html-keyboard-response","154","181967","0.0-16.0-0.20","SS1602822284263","","null","","","","","","","","","","","","<img src=images/blank.png width =""500"" height = ""500"" style=""border:5px solid black"">","","",""
"","1010.584999981802","stimulus-presentation","155","183187","0.0-16.0-1.20","SS1602822284263","<img src='images/complex/13.png' width ='500' height = '500' style='border:5px solid black'>","40","all_complex","images/complex/13.png","images/complex/16.png","images/complex/3.png,images/complex/7.png,images/complex/15.png,images/complex/18.png,images/complex/14.png,images/complex/11.png,images/complex/10.png","1","null","","200","1210.584999981802","yes","371.9149999669753","","target","",""
"","null","html-keyboard-response","156","184348","0.0-16.0-0.21","SS1602822284263","","null","","","","","","","","","","","","<img src=images/blank.png width =""500"" height = ""500"" style=""border:5px solid black"">","","",""
"","279.89499998511747","stimulus-presentation","157","184842","0.0-16.0-1.21","SS1602822284263","<img src='images/complex/18.png' width ='500' height = '500' style='border:5px solid black'>","40","all_complex","images/complex/13.png","images/complex/16.png","images/complex/3.png,images/complex/7.png,images/complex/15.png,images/complex/18.png,images/complex/14.png,images/complex/11.png,images/complex/10.png","1","null","","200","479.89499998511747","","","","deviant","",""
"","null","html-keyboard-response","158","185980","0.0-16.0-0.22","SS1602822284263","","null","","","","","","","","","","","","<img src=images/blank.png width =""500"" height = ""500"" style=""border:5px solid black"">","","",""
"","1065.3049999964423","stimulus-presentation","159","187258","0.0-16.0-1.22","SS1602822284263","<img src='images/complex/13.png' width ='500' height = '500' style='border:5px solid black'>","40","all_complex","images/complex/13.png","images/complex/16.png","images/complex/3.png,images/complex/7.png,images/complex/15.png,images/complex/18.png,images/complex/14.png,images/complex/11.png,images/complex/10.png","1","null","","200","1265.3049999964423","yes","465.9150000079535","","target","",""
"","null","html-keyboard-response","160","188183","0.0-16.0-0.23","SS1602822284263","","null","","","","","","","","","","","","<img src=images/blank.png width =""500"" height = ""500"" style=""border:5px solid black"">","","",""
"","274.985000025481","stimulus-presentation","161","188667","0.0-16.0-1.23","SS1602822284263","<img src='images/complex/16.png' width ='500' height = '500' style='border:5px solid black'>","40","all_complex","images/complex/13.png","images/complex/16.png","images/complex/3.png,images/complex/7.png,images/complex/15.png,images/complex/18.png,images/complex/14.png,images/complex/11.png,images/complex/10.png","1","null","","200","474.985000025481","","","","background","",""
"","null","html-keyboard-response","162","189799","0.0-16.0-0.24","SS1602822284263","","null","","","","","","","","","","","","<img src=images/blank.png width =""500"" height = ""500"" style=""border:5px solid black"">","","",""
"","228.94499998074025","stimulus-presentation","163","190240","0.0-16.0-1.24","SS1602822284263","<img src='images/complex/16.png' width ='500' height = '500' style='border:5px solid black'>","40","all_complex","images/complex/13.png","images/complex/16.png","images/complex/3.png,images/complex/7.png,images/complex/15.png,images/complex/18.png,images/complex/14.png,images/complex/11.png,images/complex/10.png","1","null","","200","428.94499998074025","","","","background","",""
"","null","html-keyboard-response","164","191447","0.0-16.0-0.25","SS1602822284263","","null","","","","","","","","","","","","<img src=images/blank.png width =""500"" height = ""500"" style=""border:5px solid black"">","","",""
"","1138.150000013411","stimulus-presentation","165","192796","0.0-16.0-1.25","SS1602822284263","<img src='images/complex/13.png' width ='500' height = '500' style='border:5px solid black'>","40","all_complex","images/complex/13.png","images/complex/16.png","images/complex/3.png,images/complex/7.png,images/complex/15.png,images/complex/18.png,images/complex/14.png,images/complex/11.png,images/complex/10.png","1","null","","200","1338.150000013411","yes","473.6750000156462","","target","",""
"","null","html-keyboard-response","166","193970","0.0-16.0-0.26","SS1602822284263","","null","","","","","","","","","","","","<img src=images/blank.png width =""500"" height = ""500"" style=""border:5px solid black"">","","",""
"","360.8750000130385","stimulus-presentation","167","194539","0.0-16.0-1.26","SS1602822284263","<img src='images/complex/16.png' width ='500' height = '500' style='border:5px solid black'>","40","all_complex","images/complex/13.png","images/complex/16.png","images/complex/3.png,images/complex/7.png,images/complex/15.png,images/complex/18.png,images/complex/14.png,images/complex/11.png,images/complex/10.png","1","null","","200","560.8750000130385","","","","background","",""
"","null","html-keyboard-response","168","195684","0.0-16.0-0.27","SS1602822284263","","null","","","","","","","","","","","","<img src=images/blank.png width =""500"" height = ""500"" style=""border:5px solid black"">","","",""
"","1021.3499999954365","stimulus-presentation","169","196916","0.0-16.0-1.27","SS1602822284263","<img src='images/complex/13.png' width ='500' height = '500' style='border:5px solid black'>","40","all_complex","images/complex/13.png","images/complex/16.png","images/complex/3.png,images/complex/7.png,images/complex/15.png,images/complex/18.png,images/complex/14.png,images/complex/11.png,images/complex/10.png","1","null","","200","1221.3499999954365","yes","324.6100000105798","","target","",""
"","null","html-keyboard-response","170","197837","0.0-16.0-0.28","SS1602822284263","","null","","","","","","","","","","","","<img src=images/blank.png width =""500"" height = ""500"" style=""border:5px solid black"">","","",""
"","280.3750000311993","stimulus-presentation","171","198325","0.0-16.0-1.28","SS1602822284263","<img src='images/complex/16.png' width ='500' height = '500' style='border:5px solid black'>","40","all_complex","images/complex/13.png","images/complex/16.png","images/complex/3.png,images/complex/7.png,images/complex/15.png,images/complex/18.png,images/complex/14.png,images/complex/11.png,images/complex/10.png","1","null","","200","480.3750000311993","","","","background","",""
"","null","html-keyboard-response","172","199163","0.0-16.0-0.29","SS1602822284263","","null","","","","","","","","","","","","<img src=images/blank.png width =""500"" height = ""500"" style=""border:5px solid black"">","","",""
"","263.68999999249354","stimulus-presentation","173","199636","0.0-16.0-1.29","SS1602822284263","<img src='images/complex/15.png' width ='500' height = '500' style='border:5px solid black'>","40","all_complex","images/complex/13.png","images/complex/16.png","images/complex/3.png,images/complex/7.png,images/complex/15.png,images/complex/18.png,images/complex/14.png,images/complex/11.png,images/complex/10.png","1","null","","200","463.68999999249354","","","","deviant","",""
"","null","html-keyboard-response","174","200556","0.0-16.0-0.30","SS1602822284263","","null","","","","","","","","","","","","<img src=images/blank.png width =""500"" height = ""500"" style=""border:5px solid black"">","","",""
"","350.8949999813922","stimulus-presentation","175","201115","0.0-16.0-1.30","SS1602822284263","<img src='images/complex/16.png' width ='500' height = '500' style='border:5px solid black'>","40","all_complex","images/complex/13.png","images/complex/16.png","images/complex/3.png,images/complex/7.png,images/complex/15.png,images/complex/18.png,images/complex/14.png,images/complex/11.png,images/complex/10.png","1","null","","200","550.8949999813922","","","","background","",""
"","null","html-keyboard-response","176","202162","0.0-16.0-0.31","SS1602822284263","","null","","","","","","","","","","","","<img src=images/blank.png width =""500"" height = ""500"" style=""border:5px solid black"">","","",""
"","1000.7549999863841","stimulus-presentation","177","203372","0.0-16.0-1.31","SS1602822284263","<img src='images/complex/13.png' width ='500' height = '500' style='border:5px solid black'>","40","all_complex","images/complex/13.png","images/complex/16.png","images/complex/3.png,images/complex/7.png,images/complex/15.png,images/complex/18.png,images/complex/14.png,images/complex/11.png,images/complex/10.png","1","null","","200","1200.754999986384","yes","375.4099999787286","","target","",""
"","null","html-keyboard-response","178","204643","0.0-16.0-0.32","SS1602822284263","","null","","","","","","","","","","","","<img src=images/blank.png width =""500"" height = ""500"" style=""border:5px solid black"">","","",""
"","262.2400000109337","stimulus-presentation","179","205117","0.0-16.0-1.32","SS1602822284263","<img src='images/complex/16.png' width ='500' height = '500' style='border:5px solid black'>","40","all_complex","images/complex/13.png","images/complex/16.png","images/complex/3.png,images/complex/7.png,images/complex/15.png,images/complex/18.png,images/complex/14.png,images/complex/11.png,images/complex/10.png","1","null","","200","462.2400000109337","","","","background","",""
"","null","html-keyboard-response","180","206182","0.0-16.0-0.33","SS1602822284263","","null","","","","","","","","","","","","<img src=images/blank.png width =""500"" height = ""500"" style=""border:5px solid black"">","","",""
"","230.97500001313165","stimulus-presentation","181","206626","0.0-16.0-1.33","SS1602822284263","<img src='images/complex/16.png' width ='500' height = '500' style='border:5px solid black'>","40","all_complex","images/complex/13.png","images/complex/16.png","images/complex/3.png,images/complex/7.png,images/complex/15.png,images/complex/18.png,images/complex/14.png,images/complex/11.png,images/complex/10.png","1","null","","200","430.97500001313165","","","","background","",""
"","null","html-keyboard-response","182","207579","0.0-16.0-0.34","SS1602822284263","","null","","","","","","","","","","","","<img src=images/blank.png width =""500"" height = ""500"" style=""border:5px solid black"">","","",""
"","274.184999987483","stimulus-presentation","183","208067","0.0-16.0-1.34","SS1602822284263","<img src='images/complex/16.png' width ='500' height = '500' style='border:5px solid black'>","40","all_complex","images/complex/13.png","images/complex/16.png","images/complex/3.png,images/complex/7.png,images/complex/15.png,images/complex/18.png,images/complex/14.png,images/complex/11.png,images/complex/10.png","1","null","","200","474.184999987483","","","","background","",""
"","null","html-keyboard-response","184","208961","0.0-16.0-0.35","SS1602822284263","","null","","","","","","","","","","","","<img src=images/blank.png width =""500"" height = ""500"" style=""border:5px solid black"">","","",""
"","377.02999997418374","stimulus-presentation","185","209548","0.0-16.0-1.35","SS1602822284263","<img src='images/complex/16.png' width ='500' height = '500' style='border:5px solid black'>","40","all_complex","images/complex/13.png","images/complex/16.png","images/complex/3.png,images/complex/7.png,images/complex/15.png,images/complex/18.png,images/complex/14.png,images/complex/11.png,images/complex/10.png","1","null","","200","577.0299999741837","","","","background","",""
"","null","html-keyboard-response","186","210394","0.0-16.0-0.36","SS1602822284263","","null","","","","","","","","","","","","<img src=images/blank.png width =""500"" height = ""500"" style=""border:5px solid black"">","","",""
"","286.5150000434369","stimulus-presentation","187","210891","0.0-16.0-1.36","SS1602822284263","<img src='images/complex/16.png' width ='500' height = '500' style='border:5px solid black'>","40","all_complex","images/complex/13.png","images/complex/16.png","images/complex/3.png,images/complex/7.png,images/complex/15.png,images/complex/18.png,images/complex/14.png,images/complex/11.png,images/complex/10.png","1","null","","200","486.5150000434369","","","","background","",""
"","null","html-keyboard-response","188","211930","0.0-16.0-0.37","SS1602822284263","","null","","","","","","","","","","","","<img src=images/blank.png width =""500"" height = ""500"" style=""border:5px solid black"">","","",""
"","1011.9699999922886","stimulus-presentation","189","213156","0.0-16.0-1.37","SS1602822284263","<img src='images/complex/13.png' width ='500' height = '500' style='border:5px solid black'>","40","all_complex","images/complex/13.png","images/complex/16.png","images/complex/3.png,images/complex/7.png,images/complex/15.png,images/complex/18.png,images/complex/14.png,images/complex/11.png,images/complex/10.png","1","null","","200","1211.9699999922886","yes","403.1950000207871","","target","",""
"","null","html-keyboard-response","190","214312","0.0-16.0-0.38","SS1602822284263","","null","","","","","","","","","","","","<img src=images/blank.png width =""500"" height = ""500"" style=""border:5px solid black"">","","",""
"","301.76500004017726","stimulus-presentation","191","214821","0.0-16.0-1.38","SS1602822284263","<img src='images/complex/16.png' width ='500' height = '500' style='border:5px solid black'>","40","all_complex","images/complex/13.png","images/complex/16.png","images/complex/3.png,images/complex/7.png,images/complex/15.png,images/complex/18.png,images/complex/14.png,images/complex/11.png,images/complex/10.png","1","null","","200","501.76500004017726","","","","background","",""
"","null","html-keyboard-response","192","215635","0.0-16.0-0.39","SS1602822284263","","null","","","","","","","","","","","","<img src=images/blank.png width =""500"" height = ""500"" style=""border:5px solid black"">","","",""
"","147.1099999616854","stimulus-presentation","193","215995","0.0-16.0-1.39","SS1602822284263","<img src='images/complex/16.png' width ='500' height = '500' style='border:5px solid black'>","40","all_complex","images/complex/13.png","images/complex/16.png","images/complex/3.png,images/complex/7.png,images/complex/15.png,images/complex/18.png,images/complex/14.png,images/complex/11.png,images/complex/10.png","1","null","","200","347.1099999616854","","","","background","",""
"","null","html-keyboard-response","194","217232","0.0-16.0-0.40","SS1602822284263","","null","","","","","","","","","","","","<img src=images/blank.png width =""500"" height = ""500"" style=""border:5px solid black"">","","",""
"","190.59999997261912","stimulus-presentation","195","217636","0.0-16.0-1.40","SS1602822284263","<img src='images/complex/16.png' width ='500' height = '500' style='border:5px solid black'>","40","all_complex","images/complex/13.png","images/complex/16.png","images/complex/3.png,images/complex/7.png,images/complex/15.png,images/complex/18.png,images/complex/14.png,images/complex/11.png,images/complex/10.png","1","null","","200","390.5999999726191","","","","background","",""
"","null","html-keyboard-response","196","218845","0.0-16.0-0.41","SS1602822284263","","null","","","","","","","","","","","","<img src=images/blank.png width =""500"" height = ""500"" style=""border:5px solid black"">","","",""
"","173.1300000101328","stimulus-presentation","197","219228","0.0-16.0-1.41","SS1602822284263","<img src='images/complex/16.png' width ='500' height = '500' style='border:5px solid black'>","40","all_complex","images/complex/13.png","images/complex/16.png","images/complex/3.png,images/complex/7.png,images/complex/15.png,images/complex/18.png,images/complex/14.png,images/complex/11.png,images/complex/10.png","1","null","","200","373.1300000101328","","","","background","",""
"","null","html-keyboard-response","198","220413","0.0-16.0-0.42","SS1602822284263","","null","","","","","","","","","","","","<img src=images/blank.png width =""500"" height = ""500"" style=""border:5px solid black"">","","",""
"","254.85500000650063","stimulus-presentation","199","220877","0.0-16.0-1.42","SS1602822284263","<img src='images/complex/16.png' width ='500' height = '500' style='border:5px solid black'>","40","all_complex","images/complex/13.png","images/complex/16.png","images/complex/3.png,images/complex/7.png,images/complex/15.png,images/complex/18.png,images/complex/14.png,images/complex/11.png,images/complex/10.png","1","null","","200","454.85500000650063","","","","background","",""
"","null","html-keyboard-response","200","221961","0.0-16.0-0.43","SS1602822284263","","null","","","","","","","","","","","","<img src=images/blank.png width =""500"" height = ""500"" style=""border:5px solid black"">","","",""
"","241.40499997884035","stimulus-presentation","201","222409","0.0-16.0-1.43","SS1602822284263","<img src='images/complex/16.png' width ='500' height = '500' style='border:5px solid black'>","40","all_complex","images/complex/13.png","images/complex/16.png","images/complex/3.png,images/complex/7.png,images/complex/15.png,images/complex/18.png,images/complex/14.png,images/complex/11.png,images/complex/10.png","1","null","","200","441.40499997884035","","","","background","",""
"","null","html-keyboard-response","202","223404","0.0-16.0-0.44","SS1602822284263","","null","","","","","","","","","","","","<img src=images/blank.png width =""500"" height = ""500"" style=""border:5px solid black"">","","",""
"","190.31999999424443","stimulus-presentation","203","223804","0.0-16.0-1.44","SS1602822284263","<img src='images/complex/16.png' width ='500' height = '500' style='border:5px solid black'>","40","all_complex","images/complex/13.png","images/complex/16.png","images/complex/3.png,images/complex/7.png,images/complex/15.png,images/complex/18.png,images/complex/14.png,images/complex/11.png,images/complex/10.png","1","null","","200","390.3199999942444","","","","background","",""
"","null","html-keyboard-response","204","225011","0.0-16.0-0.45","SS1602822284263","","null","","","","","","","","","","","","<img src=images/blank.png width =""500"" height = ""500"" style=""border:5px solid black"">","","",""
"","380.62000001082197","stimulus-presentation","205","225605","0.0-16.0-1.45","SS1602822284263","<img src='images/complex/16.png' width ='500' height = '500' style='border:5px solid black'>","40","all_complex","images/complex/13.png","images/complex/16.png","images/complex/3.png,images/complex/7.png,images/complex/15.png,images/complex/18.png,images/complex/14.png,images/complex/11.png,images/complex/10.png","1","null","","200","580.620000010822","","","","background","",""
"","null","html-keyboard-response","206","226888","0.0-16.0-0.46","SS1602822284263","","null","","","","","","","","","","","","<img src=images/blank.png width =""500"" height = ""500"" style=""border:5px solid black"">","","",""
"","443.65000003017485","stimulus-presentation","207","227540","0.0-16.0-1.46","SS1602822284263","<img src='images/complex/3.png' width ='500' height = '500' style='border:5px solid black'>","40","all_complex","images/complex/13.png","images/complex/16.png","images/complex/3.png,images/complex/7.png,images/complex/15.png,images/complex/18.png,images/complex/14.png,images/complex/11.png,images/complex/10.png","1","null","","200","643.6500000301749","","","","deviant","",""
"","null","html-keyboard-response","208","228670","0.0-16.0-0.47","SS1602822284263","","null","","","","","","","","","","","","<img src=images/blank.png width =""500"" height = ""500"" style=""border:5px solid black"">","","",""
"","317.74999998742715","stimulus-presentation","209","229196","0.0-16.0-1.47","SS1602822284263","<img src='images/complex/16.png' width ='500' height = '500' style='border:5px solid black'>","40","all_complex","images/complex/13.png","images/complex/16.png","images/complex/3.png,images/complex/7.png,images/complex/15.png,images/complex/18.png,images/complex/14.png,images/complex/11.png,images/complex/10.png","1","null","","200","517.7499999874271","","","","background","",""
"","null","html-keyboard-response","210","230110","0.0-16.0-0.48","SS1602822284263","","null","","","","","","","","","","","","<img src=images/blank.png width =""500"" height = ""500"" style=""border:5px solid black"">","","",""
"","197.49500002944842","stimulus-presentation","211","230521","0.0-16.0-1.48","SS1602822284263","<img src='images/complex/16.png' width ='500' height = '500' style='border:5px solid black'>","40","all_complex","images/complex/13.png","images/complex/16.png","images/complex/3.png,images/complex/7.png,images/complex/15.png,images/complex/18.png,images/complex/14.png,images/complex/11.png,images/complex/10.png","1","null","","200","397.4950000294484","","","","background","",""
"[{""page_index"":0,""viewing_time"":2424}]","2424","task-instructions","212","232949","0.0-17.0","SS1602822284263","","","","","","","","","","","","","","","","",""
"[{""page_index"":0,""viewing_time"":549.3399999686517},{""page_index"":1,""viewing_time"":1022.9900000267662},{""page_index"":2,""viewing_time"":888.2100000046194}]","2460.869999951683","instructions","213","235415","0.0-18.0","SS1602822284263","","","","","","","","","","","","","","","","",""
"","null","html-keyboard-response","214","236422","0.0-19.0-0.0","SS1602822284263","","null","","","","","","","","","","","","<img src=images/blank.png width =""500"" height = ""500"" style=""border:5px solid black"">","","",""
"","533.3649999811314","stimulus-presentation","215","237167","0.0-19.0-1.0","SS1602822284263","<img src='images/complex/1.png' width ='500' height = '500' style='border:5px solid black'>","40","mixed_complex_deviant","images/simple/18.png","images/simple/2.png","images/complex/1.png,images/complex/17.png,images/complex/2.png,images/complex/4.png,images/complex/6.png,images/complex/9.png,images/complex/12.png","2","null","","200","733.3649999811314","","","","deviant","",""
"","null","html-keyboard-response","216","238104","0.0-19.0-0.1","SS1602822284263","","null","","","","","","","","","","","","<img src=images/blank.png width =""500"" height = ""500"" style=""border:5px solid black"">","","",""
"","234.7650000010617","stimulus-presentation","217","238548","0.0-19.0-1.1","SS1602822284263","<img src='images/simple/2.png' width ='500' height = '500' style='border:5px solid black'>","40","mixed_complex_deviant","images/simple/18.png","images/simple/2.png","images/complex/1.png,images/complex/17.png,images/complex/2.png,images/complex/4.png,images/complex/6.png,images/complex/9.png,images/complex/12.png","2","null","","200","434.7650000010617","","","","background","",""
"","null","html-keyboard-response","218","239689","0.0-19.0-0.2","SS1602822284263","","null","","","","","","","","","","","","<img src=images/blank.png width =""500"" height = ""500"" style=""border:5px solid black"">","","",""
"","1079.3150000390597","stimulus-presentation","219","240978","0.0-19.0-1.2","SS1602822284263","<img src='images/simple/18.png' width ='500' height = '500' style='border:5px solid black'>","40","mixed_complex_deviant","images/simple/18.png","images/simple/2.png","images/complex/1.png,images/complex/17.png,images/complex/2.png,images/complex/4.png,images/complex/6.png,images/complex/9.png,images/complex/12.png","2","null","","200","1279.3150000390597","yes","369.7000000393018","","target","",""
"","null","html-keyboard-response","220","241790","0.0-19.0-0.3","SS1602822284263","","null","","","","","","","","","","","","<img src=images/blank.png width =""500"" height = ""500"" style=""border:5px solid black"">","","",""
"","242.7499999757856","stimulus-presentation","221","242245","0.0-19.0-1.3","SS1602822284263","<img src='images/simple/2.png' width ='500' height = '500' style='border:5px solid black'>","40","mixed_complex_deviant","images/simple/18.png","images/simple/2.png","images/complex/1.png,images/complex/17.png,images/complex/2.png,images/complex/4.png,images/complex/6.png,images/complex/9.png,images/complex/12.png","2","null","","200","442.7499999757856","","","","background","",""
"","null","html-keyboard-response","222","243454","0.0-19.0-0.4","SS1602822284263","","null","","","","","","","","","","","","<img src=images/blank.png width =""500"" height = ""500"" style=""border:5px solid black"">","","",""
"","216.22000000206754","stimulus-presentation","223","243884","0.0-19.0-1.4","SS1602822284263","<img src='images/simple/2.png' width ='500' height = '500' style='border:5px solid black'>","40","mixed_complex_deviant","images/simple/18.png","images/simple/2.png","images/complex/1.png,images/complex/17.png,images/complex/2.png,images/complex/4.png,images/complex/6.png,images/complex/9.png,images/complex/12.png","2","null","","200","416.22000000206754","","","","background","",""
"","null","html-keyboard-response","224","244841","0.0-19.0-0.5","SS1602822284263","","null","","","","","","","","","","","","<img src=images/blank.png width =""500"" height = ""500"" style=""border:5px solid black"">","","",""
"","662.6149999792688","stimulus-presentation","225","245715","0.0-19.0-1.5","SS1602822284263","<img src='images/complex/2.png' width ='500' height = '500' style='border:5px solid black'>","40","mixed_complex_deviant","images/simple/18.png","images/simple/2.png","images/complex/1.png,images/complex/17.png,images/complex/2.png,images/complex/4.png,images/complex/6.png,images/complex/9.png,images/complex/12.png","2","null","","200","862.6149999792688","","","","deviant","",""
"","null","html-keyboard-response","226","246998","0.0-19.0-0.6","SS1602822284263","","null","","","","","","","","","","","","<img src=images/blank.png width =""500"" height = ""500"" style=""border:5px solid black"">","","",""
"","905.5600000428967","stimulus-presentation","227","248115","0.0-19.0-1.6","SS1602822284263","<img src='images/simple/18.png' width ='500' height = '500' style='border:5px solid black'>","40","mixed_complex_deviant","images/simple/18.png","images/simple/2.png","images/complex/1.png,images/complex/17.png,images/complex/2.png,images/complex/4.png,images/complex/6.png,images/complex/9.png,images/complex/12.png","2","null","","200","1105.5600000428967","yes","284.2100000125356","","target","",""
"","null","html-keyboard-response","228","249053","0.0-19.0-0.7","SS1602822284263","","null","","","","","","","","","","","","<img src=images/blank.png width =""500"" height = ""500"" style=""border:5px solid black"">","","",""
"","227.1949999849312","stimulus-presentation","229","249492","0.0-19.0-1.7","SS1602822284263","<img src='images/simple/2.png' width ='500' height = '500' style='border:5px solid black'>","40","mixed_complex_deviant","images/simple/18.png","images/simple/2.png","images/complex/1.png,images/complex/17.png,images/complex/2.png,images/complex/4.png,images/complex/6.png,images/complex/9.png,images/complex/12.png","2","null","","200","427.1949999849312","","","","background","",""
"","null","html-keyboard-response","230","250665","0.0-19.0-0.8","SS1602822284263","","null","","","","","","","","","","","","<img src=images/blank.png width =""500"" height = ""500"" style=""border:5px solid black"">","","",""
"","237.32499999459833","stimulus-presentation","231","251114","0.0-19.0-1.8","SS1602822284263","<img src='images/simple/2.png' width ='500' height = '500' style='border:5px solid black'>","40","mixed_complex_deviant","images/simple/18.png","images/simple/2.png","images/complex/1.png,images/complex/17.png,images/complex/2.png,images/complex/4.png,images/complex/6.png,images/complex/9.png,images/complex/12.png","2","null","","200","437.32499999459833","","","","background","",""
"","null","html-keyboard-response","232","252050","0.0-19.0-0.9","SS1602822284263","","null","","","","","","","","","","","","<img src=images/blank.png width =""500"" height = ""500"" style=""border:5px solid black"">","","",""
"","176.1500000138767","stimulus-presentation","233","252436","0.0-19.0-1.9","SS1602822284263","<img src='images/simple/2.png' width ='500' height = '500' style='border:5px solid black'>","40","mixed_complex_deviant","images/simple/18.png","images/simple/2.png","images/complex/1.png,images/complex/17.png,images/complex/2.png,images/complex/4.png,images/complex/6.png,images/complex/9.png,images/complex/12.png","2","null","","200","376.1500000138767","","","","background","",""
"","null","html-keyboard-response","234","253449","0.0-19.0-0.10","SS1602822284263","","null","","","","","","","","","","","","<img src=images/blank.png width =""500"" height = ""500"" style=""border:5px solid black"">","","",""
"","1077.2350000333972","stimulus-presentation","235","254738","0.0-19.0-1.10","SS1602822284263","<img src='images/simple/18.png' width ='500' height = '500' style='border:5px solid black'>","40","mixed_complex_deviant","images/simple/18.png","images/simple/2.png","images/complex/1.png,images/complex/17.png,images/complex/2.png,images/complex/4.png,images/complex/6.png,images/complex/9.png,images/complex/12.png","2","null","","200","1277.2350000333972","yes","446.9249999965541","","target","",""
"","null","html-keyboard-response","236","255563","0.0-19.0-0.11","SS1602822284263","","null","","","","","","","","","","","","<img src=images/blank.png width =""500"" height = ""500"" style=""border:5px solid black"">","","",""
"","462.90000004228204","stimulus-presentation","237","256238","0.0-19.0-1.11","SS1602822284263","<img src='images/complex/6.png' width ='500' height = '500' style='border:5px solid black'>","40","mixed_complex_deviant","images/simple/18.png","images/simple/2.png","images/complex/1.png,images/complex/17.png,images/complex/2.png,images/complex/4.png,images/complex/6.png,images/complex/9.png,images/complex/12.png","2","null","","200","662.900000042282","","","","deviant","",""
"","null","html-keyboard-response","238","257122","0.0-19.0-0.12","SS1602822284263","","null","","","","","","","","","","","","<img src=images/blank.png width =""500"" height = ""500"" style=""border:5px solid black"">","","",""
"","159.5450000022538","stimulus-presentation","239","257492","0.0-19.0-1.12","SS1602822284263","<img src='images/simple/2.png' width ='500' height = '500' style='border:5px solid black'>","40","mixed_complex_deviant","images/simple/18.png","images/simple/2.png","images/complex/1.png,images/complex/17.png,images/complex/2.png,images/complex/4.png,images/complex/6.png,images/complex/9.png,images/complex/12.png","2","null","","200","359.5450000022538","","","","background","",""
"","null","html-keyboard-response","240","258719","0.0-19.0-0.13","SS1602822284263","","null","","","","","","","","","","","","<img src=images/blank.png width =""500"" height = ""500"" style=""border:5px solid black"">","","",""
"","137.64999998966232","stimulus-presentation","241","259070","0.0-19.0-1.13","SS1602822284263","<img src='images/simple/2.png' width ='500' height = '500' style='border:5px solid black'>","40","mixed_complex_deviant","images/simple/18.png","images/simple/2.png","images/complex/1.png,images/complex/17.png,images/complex/2.png,images/complex/4.png,images/complex/6.png,images/complex/9.png,images/complex/12.png","2","null","","200","337.6499999896623","","","","background","",""
"","null","html-keyboard-response","242","259970","0.0-19.0-0.14","SS1602822284263","","null","","","","","","","","","","","","<img src=images/blank.png width =""500"" height = ""500"" style=""border:5px solid black"">","","",""
"","272.91999995941296","stimulus-presentation","243","260451","0.0-19.0-1.14","SS1602822284263","<img src='images/complex/17.png' width ='500' height = '500' style='border:5px solid black'>","40","mixed_complex_deviant","images/simple/18.png","images/simple/2.png","images/complex/1.png,images/complex/17.png,images/complex/2.png,images/complex/4.png,images/complex/6.png,images/complex/9.png,images/complex/12.png","2","null","","200","472.91999995941296","","","","deviant","",""
"","null","html-keyboard-response","244","261411","0.0-19.0-0.15","SS1602822284263","","null","","","","","","","","","","","","<img src=images/blank.png width =""500"" height = ""500"" style=""border:5px solid black"">","","",""
"","219.04999995604157","stimulus-presentation","245","261843","0.0-19.0-1.15","SS1602822284263","<img src='images/simple/2.png' width ='500' height = '500' style='border:5px solid black'>","40","mixed_complex_deviant","images/simple/18.png","images/simple/2.png","images/complex/1.png,images/complex/17.png,images/complex/2.png,images/complex/4.png,images/complex/6.png,images/complex/9.png,images/complex/12.png","2","null","","200","419.0499999560416","","","","background","",""
"","null","html-keyboard-response","246","262868","0.0-19.0-0.16","SS1602822284263","","null","","","","","","","","","","","","<img src=images/blank.png width =""500"" height = ""500"" style=""border:5px solid black"">","","",""
"","144.62000003550202","stimulus-presentation","247","263227","0.0-19.0-1.16","SS1602822284263","<img src='images/simple/2.png' width ='500' height = '500' style='border:5px solid black'>","40","mixed_complex_deviant","images/simple/18.png","images/simple/2.png","images/complex/1.png,images/complex/17.png,images/complex/2.png,images/complex/4.png,images/complex/6.png,images/complex/9.png,images/complex/12.png","2","null","","200","344.620000035502","","","","background","",""
"","null","html-keyboard-response","248","264328","0.0-19.0-0.17","SS1602822284263","","null","","","","","","","","","","","","<img src=images/blank.png width =""500"" height = ""500"" style=""border:5px solid black"">","","",""
"","160.09000001940876","stimulus-presentation","249","264701","0.0-19.0-1.17","SS1602822284263","<img src='images/simple/2.png' width ='500' height = '500' style='border:5px solid black'>","40","mixed_complex_deviant","images/simple/18.png","images/simple/2.png","images/complex/1.png,images/complex/17.png,images/complex/2.png,images/complex/4.png,images/complex/6.png,images/complex/9.png,images/complex/12.png","2","null","","200","360.09000001940876","","","","background","",""
"","null","html-keyboard-response","250","265783","0.0-19.0-0.18","SS1602822284263","","null","","","","","","","","","","","","<img src=images/blank.png width =""500"" height = ""500"" style=""border:5px solid black"">","","",""
"","128.79500002600253","stimulus-presentation","251","266125","0.0-19.0-1.18","SS1602822284263","<img src='images/simple/2.png' width ='500' height = '500' style='border:5px solid black'>","40","mixed_complex_deviant","images/simple/18.png","images/simple/2.png","images/complex/1.png,images/complex/17.png,images/complex/2.png,images/complex/4.png,images/complex/6.png,images/complex/9.png,images/complex/12.png","2","null","","200","328.7950000260025","","","","background","",""
"","null","html-keyboard-response","252","267167","0.0-19.0-0.19","SS1602822284263","","null","","","","","","","","","","","","<img src=images/blank.png width =""500"" height = ""500"" style=""border:5px solid black"">","","",""
"","154.46499997051433","stimulus-presentation","253","267530","0.0-19.0-1.19","SS1602822284263","<img src='images/simple/2.png' width ='500' height = '500' style='border:5px solid black'>","40","mixed_complex_deviant","images/simple/18.png","images/simple/2.png","images/complex/1.png,images/complex/17.png,images/complex/2.png,images/complex/4.png,images/complex/6.png,images/complex/9.png,images/complex/12.png","2","null","","200","354.4649999705143","","","","background","",""
"","null","html-keyboard-response","254","268354","0.0-19.0-0.20","SS1602822284263","","null","","","","","","","","","","","","<img src=images/blank.png width =""500"" height = ""500"" style=""border:5px solid black"">","","",""
"","174.69499999424443","stimulus-presentation","255","268740","0.0-19.0-1.20","SS1602822284263","<img src='images/simple/2.png' width ='500' height = '500' style='border:5px solid black'>","40","mixed_complex_deviant","images/simple/18.png","images/simple/2.png","images/complex/1.png,images/complex/17.png,images/complex/2.png,images/complex/4.png,images/complex/6.png,images/complex/9.png,images/complex/12.png","2","null","","200","374.6949999942444","","","","background","",""
"","null","html-keyboard-response","256","269843","0.0-19.0-0.21","SS1602822284263","","null","","","","","","","","","","","","<img src=images/blank.png width =""500"" height = ""500"" style=""border:5px solid black"">","","",""
"","166.57000000122935","stimulus-presentation","257","270222","0.0-19.0-1.21","SS1602822284263","<img src='images/simple/2.png' width ='500' height = '500' style='border:5px solid black'>","40","mixed_complex_deviant","images/simple/18.png","images/simple/2.png","images/complex/1.png,images/complex/17.png,images/complex/2.png,images/complex/4.png,images/complex/6.png,images/complex/9.png,images/complex/12.png","2","null","","200","366.57000000122935","","","","background","",""
"","null","html-keyboard-response","258","271445","0.0-19.0-0.22","SS1602822284263","","null","","","","","","","","","","","","<img src=images/blank.png width =""500"" height = ""500"" style=""border:5px solid black"">","","",""
"","228.44499995699152","stimulus-presentation","259","271884","0.0-19.0-1.22","SS1602822284263","<img src='images/simple/2.png' width ='500' height = '500' style='border:5px solid black'>","40","mixed_complex_deviant","images/simple/18.png","images/simple/2.png","images/complex/1.png,images/complex/17.png,images/complex/2.png,images/complex/4.png,images/complex/6.png,images/complex/9.png,images/complex/12.png","2","null","","200","428.4449999569915","","","","background","",""
"","null","html-keyboard-response","260","273160","0.0-19.0-0.23","SS1602822284263","","null","","","","","","","","","","","","<img src=images/blank.png width =""500"" height = ""500"" style=""border:5px solid black"">","","",""
"","926.7349999863654","stimulus-presentation","261","274299","0.0-19.0-1.23","SS1602822284263","<img src='images/simple/18.png' width ='500' height = '500' style='border:5px solid black'>","40","mixed_complex_deviant","images/simple/18.png","images/simple/2.png","images/complex/1.png,images/complex/17.png,images/complex/2.png,images/complex/4.png,images/complex/6.png,images/complex/9.png,images/complex/12.png","2","null","","200","1126.7349999863654","yes","327.2650000290014","","target","",""
"","null","html-keyboard-response","262","275204","0.0-19.0-0.24","SS1602822284263","","null","","","","","","","","","","","","<img src=images/blank.png width =""500"" height = ""500"" style=""border:5px solid black"">","","",""
"","209.99000000301749","stimulus-presentation","263","275628","0.0-19.0-1.24","SS1602822284263","<img src='images/simple/2.png' width ='500' height = '500' style='border:5px solid black'>","40","mixed_complex_deviant","images/simple/18.png","images/simple/2.png","images/complex/1.png,images/complex/17.png,images/complex/2.png,images/complex/4.png,images/complex/6.png,images/complex/9.png,images/complex/12.png","2","null","","200","409.9900000030175","","","","background","",""
"","null","html-keyboard-response","264","276814","0.0-19.0-0.25","SS1602822284263","","null","","","","","","","","","","","","<img src=images/blank.png width =""500"" height = ""500"" style=""border:5px solid black"">","","",""
"","163.77500002272427","stimulus-presentation","265","277188","0.0-19.0-1.25","SS1602822284263","<img src='images/simple/2.png' width ='500' height = '500' style='border:5px solid black'>","40","mixed_complex_deviant","images/simple/18.png","images/simple/2.png","images/complex/1.png,images/complex/17.png,images/complex/2.png,images/complex/4.png,images/complex/6.png,images/complex/9.png,images/complex/12.png","2","null","","200","363.77500002272427","","","","background","",""
"","null","html-keyboard-response","266","278127","0.0-19.0-0.26","SS1602822284263","","null","","","","","","","","","","","","<img src=images/blank.png width =""500"" height = ""500"" style=""border:5px solid black"">","","",""
"","274.5449999929406","stimulus-presentation","267","278613","0.0-19.0-1.26","SS1602822284263","<img src='images/simple/2.png' width ='500' height = '500' style='border:5px solid black'>","40","mixed_complex_deviant","images/simple/18.png","images/simple/2.png","images/complex/1.png,images/complex/17.png,images/complex/2.png,images/complex/4.png,images/complex/6.png,images/complex/9.png,images/complex/12.png","2","null","","200","474.5449999929406","","","","background","",""
"","null","html-keyboard-response","268","279638","0.0-19.0-0.27","SS1602822284263","","null","","","","","","","","","","","","<img src=images/blank.png width =""500"" height = ""500"" style=""border:5px solid black"">","","",""
"","255.95999998040497","stimulus-presentation","269","280109","0.0-19.0-1.27","SS1602822284263","<img src='images/simple/2.png' width ='500' height = '500' style='border:5px solid black'>","40","mixed_complex_deviant","images/simple/18.png","images/simple/2.png","images/complex/1.png,images/complex/17.png,images/complex/2.png,images/complex/4.png,images/complex/6.png,images/complex/9.png,images/complex/12.png","2","null","","200","455.959999980405","","","","background","",""
"","null","html-keyboard-response","270","281268","0.0-19.0-0.28","SS1602822284263","","null","","","","","","","","","","","","<img src=images/blank.png width =""500"" height = ""500"" style=""border:5px solid black"">","","",""
"","865.3800000320189","stimulus-presentation","271","282348","0.0-19.0-1.28","SS1602822284263","<img src='images/simple/18.png' width ='500' height = '500' style='border:5px solid black'>","40","mixed_complex_deviant","images/simple/18.png","images/simple/2.png","images/complex/1.png,images/complex/17.png,images/complex/2.png,images/complex/4.png,images/complex/6.png,images/complex/9.png,images/complex/12.png","2","null","","200","1065.3800000320189","yes","284.37000000849366","","target","",""
"","null","html-keyboard-response","272","283205","0.0-19.0-0.29","SS1602822284263","","null","","","","","","","","","","","","<img src=images/blank.png width =""500"" height = ""500"" style=""border:5px solid black"">","","",""
"","254.4849999831058","stimulus-presentation","273","283670","0.0-19.0-1.29","SS1602822284263","<img src='images/simple/2.png' width ='500' height = '500' style='border:5px solid black'>","40","mixed_complex_deviant","images/simple/18.png","images/simple/2.png","images/complex/1.png,images/complex/17.png,images/complex/2.png,images/complex/4.png,images/complex/6.png,images/complex/9.png,images/complex/12.png","2","null","","200","454.4849999831058","","","","background","",""
"","null","html-keyboard-response","274","284655","0.0-19.0-0.30","SS1602822284263","","null","","","","","","","","","","","","<img src=images/blank.png width =""500"" height = ""500"" style=""border:5px solid black"">","","",""
"","186.56000000191852","stimulus-presentation","275","285051","0.0-19.0-1.30","SS1602822284263","<img src='images/simple/2.png' width ='500' height = '500' style='border:5px solid black'>","40","mixed_complex_deviant","images/simple/18.png","images/simple/2.png","images/complex/1.png,images/complex/17.png,images/complex/2.png,images/complex/4.png,images/complex/6.png,images/complex/9.png,images/complex/12.png","2","null","","200","386.5600000019185","","","","background","",""
"","null","html-keyboard-response","276","286334","0.0-19.0-0.31","SS1602822284263","","null","","","","","","","","","","","","<img src=images/blank.png width =""500"" height = ""500"" style=""border:5px solid black"">","","",""
"","177.32499999692664","stimulus-presentation","277","286723","0.0-19.0-1.31","SS1602822284263","<img src='images/simple/2.png' width ='500' height = '500' style='border:5px solid black'>","40","mixed_complex_deviant","images/simple/18.png","images/simple/2.png","images/complex/1.png,images/complex/17.png,images/complex/2.png,images/complex/4.png,images/complex/6.png,images/complex/9.png,images/complex/12.png","2","null","","200","377.32499999692664","","","","background","",""
"","null","html-keyboard-response","278","287721","0.0-19.0-0.32","SS1602822284263","","null","","","","","","","","","","","","<img src=images/blank.png width =""500"" height = ""500"" style=""border:5px solid black"">","","",""
"","335.9949999721721","stimulus-presentation","279","288267","0.0-19.0-1.32","SS1602822284263","<img src='images/complex/9.png' width ='500' height = '500' style='border:5px solid black'>","40","mixed_complex_deviant","images/simple/18.png","images/simple/2.png","images/complex/1.png,images/complex/17.png,images/complex/2.png,images/complex/4.png,images/complex/6.png,images/complex/9.png,images/complex/12.png","2","null","","200","535.9949999721721","","","","deviant","",""
"","null","html-keyboard-response","280","289207","0.0-19.0-0.33","SS1602822284263","","null","","","","","","","","","","","","<img src=images/blank.png width =""500"" height = ""500"" style=""border:5px solid black"">","","",""
"","296.85499996412545","stimulus-presentation","281","289716","0.0-19.0-1.33","SS1602822284263","<img src='images/simple/2.png' width ='500' height = '500' style='border:5px solid black'>","40","mixed_complex_deviant","images/simple/18.png","images/simple/2.png","images/complex/1.png,images/complex/17.png,images/complex/2.png,images/complex/4.png,images/complex/6.png,images/complex/9.png,images/complex/12.png","2","null","","200","496.85499996412545","","","","background","",""
"","null","html-keyboard-response","282","290709","0.0-19.0-0.34","SS1602822284263","","null","","","","","","","","","","","","<img src=images/blank.png width =""500"" height = ""500"" style=""border:5px solid black"">","","",""
