"view_history","rt","trial_type","trial_index","time_elapsed","internal_node_id","subject","trial_stimulus","key_press","task_type","task_target_stimulus","task_background_stimulus","task_deviant_stimuli","task_order_number","block_order_number","trial_order_number","minimum_viewing_duration","trial_looking_time","trial_pressed_space_bar","trial_space_bar_rt","stimulus","trial_stimulus_type","responses","question_order"
"[{""page_index"":0,""viewing_time"":1520.009999978356},{""page_index"":1,""viewing_time"":610.1200000266545},{""page_index"":2,""viewing_time"":480.379999964498},{""page_index"":3,""viewing_time"":1392.1050000353716},{""page_index"":4,""viewing_time"":490.8599999616854},{""page_index"":5,""viewing_time"":461.4249999867752},{""page_index"":6,""viewing_time"":432.95000004582107},{""page_index"":7,""viewing_time"":433.45999997109175}]","5822.1949999569915","instructions","0","5831","0.0-0.0","SS1602823796763","","","","","","","","","","","","","","","","",""
"[{""page_index"":0,""viewing_time"":973.6900000134483},{""page_index"":1,""viewing_time"":1065.6050000106916},{""page_index"":2,""viewing_time"":1482.4099999968894}]","3521.8999999924563","instructions","1","9354","0.0-1.0","SS1602823796763","","","","","","","","","","","","","","","","",""
"","1079.0949999936856","practice-block","2","10639","0.0-2.0","SS1602823796763","<img src='images/practice/practice_background.jpeg' width ='500' height = '500' style='border:5px solid black'>","40","null","images/practice/practice_target.jpg","null","null","null","null","","200","1279.0949999936856","","","","","",""
"","null","html-keyboard-response","3","11938","0.0-3.0","SS1602823796763","","null","","","","","","","","","","","","<img src=images/blank.png width =""500"" height = ""500"" style=""border:5px solid black"">","","",""
"","121.54500000178814","practice-block","4","12264","0.0-4.0","SS1602823796763","<img src='images/practice/practice_background.jpeg' width ='500' height = '500' style='border:5px solid black'>","40","null","images/practice/practice_target.jpg","null","null","null","null","","200","321.54500000178814","","","","","",""
"","null","html-keyboard-response","5","13247","0.0-5.0","SS1602823796763","","null","","","","","","","","","","","","<img src=images/blank.png width =""500"" height = ""500"" style=""border:5px solid black"">","","",""
"","505.6749999639578","practice-block","6","13956","0.0-6.0","SS1602823796763","<img src='images/practice/practice_deviant.jpeg' width ='500' height = '500' style='border:5px solid black'>","40","null","images/practice/practice_target.jpg","null","null","null","null","","200","705.6749999639578","","","","","",""
"","null","html-keyboard-response","7","15034","0.0-7.0","SS1602823796763","","null","","","","","","","","","","","","<img src=images/blank.png width =""500"" height = ""500"" style=""border:5px solid black"">","","",""
"","208.17499997792765","practice-block","8","17223","0.0-8.0-0.0","SS1602823796763","<img src='images/practice/practice_target.jpg' width ='500' height = '500' style='border:5px solid black'>","40","null","images/practice/practice_target.jpg","null","null","null","null","","200","408.17499997792765","","","","","",""
"","2588.8450000202283","practice-block","9","20018","0.0-8.1-0.1","SS1602823796763","<img src='images/practice/practice_target.jpg' width ='500' height = '500' style='border:5px solid black'>","40","null","images/practice/practice_target.jpg","null","null","null","null","","200","2788.8450000202283","yes","335.32500005094334","","","",""
"","null","html-keyboard-response","10","20906","0.0-9.0","SS1602823796763","","null","","","","","","","","","","","","<img src=images/blank.png width =""500"" height = ""500"" style=""border:5px solid black"">","","",""
"","192.74500000756234","practice-block","11","21304","0.0-10.0","SS1602823796763","<img src='images/practice/practice_background.jpeg' width ='500' height = '500' style='border:5px solid black'>","40","null","images/practice/practice_target.jpg","null","null","null","null","","200","392.74500000756234","","","","","",""
"[{""page_index"":0,""viewing_time"":1533}]","1533","task-instructions","12","22838","0.0-11.0","SS1602823796763","","","","","","","","","","","","","","","","",""
"[{""page_index"":0,""viewing_time"":687.0199999539182},{""page_index"":1,""viewing_time"":1184.1500000446104},{""page_index"":2,""viewing_time"":815.8849999890663}]","2687.2049999656156","instructions","13","25527","0.0-12.0","SS1602823796763","","","","","","","","","","","","","","","","",""
"","null","html-keyboard-response","14","26539","0.0-13.0-0.0","SS1602823796763","","null","","","","","","","","","","","","<img src=images/blank.png width =""500"" height = ""500"" style=""border:5px solid black"">","","",""
"","301.1899999692105","stimulus-presentation","15","27044","0.0-13.0-1.0","SS1602823796763","<img src='images/complex/2.png' width ='500' height = '500' style='border:5px solid black'>","40","mixed_simple_deviant","images/complex/16.png","images/complex/2.png","images/simple/7.png,images/simple/8.png,images/simple/3.png,images/simple/6.png,images/simple/18.png,images/simple/12.png,images/simple/1.png","0","null","","200","501.1899999692105","","","","background","",""
"","null","html-keyboard-response","16","27984","0.0-13.0-0.1","SS1602823796763","","null","","","","","","","","","","","","<img src=images/blank.png width =""500"" height = ""500"" style=""border:5px solid black"">","","",""
"","74.78500000433996","stimulus-presentation","17","28264","0.0-13.0-1.1","SS1602823796763","<img src='images/complex/16.png' width ='500' height = '500' style='border:5px solid black'>","40","mixed_simple_deviant","images/complex/16.png","images/complex/2.png","images/simple/7.png,images/simple/8.png,images/simple/3.png,images/simple/6.png,images/simple/18.png,images/simple/12.png,images/simple/1.png","0","null","","200","274.78500000433996","","","","target","",""
"","null","html-keyboard-response","18","29493","0.0-13.0-0.2","SS1602823796763","","null","","","","","","","","","","","","<img src=images/blank.png width =""500"" height = ""500"" style=""border:5px solid black"">","","",""
"","183.5850000497885","stimulus-presentation","19","29883","0.0-13.0-1.2","SS1602823796763","<img src='images/complex/2.png' width ='500' height = '500' style='border:5px solid black'>","40","mixed_simple_deviant","images/complex/16.png","images/complex/2.png","images/simple/7.png,images/simple/8.png,images/simple/3.png,images/simple/6.png,images/simple/18.png,images/simple/12.png,images/simple/1.png","0","null","","200","383.5850000497885","","","","background","",""
"","null","html-keyboard-response","20","30700","0.0-13.0-0.3","SS1602823796763","","null","","","","","","","","","","","","<img src=images/blank.png width =""500"" height = ""500"" style=""border:5px solid black"">","","",""
"","160.23500001756474","stimulus-presentation","21","31069","0.0-13.0-1.3","SS1602823796763","<img src='images/complex/2.png' width ='500' height = '500' style='border:5px solid black'>","40","mixed_simple_deviant","images/complex/16.png","images/complex/2.png","images/simple/7.png,images/simple/8.png,images/simple/3.png,images/simple/6.png,images/simple/18.png,images/simple/12.png,images/simple/1.png","0","null","","200","360.23500001756474","","","","background","",""
"","null","html-keyboard-response","22","31992","0.0-13.0-0.4","SS1602823796763","","null","","","","","","","","","","","","<img src=images/blank.png width =""500"" height = ""500"" style=""border:5px solid black"">","","",""
"","281.0149999568239","stimulus-presentation","23","32480","0.0-13.0-1.4","SS1602823796763","<img src='images/simple/12.png' width ='500' height = '500' style='border:5px solid black'>","40","mixed_simple_deviant","images/complex/16.png","images/complex/2.png","images/simple/7.png,images/simple/8.png,images/simple/3.png,images/simple/6.png,images/simple/18.png,images/simple/12.png,images/simple/1.png","0","null","","200","481.0149999568239","","","","deviant","",""
"","null","html-keyboard-response","24","33454","0.0-13.0-0.5","SS1602823796763","","null","","","","","","","","","","","","<img src=images/blank.png width =""500"" height = ""500"" style=""border:5px solid black"">","","",""
"","145.4950000043027","stimulus-presentation","25","33806","0.0-13.0-1.5","SS1602823796763","<img src='images/complex/2.png' width ='500' height = '500' style='border:5px solid black'>","40","mixed_simple_deviant","images/complex/16.png","images/complex/2.png","images/simple/7.png,images/simple/8.png,images/simple/3.png,images/simple/6.png,images/simple/18.png,images/simple/12.png,images/simple/1.png","0","null","","200","345.4950000043027","","","","background","",""
"","null","html-keyboard-response","26","34689","0.0-13.0-0.6","SS1602823796763","","null","","","","","","","","","","","","<img src=images/blank.png width =""500"" height = ""500"" style=""border:5px solid black"">","","",""
"","146.01000002585351","stimulus-presentation","27","35043","0.0-13.0-1.6","SS1602823796763","<img src='images/complex/2.png' width ='500' height = '500' style='border:5px solid black'>","40","mixed_simple_deviant","images/complex/16.png","images/complex/2.png","images/simple/7.png,images/simple/8.png,images/simple/3.png,images/simple/6.png,images/simple/18.png,images/simple/12.png,images/simple/1.png","0","null","","200","346.0100000258535","","","","background","",""
"","null","html-keyboard-response","28","36109","0.0-13.0-0.7","SS1602823796763","","null","","","","","","","","","","","","<img src=images/blank.png width =""500"" height = ""500"" style=""border:5px solid black"">","","",""
"","2436.3950000260957","stimulus-presentation","29","38752","0.0-13.0-1.7","SS1602823796763","<img src='images/complex/16.png' width ='500' height = '500' style='border:5px solid black'>","40","mixed_simple_deviant","images/complex/16.png","images/complex/2.png","images/simple/7.png,images/simple/8.png,images/simple/3.png,images/simple/6.png,images/simple/18.png,images/simple/12.png,images/simple/1.png","0","null","","200","2636.3950000260957","yes","1728.579999995418","","target","",""
"","null","html-keyboard-response","30","39631","0.0-13.0-0.8","SS1602823796763","","null","","","","","","","","","","","","<img src=images/blank.png width =""500"" height = ""500"" style=""border:5px solid black"">","","",""
"","125.81500003580004","stimulus-presentation","31","39962","0.0-13.0-1.8","SS1602823796763","<img src='images/complex/2.png' width ='500' height = '500' style='border:5px solid black'>","40","mixed_simple_deviant","images/complex/16.png","images/complex/2.png","images/simple/7.png,images/simple/8.png,images/simple/3.png,images/simple/6.png,images/simple/18.png,images/simple/12.png,images/simple/1.png","0","null","","200","325.81500003580004","","","","background","",""
"","null","html-keyboard-response","32","41080","0.0-13.0-0.9","SS1602823796763","","null","","","","","","","","","","","","<img src=images/blank.png width =""500"" height = ""500"" style=""border:5px solid black"">","","",""
"","114.56000001635402","stimulus-presentation","33","41402","0.0-13.0-1.9","SS1602823796763","<img src='images/complex/2.png' width ='500' height = '500' style='border:5px solid black'>","40","mixed_simple_deviant","images/complex/16.png","images/complex/2.png","images/simple/7.png,images/simple/8.png,images/simple/3.png,images/simple/6.png,images/simple/18.png,images/simple/12.png,images/simple/1.png","0","null","","200","314.560000016354","","","","background","",""
"","null","html-keyboard-response","34","42337","0.0-13.0-0.10","SS1602823796763","","null","","","","","","","","","","","","<img src=images/blank.png width =""500"" height = ""500"" style=""border:5px solid black"">","","",""
"","169.36500003794208","stimulus-presentation","35","42709","0.0-13.0-1.10","SS1602823796763","<img src='images/complex/2.png' width ='500' height = '500' style='border:5px solid black'>","40","mixed_simple_deviant","images/complex/16.png","images/complex/2.png","images/simple/7.png,images/simple/8.png,images/simple/3.png,images/simple/6.png,images/simple/18.png,images/simple/12.png,images/simple/1.png","0","null","","200","369.3650000379421","","","","background","",""
"","null","html-keyboard-response","36","43907","0.0-13.0-0.11","SS1602823796763","","null","","","","","","","","","","","","<img src=images/blank.png width =""500"" height = ""500"" style=""border:5px solid black"">","","",""
"","201.61500002723187","stimulus-presentation","37","44313","0.0-13.0-1.11","SS1602823796763","<img src='images/complex/2.png' width ='500' height = '500' style='border:5px solid black'>","40","mixed_simple_deviant","images/complex/16.png","images/complex/2.png","images/simple/7.png,images/simple/8.png,images/simple/3.png,images/simple/6.png,images/simple/18.png,images/simple/12.png,images/simple/1.png","0","null","","200","401.6150000272319","","","","background","",""
"","null","html-keyboard-response","38","45602","0.0-13.0-0.12","SS1602823796763","","null","","","","","","","","","","","","<img src=images/blank.png width =""500"" height = ""500"" style=""border:5px solid black"">","","",""
"","141.12500002374873","stimulus-presentation","39","45947","0.0-13.0-1.12","SS1602823796763","<img src='images/complex/2.png' width ='500' height = '500' style='border:5px solid black'>","40","mixed_simple_deviant","images/complex/16.png","images/complex/2.png","images/simple/7.png,images/simple/8.png,images/simple/3.png,images/simple/6.png,images/simple/18.png,images/simple/12.png,images/simple/1.png","0","null","","200","341.1250000237487","","","","background","",""
"","null","html-keyboard-response","40","46788","0.0-13.0-0.13","SS1602823796763","","null","","","","","","","","","","","","<img src=images/blank.png width =""500"" height = ""500"" style=""border:5px solid black"">","","",""
"","179.76500000804663","stimulus-presentation","41","47173","0.0-13.0-1.13","SS1602823796763","<img src='images/complex/2.png' width ='500' height = '500' style='border:5px solid black'>","40","mixed_simple_deviant","images/complex/16.png","images/complex/2.png","images/simple/7.png,images/simple/8.png,images/simple/3.png,images/simple/6.png,images/simple/18.png,images/simple/12.png,images/simple/1.png","0","null","","200","379.7650000080466","","","","background","",""
"","null","html-keyboard-response","42","48040","0.0-13.0-0.14","SS1602823796763","","null","","","","","","","","","","","","<img src=images/blank.png width =""500"" height = ""500"" style=""border:5px solid black"">","","",""
"","924.1150000016205","stimulus-presentation","43","49173","0.0-13.0-1.14","SS1602823796763","<img src='images/complex/16.png' width ='500' height = '500' style='border:5px solid black'>","40","mixed_simple_deviant","images/complex/16.png","images/complex/2.png","images/simple/7.png,images/simple/8.png,images/simple/3.png,images/simple/6.png,images/simple/18.png,images/simple/12.png,images/simple/1.png","0","null","","200","1124.1150000016205","yes","356.824999966193","","target","",""
"","null","html-keyboard-response","44","50215","0.0-13.0-0.15","SS1602823796763","","null","","","","","","","","","","","","<img src=images/blank.png width =""500"" height = ""500"" style=""border:5px solid black"">","","",""
"","86.41500002704561","stimulus-presentation","45","50509","0.0-13.0-1.15","SS1602823796763","<img src='images/complex/2.png' width ='500' height = '500' style='border:5px solid black'>","40","mixed_simple_deviant","images/complex/16.png","images/complex/2.png","images/simple/7.png,images/simple/8.png,images/simple/3.png,images/simple/6.png,images/simple/18.png,images/simple/12.png,images/simple/1.png","0","null","","200","286.4150000270456","","","","background","",""
"","null","html-keyboard-response","46","51431","0.0-13.0-0.16","SS1602823796763","","null","","","","","","","","","","","","<img src=images/blank.png width =""500"" height = ""500"" style=""border:5px solid black"">","","",""
"","932.4550000019372","stimulus-presentation","47","52573","0.0-13.0-1.16","SS1602823796763","<img src='images/complex/16.png' width ='500' height = '500' style='border:5px solid black'>","40","mixed_simple_deviant","images/complex/16.png","images/complex/2.png","images/simple/7.png,images/simple/8.png,images/simple/3.png,images/simple/6.png,images/simple/18.png,images/simple/12.png,images/simple/1.png","0","null","","200","1132.4550000019372","yes","317.2999999951571","","target","",""
"","null","html-keyboard-response","48","53518","0.0-13.0-0.17","SS1602823796763","","null","","","","","","","","","","","","<img src=images/blank.png width =""500"" height = ""500"" style=""border:5px solid black"">","","",""
"","2010.0349999847822","stimulus-presentation","49","55734","0.0-13.0-1.17","SS1602823796763","<img src='images/complex/2.png' width ='500' height = '500' style='border:5px solid black'>","40","mixed_simple_deviant","images/complex/16.png","images/complex/2.png","images/simple/7.png,images/simple/8.png,images/simple/3.png,images/simple/6.png,images/simple/18.png,images/simple/12.png,images/simple/1.png","0","null","","200","2210.034999984782","","","","background","",""
"","null","html-keyboard-response","50","56790","0.0-13.0-0.18","SS1602823796763","","null","","","","","","","","","","","","<img src=images/blank.png width =""500"" height = ""500"" style=""border:5px solid black"">","","",""
"","149.98999994713813","stimulus-presentation","51","57145","0.0-13.0-1.18","SS1602823796763","<img src='images/complex/2.png' width ='500' height = '500' style='border:5px solid black'>","40","mixed_simple_deviant","images/complex/16.png","images/complex/2.png","images/simple/7.png,images/simple/8.png,images/simple/3.png,images/simple/6.png,images/simple/18.png,images/simple/12.png,images/simple/1.png","0","null","","200","349.98999994713813","","","","background","",""
"","null","html-keyboard-response","52","58104","0.0-13.0-0.19","SS1602823796763","","null","","","","","","","","","","","","<img src=images/blank.png width =""500"" height = ""500"" style=""border:5px solid black"">","","",""
"","297.77000000467524","stimulus-presentation","53","58608","0.0-13.0-1.19","SS1602823796763","<img src='images/simple/18.png' width ='500' height = '500' style='border:5px solid black'>","40","mixed_simple_deviant","images/complex/16.png","images/complex/2.png","images/simple/7.png,images/simple/8.png,images/simple/3.png,images/simple/6.png,images/simple/18.png,images/simple/12.png,images/simple/1.png","0","null","","200","497.77000000467524","","","","deviant","",""
"","null","html-keyboard-response","54","59561","0.0-13.0-0.20","SS1602823796763","","null","","","","","","","","","","","","<img src=images/blank.png width =""500"" height = ""500"" style=""border:5px solid black"">","","",""
"","323.0400000466034","stimulus-presentation","55","60090","0.0-13.0-1.20","SS1602823796763","<img src='images/complex/2.png' width ='500' height = '500' style='border:5px solid black'>","40","mixed_simple_deviant","images/complex/16.png","images/complex/2.png","images/simple/7.png,images/simple/8.png,images/simple/3.png,images/simple/6.png,images/simple/18.png,images/simple/12.png,images/simple/1.png","0","null","","200","523.0400000466034","","","","background","",""
"","null","html-keyboard-response","56","60923","0.0-13.0-0.21","SS1602823796763","","null","","","","","","","","","","","","<img src=images/blank.png width =""500"" height = ""500"" style=""border:5px solid black"">","","",""
"","132.63000000733882","stimulus-presentation","57","61259","0.0-13.0-1.21","SS1602823796763","<img src='images/complex/2.png' width ='500' height = '500' style='border:5px solid black'>","40","mixed_simple_deviant","images/complex/16.png","images/complex/2.png","images/simple/7.png,images/simple/8.png,images/simple/3.png,images/simple/6.png,images/simple/18.png,images/simple/12.png,images/simple/1.png","0","null","","200","332.6300000073388","","","","background","",""
"","null","html-keyboard-response","58","62382","0.0-13.0-0.22","SS1602823796763","","null","","","","","","","","","","","","<img src=images/blank.png width =""500"" height = ""500"" style=""border:5px solid black"">","","",""
"","119.40500000491738","stimulus-presentation","59","62708","0.0-13.0-1.22","SS1602823796763","<img src='images/complex/2.png' width ='500' height = '500' style='border:5px solid black'>","40","mixed_simple_deviant","images/complex/16.png","images/complex/2.png","images/simple/7.png,images/simple/8.png,images/simple/3.png,images/simple/6.png,images/simple/18.png,images/simple/12.png,images/simple/1.png","0","null","","200","319.4050000049174","","","","background","",""
"","null","html-keyboard-response","60","63744","0.0-13.0-0.23","SS1602823796763","","null","","","","","","","","","","","","<img src=images/blank.png width =""500"" height = ""500"" style=""border:5px solid black"">","","",""
"","216.21500002220273","stimulus-presentation","61","64164","0.0-13.0-1.23","SS1602823796763","<img src='images/complex/2.png' width ='500' height = '500' style='border:5px solid black'>","40","mixed_simple_deviant","images/complex/16.png","images/complex/2.png","images/simple/7.png,images/simple/8.png,images/simple/3.png,images/simple/6.png,images/simple/18.png,images/simple/12.png,images/simple/1.png","0","null","","200","416.21500002220273","","","","background","",""
"","null","html-keyboard-response","62","65156","0.0-13.0-0.24","SS1602823796763","","null","","","","","","","","","","","","<img src=images/blank.png width =""500"" height = ""500"" style=""border:5px solid black"">","","",""
"","147.84499997040257","stimulus-presentation","63","65510","0.0-13.0-1.24","SS1602823796763","<img src='images/complex/2.png' width ='500' height = '500' style='border:5px solid black'>","40","mixed_simple_deviant","images/complex/16.png","images/complex/2.png","images/simple/7.png,images/simple/8.png,images/simple/3.png,images/simple/6.png,images/simple/18.png,images/simple/12.png,images/simple/1.png","0","null","","200","347.84499997040257","","","","background","",""
"","null","html-keyboard-response","64","66508","0.0-13.0-0.25","SS1602823796763","","null","","","","","","","","","","","","<img src=images/blank.png width =""500"" height = ""500"" style=""border:5px solid black"">","","",""
"","163.27000001911074","stimulus-presentation","65","66879","0.0-13.0-1.25","SS1602823796763","<img src='images/complex/2.png' width ='500' height = '500' style='border:5px solid black'>","40","mixed_simple_deviant","images/complex/16.png","images/complex/2.png","images/simple/7.png,images/simple/8.png,images/simple/3.png,images/simple/6.png,images/simple/18.png,images/simple/12.png,images/simple/1.png","0","null","","200","363.27000001911074","","","","background","",""
"","null","html-keyboard-response","66","67694","0.0-13.0-0.26","SS1602823796763","","null","","","","","","","","","","","","<img src=images/blank.png width =""500"" height = ""500"" style=""border:5px solid black"">","","",""
"","374.71000000368804","stimulus-presentation","67","68278","0.0-13.0-1.26","SS1602823796763","<img src='images/simple/8.png' width ='500' height = '500' style='border:5px solid black'>","40","mixed_simple_deviant","images/complex/16.png","images/complex/2.png","images/simple/7.png,images/simple/8.png,images/simple/3.png,images/simple/6.png,images/simple/18.png,images/simple/12.png,images/simple/1.png","0","null","","200","574.710000003688","","","","deviant","",""
"","null","html-keyboard-response","68","69484","0.0-13.0-0.27","SS1602823796763","","null","","","","","","","","","","","","<img src=images/blank.png width =""500"" height = ""500"" style=""border:5px solid black"">","","",""
"","103.31500001484528","stimulus-presentation","69","69796","0.0-13.0-1.27","SS1602823796763","<img src='images/complex/2.png' width ='500' height = '500' style='border:5px solid black'>","40","mixed_simple_deviant","images/complex/16.png","images/complex/2.png","images/simple/7.png,images/simple/8.png,images/simple/3.png,images/simple/6.png,images/simple/18.png,images/simple/12.png,images/simple/1.png","0","null","","200","303.3150000148453","","","","background","",""
"","null","html-keyboard-response","70","70721","0.0-13.0-0.28","SS1602823796763","","null","","","","","","","","","","","","<img src=images/blank.png width =""500"" height = ""500"" style=""border:5px solid black"">","","",""
"","156.31500002928078","stimulus-presentation","71","71086","0.0-13.0-1.28","SS1602823796763","<img src='images/complex/2.png' width ='500' height = '500' style='border:5px solid black'>","40","mixed_simple_deviant","images/complex/16.png","images/complex/2.png","images/simple/7.png,images/simple/8.png,images/simple/3.png,images/simple/6.png,images/simple/18.png,images/simple/12.png,images/simple/1.png","0","null","","200","356.3150000292808","","","","background","",""
"","null","html-keyboard-response","72","72281","0.0-13.0-0.29","SS1602823796763","","null","","","","","","","","","","","","<img src=images/blank.png width =""500"" height = ""500"" style=""border:5px solid black"">","","",""
"","91.57499996945262","stimulus-presentation","73","72582","0.0-13.0-1.29","SS1602823796763","<img src='images/simple/7.png' width ='500' height = '500' style='border:5px solid black'>","40","mixed_simple_deviant","images/complex/16.png","images/complex/2.png","images/simple/7.png,images/simple/8.png,images/simple/3.png,images/simple/6.png,images/simple/18.png,images/simple/12.png,images/simple/1.png","0","null","","200","291.5749999694526","","","","deviant","",""
"","null","html-keyboard-response","74","73828","0.0-13.0-0.30","SS1602823796763","","null","","","","","","","","","","","","<img src=images/blank.png width =""500"" height = ""500"" style=""border:5px solid black"">","","",""
"","178.29000001074746","stimulus-presentation","75","74212","0.0-13.0-1.30","SS1602823796763","<img src='images/complex/2.png' width ='500' height = '500' style='border:5px solid black'>","40","mixed_simple_deviant","images/complex/16.png","images/complex/2.png","images/simple/7.png,images/simple/8.png,images/simple/3.png,images/simple/6.png,images/simple/18.png,images/simple/12.png,images/simple/1.png","0","null","","200","378.29000001074746","","","","background","",""
"","null","html-keyboard-response","76","75182","0.0-13.0-0.31","SS1602823796763","","null","","","","","","","","","","","","<img src=images/blank.png width =""500"" height = ""500"" style=""border:5px solid black"">","","",""
"","174.54999999608845","stimulus-presentation","77","75565","0.0-13.0-1.31","SS1602823796763","<img src='images/complex/2.png' width ='500' height = '500' style='border:5px solid black'>","40","mixed_simple_deviant","images/complex/16.png","images/complex/2.png","images/simple/7.png,images/simple/8.png,images/simple/3.png,images/simple/6.png,images/simple/18.png,images/simple/12.png,images/simple/1.png","0","null","","200","374.54999999608845","","","","background","",""
"","null","html-keyboard-response","78","76402","0.0-13.0-0.32","SS1602823796763","","null","","","","","","","","","","","","<img src=images/blank.png width =""500"" height = ""500"" style=""border:5px solid black"">","","",""
"","195.83500002045184","stimulus-presentation","79","76805","0.0-13.0-1.32","SS1602823796763","<img src='images/complex/2.png' width ='500' height = '500' style='border:5px solid black'>","40","mixed_simple_deviant","images/complex/16.png","images/complex/2.png","images/simple/7.png,images/simple/8.png,images/simple/3.png,images/simple/6.png,images/simple/18.png,images/simple/12.png,images/simple/1.png","0","null","","200","395.83500002045184","","","","background","",""
"","null","html-keyboard-response","80","77999","0.0-13.0-0.33","SS1602823796763","","null","","","","","","","","","","","","<img src=images/blank.png width =""500"" height = ""500"" style=""border:5px solid black"">","","",""
"","362.1450000209734","stimulus-presentation","81","78566","0.0-13.0-1.33","SS1602823796763","<img src='images/simple/6.png' width ='500' height = '500' style='border:5px solid black'>","40","mixed_simple_deviant","images/complex/16.png","images/complex/2.png","images/simple/7.png,images/simple/8.png,images/simple/3.png,images/simple/6.png,images/simple/18.png,images/simple/12.png,images/simple/1.png","0","null","","200","562.1450000209734","","","","deviant","",""
"","null","html-keyboard-response","82","79708","0.0-13.0-0.34","SS1602823796763","","null","","","","","","","","","","","","<img src=images/blank.png width =""500"" height = ""500"" style=""border:5px solid black"">","","",""
"","257.2500000242144","stimulus-presentation","83","80174","0.0-13.0-1.34","SS1602823796763","<img src='images/complex/2.png' width ='500' height = '500' style='border:5px solid black'>","40","mixed_simple_deviant","images/complex/16.png","images/complex/2.png","images/simple/7.png,images/simple/8.png,images/simple/3.png,images/simple/6.png,images/simple/18.png,images/simple/12.png,images/simple/1.png","0","null","","200","457.2500000242144","","","","background","",""
"","null","html-keyboard-response","84","81399","0.0-13.0-0.35","SS1602823796763","","null","","","","","","","","","","","","<img src=images/blank.png width =""500"" height = ""500"" style=""border:5px solid black"">","","",""
"","140.87999996263534","stimulus-presentation","85","81748","0.0-13.0-1.35","SS1602823796763","<img src='images/complex/2.png' width ='500' height = '500' style='border:5px solid black'>","40","mixed_simple_deviant","images/complex/16.png","images/complex/2.png","images/simple/7.png,images/simple/8.png,images/simple/3.png,images/simple/6.png,images/simple/18.png,images/simple/12.png,images/simple/1.png","0","null","","200","340.87999996263534","","","","background","",""
"","null","html-keyboard-response","86","82809","0.0-13.0-0.36","SS1602823796763","","null","","","","","","","","","","","","<img src=images/blank.png width =""500"" height = ""500"" style=""border:5px solid black"">","","",""
"","115.00500002875924","stimulus-presentation","87","83132","0.0-13.0-1.36","SS1602823796763","<img src='images/complex/2.png' width ='500' height = '500' style='border:5px solid black'>","40","mixed_simple_deviant","images/complex/16.png","images/complex/2.png","images/simple/7.png,images/simple/8.png,images/simple/3.png,images/simple/6.png,images/simple/18.png,images/simple/12.png,images/simple/1.png","0","null","","200","315.00500002875924","","","","background","",""
"","null","html-keyboard-response","88","84281","0.0-13.0-0.37","SS1602823796763","","null","","","","","","","","","","","","<img src=images/blank.png width =""500"" height = ""500"" style=""border:5px solid black"">","","",""
"","267.57000002544373","stimulus-presentation","89","84758","0.0-13.0-1.37","SS1602823796763","<img src='images/complex/2.png' width ='500' height = '500' style='border:5px solid black'>","40","mixed_simple_deviant","images/complex/16.png","images/complex/2.png","images/simple/7.png,images/simple/8.png,images/simple/3.png,images/simple/6.png,images/simple/18.png,images/simple/12.png,images/simple/1.png","0","null","","200","467.57000002544373","","","","background","",""
"","null","html-keyboard-response","90","85722","0.0-13.0-0.38","SS1602823796763","","null","","","","","","","","","","","","<img src=images/blank.png width =""500"" height = ""500"" style=""border:5px solid black"">","","",""
"","240.84000004222617","stimulus-presentation","91","86173","0.0-13.0-1.38","SS1602823796763","<img src='images/simple/1.png' width ='500' height = '500' style='border:5px solid black'>","40","mixed_simple_deviant","images/complex/16.png","images/complex/2.png","images/simple/7.png,images/simple/8.png,images/simple/3.png,images/simple/6.png,images/simple/18.png,images/simple/12.png,images/simple/1.png","0","null","","200","440.84000004222617","","","","deviant","",""
"","null","html-keyboard-response","92","87428","0.0-13.0-0.39","SS1602823796763","","null","","","","","","","","","","","","<img src=images/blank.png width =""500"" height = ""500"" style=""border:5px solid black"">","","",""
"","976.5899999765679","stimulus-presentation","93","88615","0.0-13.0-1.39","SS1602823796763","<img src='images/complex/16.png' width ='500' height = '500' style='border:5px solid black'>","40","mixed_simple_deviant","images/complex/16.png","images/complex/2.png","images/simple/7.png,images/simple/8.png,images/simple/3.png,images/simple/6.png,images/simple/18.png,images/simple/12.png,images/simple/1.png","0","null","","200","1176.589999976568","yes","423.320000001695","","target","",""
"","null","html-keyboard-response","94","89591","0.0-13.0-0.40","SS1602823796763","","null","","","","","","","","","","","","<img src=images/blank.png width =""500"" height = ""500"" style=""border:5px solid black"">","","",""
"","190.2099999715574","stimulus-presentation","95","89989","0.0-13.0-1.40","SS1602823796763","<img src='images/complex/2.png' width ='500' height = '500' style='border:5px solid black'>","40","mixed_simple_deviant","images/complex/16.png","images/complex/2.png","images/simple/7.png,images/simple/8.png,images/simple/3.png,images/simple/6.png,images/simple/18.png,images/simple/12.png,images/simple/1.png","0","null","","200","390.2099999715574","","","","background","",""
"","null","html-keyboard-response","96","91169","0.0-13.0-0.41","SS1602823796763","","null","","","","","","","","","","","","<img src=images/blank.png width =""500"" height = ""500"" style=""border:5px solid black"">","","",""
"","187.60499998461455","stimulus-presentation","97","91565","0.0-13.0-1.41","SS1602823796763","<img src='images/complex/2.png' width ='500' height = '500' style='border:5px solid black'>","40","mixed_simple_deviant","images/complex/16.png","images/complex/2.png","images/simple/7.png,images/simple/8.png,images/simple/3.png,images/simple/6.png,images/simple/18.png,images/simple/12.png,images/simple/1.png","0","null","","200","387.60499998461455","","","","background","",""
"","null","html-keyboard-response","98","92827","0.0-13.0-0.42","SS1602823796763","","null","","","","","","","","","","","","<img src=images/blank.png width =""500"" height = ""500"" style=""border:5px solid black"">","","",""
"","1592.6600000238977","stimulus-presentation","99","94625","0.0-13.0-1.42","SS1602823796763","<img src='images/complex/16.png' width ='500' height = '500' style='border:5px solid black'>","40","mixed_simple_deviant","images/complex/16.png","images/complex/2.png","images/simple/7.png,images/simple/8.png,images/simple/3.png,images/simple/6.png,images/simple/18.png,images/simple/12.png,images/simple/1.png","0","null","","200","1792.6600000238977","yes","546.4150000480004","","target","",""
"","null","html-keyboard-response","100","95644","0.0-13.0-0.43","SS1602823796763","","null","","","","","","","","","","","","<img src=images/blank.png width =""500"" height = ""500"" style=""border:5px solid black"">","","",""
"","692.1549999970011","stimulus-presentation","101","96544","0.0-13.0-1.43","SS1602823796763","<img src='images/complex/2.png' width ='500' height = '500' style='border:5px solid black'>","40","mixed_simple_deviant","images/complex/16.png","images/complex/2.png","images/simple/7.png,images/simple/8.png,images/simple/3.png,images/simple/6.png,images/simple/18.png,images/simple/12.png,images/simple/1.png","0","null","","200","892.1549999970011","","","","background","",""
"","null","html-keyboard-response","102","97394","0.0-13.0-0.44","SS1602823796763","","null","","","","","","","","","","","","<img src=images/blank.png width =""500"" height = ""500"" style=""border:5px solid black"">","","",""
"","337.0449999929406","stimulus-presentation","103","97939","0.0-13.0-1.44","SS1602823796763","<img src='images/simple/3.png' width ='500' height = '500' style='border:5px solid black'>","40","mixed_simple_deviant","images/complex/16.png","images/complex/2.png","images/simple/7.png,images/simple/8.png,images/simple/3.png,images/simple/6.png,images/simple/18.png,images/simple/12.png,images/simple/1.png","0","null","","200","537.0449999929406","","","","deviant","",""
"","null","html-keyboard-response","104","99167","0.0-13.0-0.45","SS1602823796763","","null","","","","","","","","","","","","<img src=images/blank.png width =""500"" height = ""500"" style=""border:5px solid black"">","","",""
"","954.4549999991432","stimulus-presentation","105","100330","0.0-13.0-1.45","SS1602823796763","<img src='images/complex/16.png' width ='500' height = '500' style='border:5px solid black'>","40","mixed_simple_deviant","images/complex/16.png","images/complex/2.png","images/simple/7.png,images/simple/8.png,images/simple/3.png,images/simple/6.png,images/simple/18.png,images/simple/12.png,images/simple/1.png","0","null","","200","1154.4549999991432","yes","394.43499996559694","","target","",""
"","null","html-keyboard-response","106","101190","0.0-13.0-0.46","SS1602823796763","","null","","","","","","","","","","","","<img src=images/blank.png width =""500"" height = ""500"" style=""border:5px solid black"">","","",""
"","163.75000000698492","stimulus-presentation","107","101560","0.0-13.0-1.46","SS1602823796763","<img src='images/complex/2.png' width ='500' height = '500' style='border:5px solid black'>","40","mixed_simple_deviant","images/complex/16.png","images/complex/2.png","images/simple/7.png,images/simple/8.png,images/simple/3.png,images/simple/6.png,images/simple/18.png,images/simple/12.png,images/simple/1.png","0","null","","200","363.7500000069849","","","","background","",""
"","null","html-keyboard-response","108","102419","0.0-13.0-0.47","SS1602823796763","","null","","","","","","","","","","","","<img src=images/blank.png width =""500"" height = ""500"" style=""border:5px solid black"">","","",""
"","111.1500000115484","stimulus-presentation","109","102737","0.0-13.0-1.47","SS1602823796763","<img src='images/complex/2.png' width ='500' height = '500' style='border:5px solid black'>","40","mixed_simple_deviant","images/complex/16.png","images/complex/2.png","images/simple/7.png,images/simple/8.png,images/simple/3.png,images/simple/6.png,images/simple/18.png,images/simple/12.png,images/simple/1.png","0","null","","200","311.1500000115484","","","","background","",""
"","null","html-keyboard-response","110","103815","0.0-13.0-0.48","SS1602823796763","","null","","","","","","","","","","","","<img src=images/blank.png width =""500"" height = ""500"" style=""border:5px solid black"">","","",""
"","1771.4750000159256","stimulus-presentation","111","105789","0.0-13.0-1.48","SS1602823796763","<img src='images/complex/2.png' width ='500' height = '500' style='border:5px solid black'>","40","mixed_simple_deviant","images/complex/16.png","images/complex/2.png","images/simple/7.png,images/simple/8.png,images/simple/3.png,images/simple/6.png,images/simple/18.png,images/simple/12.png,images/simple/1.png","0","null","","200","1971.4750000159256","","","","background","",""
"[{""page_index"":0,""viewing_time"":1961}]","1961","task-instructions","112","107752","0.0-14.0","SS1602823796763","","","","","","","","","","","","","","","","",""
"[{""page_index"":0,""viewing_time"":752.3849999997765},{""page_index"":1,""viewing_time"":1031.7250000080094},{""page_index"":2,""viewing_time"":990.4000000096858}]","2774.7200000449084","instructions","113","110528","0.0-15.0","SS1602823796763","","","","","","","","","","","","","","","","",""
"","null","html-keyboard-response","114","111495","0.0-16.0-0.0","SS1602823796763","","null","","","","","","","","","","","","<img src=images/blank.png width =""500"" height = ""500"" style=""border:5px solid black"">","","",""
"","276.9700000062585","stimulus-presentation","115","111978","0.0-16.0-1.0","SS1602823796763","<img src='images/complex/10.png' width ='500' height = '500' style='border:5px solid black'>","40","all_complex","images/complex/4.png","images/complex/10.png","images/complex/14.png,images/complex/3.png,images/complex/13.png,images/complex/7.png,images/complex/5.png,images/complex/9.png,images/complex/17.png","1","null","","200","476.9700000062585","","","","background","",""
"","null","html-keyboard-response","116","112861","0.0-16.0-0.1","SS1602823796763","","null","","","","","","","","","","","","<img src=images/blank.png width =""500"" height = ""500"" style=""border:5px solid black"">","","",""
"","141.61000004969537","stimulus-presentation","117","113205","0.0-16.0-1.1","SS1602823796763","<img src='images/complex/10.png' width ='500' height = '500' style='border:5px solid black'>","40","all_complex","images/complex/4.png","images/complex/10.png","images/complex/14.png,images/complex/3.png,images/complex/13.png,images/complex/7.png,images/complex/5.png,images/complex/9.png,images/complex/17.png","1","null","","200","341.6100000496954","","","","background","",""
"","null","html-keyboard-response","118","114041","0.0-16.0-0.2","SS1602823796763","","null","","","","","","","","","","","","<img src=images/blank.png width =""500"" height = ""500"" style=""border:5px solid black"">","","",""
"","133.68999998783693","stimulus-presentation","119","114381","0.0-16.0-1.2","SS1602823796763","<img src='images/complex/10.png' width ='500' height = '500' style='border:5px solid black'>","40","all_complex","images/complex/4.png","images/complex/10.png","images/complex/14.png,images/complex/3.png,images/complex/13.png,images/complex/7.png,images/complex/5.png,images/complex/9.png,images/complex/17.png","1","null","","200","333.6899999878369","","","","background","",""
"","null","html-keyboard-response","120","115354","0.0-16.0-0.3","SS1602823796763","","null","","","","","","","","","","","","<img src=images/blank.png width =""500"" height = ""500"" style=""border:5px solid black"">","","",""
"","109.714999969583","stimulus-presentation","121","115674","0.0-16.0-1.3","SS1602823796763","<img src='images/complex/10.png' width ='500' height = '500' style='border:5px solid black'>","40","all_complex","images/complex/4.png","images/complex/10.png","images/complex/14.png,images/complex/3.png,images/complex/13.png,images/complex/7.png,images/complex/5.png,images/complex/9.png,images/complex/17.png","1","null","","200","309.714999969583","","","","background","",""
"","null","html-keyboard-response","122","116885","0.0-16.0-0.4","SS1602823796763","","null","","","","","","","","","","","","<img src=images/blank.png width =""500"" height = ""500"" style=""border:5px solid black"">","","",""
"","117.91500000981614","stimulus-presentation","123","117213","0.0-16.0-1.4","SS1602823796763","<img src='images/complex/10.png' width ='500' height = '500' style='border:5px solid black'>","40","all_complex","images/complex/4.png","images/complex/10.png","images/complex/14.png,images/complex/3.png,images/complex/13.png,images/complex/7.png,images/complex/5.png,images/complex/9.png,images/complex/17.png","1","null","","200","317.91500000981614","","","","background","",""
"","null","html-keyboard-response","124","118170","0.0-16.0-0.5","SS1602823796763","","null","","","","","","","","","","","","<img src=images/blank.png width =""500"" height = ""500"" style=""border:5px solid black"">","","",""
"","94.57000001566485","stimulus-presentation","125","118475","0.0-16.0-1.5","SS1602823796763","<img src='images/complex/10.png' width ='500' height = '500' style='border:5px solid black'>","40","all_complex","images/complex/4.png","images/complex/10.png","images/complex/14.png,images/complex/3.png,images/complex/13.png,images/complex/7.png,images/complex/5.png,images/complex/9.png,images/complex/17.png","1","null","","200","294.57000001566485","","","","background","",""
"","null","html-keyboard-response","126","119741","0.0-16.0-0.6","SS1602823796763","","null","","","","","","","","","","","","<img src=images/blank.png width =""500"" height = ""500"" style=""border:5px solid black"">","","",""
"","339.040000049863","stimulus-presentation","127","120288","0.0-16.0-1.6","SS1602823796763","<img src='images/complex/10.png' width ='500' height = '500' style='border:5px solid black'>","40","all_complex","images/complex/4.png","images/complex/10.png","images/complex/14.png,images/complex/3.png,images/complex/13.png,images/complex/7.png,images/complex/5.png,images/complex/9.png,images/complex/17.png","1","null","","200","539.040000049863","","","","background","",""
"","null","html-keyboard-response","128","121362","0.0-16.0-0.7","SS1602823796763","","null","","","","","","","","","","","","<img src=images/blank.png width =""500"" height = ""500"" style=""border:5px solid black"">","","",""
"","115.36499997600913","stimulus-presentation","129","121685","0.0-16.0-1.7","SS1602823796763","<img src='images/complex/3.png' width ='500' height = '500' style='border:5px solid black'>","40","all_complex","images/complex/4.png","images/complex/10.png","images/complex/14.png,images/complex/3.png,images/complex/13.png,images/complex/7.png,images/complex/5.png,images/complex/9.png,images/complex/17.png","1","null","","200","315.36499997600913","","","","deviant","",""
"","null","html-keyboard-response","130","122941","0.0-16.0-0.8","SS1602823796763","","null","","","","","","","","","","","","<img src=images/blank.png width =""500"" height = ""500"" style=""border:5px solid black"">","","",""
"","232.91999998036772","stimulus-presentation","131","123382","0.0-16.0-1.8","SS1602823796763","<img src='images/complex/10.png' width ='500' height = '500' style='border:5px solid black'>","40","all_complex","images/complex/4.png","images/complex/10.png","images/complex/14.png,images/complex/3.png,images/complex/13.png,images/complex/7.png,images/complex/5.png,images/complex/9.png,images/complex/17.png","1","null","","200","432.9199999803677","","","","background","",""
"","null","html-keyboard-response","132","124330","0.0-16.0-0.9","SS1602823796763","","null","","","","","","","","","","","","<img src=images/blank.png width =""500"" height = ""500"" style=""border:5px solid black"">","","",""
"","201.13000000128523","stimulus-presentation","133","124742","0.0-16.0-1.9","SS1602823796763","<img src='images/complex/10.png' width ='500' height = '500' style='border:5px solid black'>","40","all_complex","images/complex/4.png","images/complex/10.png","images/complex/14.png,images/complex/3.png,images/complex/13.png,images/complex/7.png,images/complex/5.png,images/complex/9.png,images/complex/17.png","1","null","","200","401.1300000012852","","","","background","",""
"","null","html-keyboard-response","134","125705","0.0-16.0-0.10","SS1602823796763","","null","","","","","","","","","","","","<img src=images/blank.png width =""500"" height = ""500"" style=""border:5px solid black"">","","",""
"","129.26000001607463","stimulus-presentation","135","126046","0.0-16.0-1.10","SS1602823796763","<img src='images/complex/10.png' width ='500' height = '500' style='border:5px solid black'>","40","all_complex","images/complex/4.png","images/complex/10.png","images/complex/14.png,images/complex/3.png,images/complex/13.png,images/complex/7.png,images/complex/5.png,images/complex/9.png,images/complex/17.png","1","null","","200","329.2600000160746","","","","background","",""
"","null","html-keyboard-response","136","127095","0.0-16.0-0.11","SS1602823796763","","null","","","","","","","","","","","","<img src=images/blank.png width =""500"" height = ""500"" style=""border:5px solid black"">","","",""
"","1084.2650000122376","stimulus-presentation","137","128387","0.0-16.0-1.11","SS1602823796763","<img src='images/complex/4.png' width ='500' height = '500' style='border:5px solid black'>","40","all_complex","images/complex/4.png","images/complex/10.png","images/complex/14.png,images/complex/3.png,images/complex/13.png,images/complex/7.png,images/complex/5.png,images/complex/9.png,images/complex/17.png","1","null","","200","1284.2650000122376","yes","494.6549999876879","","target","",""
"","null","html-keyboard-response","138","129408","0.0-16.0-0.12","SS1602823796763","","null","","","","","","","","","","","","<img src=images/blank.png width =""500"" height = ""500"" style=""border:5px solid black"">","","",""
"","136.57500001136214","stimulus-presentation","139","129755","0.0-16.0-1.12","SS1602823796763","<img src='images/complex/10.png' width ='500' height = '500' style='border:5px solid black'>","40","all_complex","images/complex/4.png","images/complex/10.png","images/complex/14.png,images/complex/3.png,images/complex/13.png,images/complex/7.png,images/complex/5.png,images/complex/9.png,images/complex/17.png","1","null","","200","336.57500001136214","","","","background","",""
"","null","html-keyboard-response","140","130876","0.0-16.0-0.13","SS1602823796763","","null","","","","","","","","","","","","<img src=images/blank.png width =""500"" height = ""500"" style=""border:5px solid black"">","","",""
"","91.1750000086613","stimulus-presentation","141","131176","0.0-16.0-1.13","SS1602823796763","<img src='images/complex/7.png' width ='500' height = '500' style='border:5px solid black'>","40","all_complex","images/complex/4.png","images/complex/10.png","images/complex/14.png,images/complex/3.png,images/complex/13.png,images/complex/7.png,images/complex/5.png,images/complex/9.png,images/complex/17.png","1","null","","200","291.1750000086613","","","","deviant","",""
"","null","html-keyboard-response","142","132407","0.0-16.0-0.14","SS1602823796763","","null","","","","","","","","","","","","<img src=images/blank.png width =""500"" height = ""500"" style=""border:5px solid black"">","","",""
"","156.66999999666587","stimulus-presentation","143","132772","0.0-16.0-1.14","SS1602823796763","<img src='images/complex/10.png' width ='500' height = '500' style='border:5px solid black'>","40","all_complex","images/complex/4.png","images/complex/10.png","images/complex/14.png,images/complex/3.png,images/complex/13.png,images/complex/7.png,images/complex/5.png,images/complex/9.png,images/complex/17.png","1","null","","200","356.66999999666587","","","","background","",""
"","null","html-keyboard-response","144","133805","0.0-16.0-0.15","SS1602823796763","","null","","","","","","","","","","","","<img src=images/blank.png width =""500"" height = ""500"" style=""border:5px solid black"">","","",""
"","169.36500003794208","stimulus-presentation","145","134182","0.0-16.0-1.15","SS1602823796763","<img src='images/complex/10.png' width ='500' height = '500' style='border:5px solid black'>","40","all_complex","images/complex/4.png","images/complex/10.png","images/complex/14.png,images/complex/3.png,images/complex/13.png,images/complex/7.png,images/complex/5.png,images/complex/9.png,images/complex/17.png","1","null","","200","369.3650000379421","","","","background","",""
"","null","html-keyboard-response","146","135212","0.0-16.0-0.16","SS1602823796763","","null","","","","","","","","","","","","<img src=images/blank.png width =""500"" height = ""500"" style=""border:5px solid black"">","","",""
"","814.4800000009127","stimulus-presentation","147","136235","0.0-16.0-1.16","SS1602823796763","<img src='images/complex/4.png' width ='500' height = '500' style='border:5px solid black'>","40","all_complex","images/complex/4.png","images/complex/10.png","images/complex/14.png,images/complex/3.png,images/complex/13.png,images/complex/7.png,images/complex/5.png,images/complex/9.png,images/complex/17.png","1","null","","200","1014.4800000009127","yes","224.97999999905005","","target","",""
"","null","html-keyboard-response","148","137424","0.0-16.0-0.17","SS1602823796763","","null","","","","","","","","","","","","<img src=images/blank.png width =""500"" height = ""500"" style=""border:5px solid black"">","","",""
"","195.89999999152496","stimulus-presentation","149","137830","0.0-16.0-1.17","SS1602823796763","<img src='images/complex/4.png' width ='500' height = '500' style='border:5px solid black'>","40","all_complex","images/complex/4.png","images/complex/10.png","images/complex/14.png,images/complex/3.png,images/complex/13.png,images/complex/7.png,images/complex/5.png,images/complex/9.png,images/complex/17.png","1","null","","200","395.89999999152496","","","","target","",""
"","null","html-keyboard-response","150","138823","0.0-16.0-0.18","SS1602823796763","","null","","","","","","","","","","","","<img src=images/blank.png width =""500"" height = ""500"" style=""border:5px solid black"">","","",""
"","574.6349999681115","stimulus-presentation","151","139606","0.0-16.0-1.18","SS1602823796763","<img src='images/complex/10.png' width ='500' height = '500' style='border:5px solid black'>","40","all_complex","images/complex/4.png","images/complex/10.png","images/complex/14.png,images/complex/3.png,images/complex/13.png,images/complex/7.png,images/complex/5.png,images/complex/9.png,images/complex/17.png","1","null","","200","774.6349999681115","","","","background","",""
"","null","html-keyboard-response","152","140880","0.0-16.0-0.19","SS1602823796763","","null","","","","","","","","","","","","<img src=images/blank.png width =""500"" height = ""500"" style=""border:5px solid black"">","","",""
"","182.38000001292676","stimulus-presentation","153","141273","0.0-16.0-1.19","SS1602823796763","<img src='images/complex/10.png' width ='500' height = '500' style='border:5px solid black'>","40","all_complex","images/complex/4.png","images/complex/10.png","images/complex/14.png,images/complex/3.png,images/complex/13.png,images/complex/7.png,images/complex/5.png,images/complex/9.png,images/complex/17.png","1","null","","200","382.38000001292676","","","","background","",""
"","null","html-keyboard-response","154","142347","0.0-16.0-0.20","SS1602823796763","","null","","","","","","","","","","","","<img src=images/blank.png width =""500"" height = ""500"" style=""border:5px solid black"">","","",""
"","199.02000000001863","stimulus-presentation","155","142756","0.0-16.0-1.20","SS1602823796763","<img src='images/complex/10.png' width ='500' height = '500' style='border:5px solid black'>","40","all_complex","images/complex/4.png","images/complex/10.png","images/complex/14.png,images/complex/3.png,images/complex/13.png,images/complex/7.png,images/complex/5.png,images/complex/9.png,images/complex/17.png","1","null","","200","399.0200000000186","","","","background","",""
"","null","html-keyboard-response","156","144000","0.0-16.0-0.21","SS1602823796763","","null","","","","","","","","","","","","<img src=images/blank.png width =""500"" height = ""500"" style=""border:5px solid black"">","","",""
"","155.50499997334555","stimulus-presentation","157","144366","0.0-16.0-1.21","SS1602823796763","<img src='images/complex/10.png' width ='500' height = '500' style='border:5px solid black'>","40","all_complex","images/complex/4.png","images/complex/10.png","images/complex/14.png,images/complex/3.png,images/complex/13.png,images/complex/7.png,images/complex/5.png,images/complex/9.png,images/complex/17.png","1","null","","200","355.50499997334555","","","","background","",""
"","null","html-keyboard-response","158","145382","0.0-16.0-0.22","SS1602823796763","","null","","","","","","","","","","","","<img src=images/blank.png width =""500"" height = ""500"" style=""border:5px solid black"">","","",""
"","311.34999997448176","stimulus-presentation","159","145902","0.0-16.0-1.22","SS1602823796763","<img src='images/complex/9.png' width ='500' height = '500' style='border:5px solid black'>","40","all_complex","images/complex/4.png","images/complex/10.png","images/complex/14.png,images/complex/3.png,images/complex/13.png,images/complex/7.png,images/complex/5.png,images/complex/9.png,images/complex/17.png","1","null","","200","511.34999997448176","","","","deviant","",""
"","null","html-keyboard-response","160","146866","0.0-16.0-0.23","SS1602823796763","","null","","","","","","","","","","","","<img src=images/blank.png width =""500"" height = ""500"" style=""border:5px solid black"">","","",""
"","250.56999997468665","stimulus-presentation","161","147325","0.0-16.0-1.23","SS1602823796763","<img src='images/complex/10.png' width ='500' height = '500' style='border:5px solid black'>","40","all_complex","images/complex/4.png","images/complex/10.png","images/complex/14.png,images/complex/3.png,images/complex/13.png,images/complex/7.png,images/complex/5.png,images/complex/9.png,images/complex/17.png","1","null","","200","450.56999997468665","","","","background","",""
"","null","html-keyboard-response","162","148525","0.0-16.0-0.24","SS1602823796763","","null","","","","","","","","","","","","<img src=images/blank.png width =""500"" height = ""500"" style=""border:5px solid black"">","","",""
"","664.9399999878369","stimulus-presentation","163","149398","0.0-16.0-1.24","SS1602823796763","<img src='images/complex/17.png' width ='500' height = '500' style='border:5px solid black'>","40","all_complex","images/complex/4.png","images/complex/10.png","images/complex/14.png,images/complex/3.png,images/complex/13.png,images/complex/7.png,images/complex/5.png,images/complex/9.png,images/complex/17.png","1","null","","200","864.9399999878369","","","","deviant","",""
"","null","html-keyboard-response","164","150322","0.0-16.0-0.25","SS1602823796763","","null","","","","","","","","","","","","<img src=images/blank.png width =""500"" height = ""500"" style=""border:5px solid black"">","","",""
"","867.8199999849312","stimulus-presentation","165","151398","0.0-16.0-1.25","SS1602823796763","<img src='images/complex/4.png' width ='500' height = '500' style='border:5px solid black'>","40","all_complex","images/complex/4.png","images/complex/10.png","images/complex/14.png,images/complex/3.png,images/complex/13.png,images/complex/7.png,images/complex/5.png,images/complex/9.png,images/complex/17.png","1","null","","200","1067.8199999849312","yes","338.9249999891035","","target","",""
"","null","html-keyboard-response","166","152514","0.0-16.0-0.26","SS1602823796763","","null","","","","","","","","","","","","<img src=images/blank.png width =""500"" height = ""500"" style=""border:5px solid black"">","","",""
"","196.7850000364706","stimulus-presentation","167","152919","0.0-16.0-1.26","SS1602823796763","<img src='images/complex/10.png' width ='500' height = '500' style='border:5px solid black'>","40","all_complex","images/complex/4.png","images/complex/10.png","images/complex/14.png,images/complex/3.png,images/complex/13.png,images/complex/7.png,images/complex/5.png,images/complex/9.png,images/complex/17.png","1","null","","200","396.7850000364706","","","","background","",""
"","null","html-keyboard-response","168","154086","0.0-16.0-0.27","SS1602823796763","","null","","","","","","","","","","","","<img src=images/blank.png width =""500"" height = ""500"" style=""border:5px solid black"">","","",""
"","150.16499999910593","stimulus-presentation","169","154446","0.0-16.0-1.27","SS1602823796763","<img src='images/complex/10.png' width ='500' height = '500' style='border:5px solid black'>","40","all_complex","images/complex/4.png","images/complex/10.png","images/complex/14.png,images/complex/3.png,images/complex/13.png,images/complex/7.png,images/complex/5.png,images/complex/9.png,images/complex/17.png","1","null","","200","350.16499999910593","","","","background","",""
"","null","html-keyboard-response","170","155570","0.0-16.0-0.28","SS1602823796763","","null","","","","","","","","","","","","<img src=images/blank.png width =""500"" height = ""500"" style=""border:5px solid black"">","","",""
"","795.4749999917112","stimulus-presentation","171","156574","0.0-16.0-1.28","SS1602823796763","<img src='images/complex/4.png' width ='500' height = '500' style='border:5px solid black'>","40","all_complex","images/complex/4.png","images/complex/10.png","images/complex/14.png,images/complex/3.png,images/complex/13.png,images/complex/7.png,images/complex/5.png,images/complex/9.png,images/complex/17.png","1","null","","200","995.4749999917112","yes","251.96500000311062","","target","",""
"","null","html-keyboard-response","172","157547","0.0-16.0-0.29","SS1602823796763","","null","","","","","","","","","","","","<img src=images/blank.png width =""500"" height = ""500"" style=""border:5px solid black"">","","",""
"","287.53999999025837","stimulus-presentation","173","158044","0.0-16.0-1.29","SS1602823796763","<img src='images/complex/10.png' width ='500' height = '500' style='border:5px solid black'>","40","all_complex","images/complex/4.png","images/complex/10.png","images/complex/14.png,images/complex/3.png,images/complex/13.png,images/complex/7.png,images/complex/5.png,images/complex/9.png,images/complex/17.png","1","null","","200","487.53999999025837","","","","background","",""
"","null","html-keyboard-response","174","159082","0.0-16.0-0.30","SS1602823796763","","null","","","","","","","","","","","","<img src=images/blank.png width =""500"" height = ""500"" style=""border:5px solid black"">","","",""
"","106.70499998377636","stimulus-presentation","175","159398","0.0-16.0-1.30","SS1602823796763","<img src='images/complex/10.png' width ='500' height = '500' style='border:5px solid black'>","40","all_complex","images/complex/4.png","images/complex/10.png","images/complex/14.png,images/complex/3.png,images/complex/13.png,images/complex/7.png,images/complex/5.png,images/complex/9.png,images/complex/17.png","1","null","","200","306.70499998377636","","","","background","",""
"","null","html-keyboard-response","176","160476","0.0-16.0-0.31","SS1602823796763","","null","","","","","","","","","","","","<img src=images/blank.png width =""500"" height = ""500"" style=""border:5px solid black"">","","",""
"","92.83999999752268","stimulus-presentation","177","160782","0.0-16.0-1.31","SS1602823796763","<img src='images/complex/10.png' width ='500' height = '500' style='border:5px solid black'>","40","all_complex","images/complex/4.png","images/complex/10.png","images/complex/14.png,images/complex/3.png,images/complex/13.png,images/complex/7.png,images/complex/5.png,images/complex/9.png,images/complex/17.png","1","null","","200","292.8399999975227","","","","background","",""
"","null","html-keyboard-response","178","161991","0.0-16.0-0.32","SS1602823796763","","null","","","","","","","","","","","","<img src=images/blank.png width =""500"" height = ""500"" style=""border:5px solid black"">","","",""
"","351.49999998975545","stimulus-presentation","179","162552","0.0-16.0-1.32","SS1602823796763","<img src='images/complex/14.png' width ='500' height = '500' style='border:5px solid black'>","40","all_complex","images/complex/4.png","images/complex/10.png","images/complex/14.png,images/complex/3.png,images/complex/13.png,images/complex/7.png,images/complex/5.png,images/complex/9.png,images/complex/17.png","1","null","","200","551.4999999897555","","","","deviant","",""
"","null","html-keyboard-response","180","163773","0.0-16.0-0.33","SS1602823796763","","null","","","","","","","","","","","","<img src=images/blank.png width =""500"" height = ""500"" style=""border:5px solid black"">","","",""
"","153.9049999555573","stimulus-presentation","181","164135","0.0-16.0-1.33","SS1602823796763","<img src='images/complex/10.png' width ='500' height = '500' style='border:5px solid black'>","40","all_complex","images/complex/4.png","images/complex/10.png","images/complex/14.png,images/complex/3.png,images/complex/13.png,images/complex/7.png,images/complex/5.png,images/complex/9.png,images/complex/17.png","1","null","","200","353.9049999555573","","","","background","",""
"","null","html-keyboard-response","182","165441","0.0-16.0-0.34","SS1602823796763","","null","","","","","","","","","","","","<img src=images/blank.png width =""500"" height = ""500"" style=""border:5px solid black"">","","",""
"","115.84500002209097","stimulus-presentation","183","165766","0.0-16.0-1.34","SS1602823796763","<img src='images/complex/10.png' width ='500' height = '500' style='border:5px solid black'>","40","all_complex","images/complex/4.png","images/complex/10.png","images/complex/14.png,images/complex/3.png,images/complex/13.png,images/complex/7.png,images/complex/5.png,images/complex/9.png,images/complex/17.png","1","null","","200","315.84500002209097","","","","background","",""
"","null","html-keyboard-response","184","166632","0.0-16.0-0.35","SS1602823796763","","null","","","","","","","","","","","","<img src=images/blank.png width =""500"" height = ""500"" style=""border:5px solid black"">","","",""
"","245.8500000066124","stimulus-presentation","185","167087","0.0-16.0-1.35","SS1602823796763","<img src='images/complex/10.png' width ='500' height = '500' style='border:5px solid black'>","40","all_complex","images/complex/4.png","images/complex/10.png","images/complex/14.png,images/complex/3.png,images/complex/13.png,images/complex/7.png,images/complex/5.png,images/complex/9.png,images/complex/17.png","1","null","","200","445.8500000066124","","","","background","",""
"","null","html-keyboard-response","186","168301","0.0-16.0-0.36","SS1602823796763","","null","","","","","","","","","","","","<img src=images/blank.png width =""500"" height = ""500"" style=""border:5px solid black"">","","",""
"","144.8450000025332","stimulus-presentation","187","168654","0.0-16.0-1.36","SS1602823796763","<img src='images/complex/10.png' width ='500' height = '500' style='border:5px solid black'>","40","all_complex","images/complex/4.png","images/complex/10.png","images/complex/14.png,images/complex/3.png,images/complex/13.png,images/complex/7.png,images/complex/5.png,images/complex/9.png,images/complex/17.png","1","null","","200","344.8450000025332","","","","background","",""
"","null","html-keyboard-response","188","169672","0.0-16.0-0.37","SS1602823796763","","null","","","","","","","","","","","","<img src=images/blank.png width =""500"" height = ""500"" style=""border:5px solid black"">","","",""
"","365.15500000678","stimulus-presentation","189","170245","0.0-16.0-1.37","SS1602823796763","<img src='images/complex/5.png' width ='500' height = '500' style='border:5px solid black'>","40","all_complex","images/complex/4.png","images/complex/10.png","images/complex/14.png,images/complex/3.png,images/complex/13.png,images/complex/7.png,images/complex/5.png,images/complex/9.png,images/complex/17.png","1","null","","200","565.15500000678","","","","deviant","",""
"","null","html-keyboard-response","190","171256","0.0-16.0-0.38","SS1602823796763","","null","","","","","","","","","","","","<img src=images/blank.png width =""500"" height = ""500"" style=""border:5px solid black"">","","",""
"","174.39000000013039","stimulus-presentation","191","171638","0.0-16.0-1.38","SS1602823796763","<img src='images/complex/10.png' width ='500' height = '500' style='border:5px solid black'>","40","all_complex","images/complex/4.png","images/complex/10.png","images/complex/14.png,images/complex/3.png,images/complex/13.png,images/complex/7.png,images/complex/5.png,images/complex/9.png,images/complex/17.png","1","null","","200","374.3900000001304","","","","background","",""
"","null","html-keyboard-response","192","172930","0.0-16.0-0.39","SS1602823796763","","null","","","","","","","","","","","","<img src=images/blank.png width =""500"" height = ""500"" style=""border:5px solid black"">","","",""
"","187.0350000099279","stimulus-presentation","193","173328","0.0-16.0-1.39","SS1602823796763","<img src='images/complex/10.png' width ='500' height = '500' style='border:5px solid black'>","40","all_complex","images/complex/4.png","images/complex/10.png","images/complex/14.png,images/complex/3.png,images/complex/13.png,images/complex/7.png,images/complex/5.png,images/complex/9.png,images/complex/17.png","1","null","","200","387.0350000099279","","","","background","",""
"","null","html-keyboard-response","194","174152","0.0-16.0-0.40","SS1602823796763","","null","","","","","","","","","","","","<img src=images/blank.png width =""500"" height = ""500"" style=""border:5px solid black"">","","",""
"","220.69500002544373","stimulus-presentation","195","174580","0.0-16.0-1.40","SS1602823796763","<img src='images/complex/10.png' width ='500' height = '500' style='border:5px solid black'>","40","all_complex","images/complex/4.png","images/complex/10.png","images/complex/14.png,images/complex/3.png,images/complex/13.png,images/complex/7.png,images/complex/5.png,images/complex/9.png,images/complex/17.png","1","null","","200","420.69500002544373","","","","background","",""
"","null","html-keyboard-response","196","175639","0.0-16.0-0.41","SS1602823796763","","null","","","","","","","","","","","","<img src=images/blank.png width =""500"" height = ""500"" style=""border:5px solid black"">","","",""
"","156.98500000871718","stimulus-presentation","197","176007","0.0-16.0-1.41","SS1602823796763","<img src='images/complex/10.png' width ='500' height = '500' style='border:5px solid black'>","40","all_complex","images/complex/4.png","images/complex/10.png","images/complex/14.png,images/complex/3.png,images/complex/13.png,images/complex/7.png,images/complex/5.png,images/complex/9.png,images/complex/17.png","1","null","","200","356.9850000087172","","","","background","",""
"","null","html-keyboard-response","198","176962","0.0-16.0-0.42","SS1602823796763","","null","","","","","","","","","","","","<img src=images/blank.png width =""500"" height = ""500"" style=""border:5px solid black"">","","",""
"","162.00000001117587","stimulus-presentation","199","177334","0.0-16.0-1.42","SS1602823796763","<img src='images/complex/10.png' width ='500' height = '500' style='border:5px solid black'>","40","all_complex","images/complex/4.png","images/complex/10.png","images/complex/14.png,images/complex/3.png,images/complex/13.png,images/complex/7.png,images/complex/5.png,images/complex/9.png,images/complex/17.png","1","null","","200","362.00000001117587","","","","background","",""
"","null","html-keyboard-response","200","178285","0.0-16.0-0.43","SS1602823796763","","null","","","","","","","","","","","","<img src=images/blank.png width =""500"" height = ""500"" style=""border:5px solid black"">","","",""
"","235.10500002885237","stimulus-presentation","201","178727","0.0-16.0-1.43","SS1602823796763","<img src='images/complex/13.png' width ='500' height = '500' style='border:5px solid black'>","40","all_complex","images/complex/4.png","images/complex/10.png","images/complex/14.png,images/complex/3.png,images/complex/13.png,images/complex/7.png,images/complex/5.png,images/complex/9.png,images/complex/17.png","1","null","","200","435.1050000288524","","","","deviant","",""
"","null","html-keyboard-response","202","179791","0.0-16.0-0.44","SS1602823796763","","null","","","","","","","","","","","","<img src=images/blank.png width =""500"" height = ""500"" style=""border:5px solid black"">","","",""
"","172.06499999156222","stimulus-presentation","203","180175","0.0-16.0-1.44","SS1602823796763","<img src='images/complex/10.png' width ='500' height = '500' style='border:5px solid black'>","40","all_complex","images/complex/4.png","images/complex/10.png","images/complex/14.png,images/complex/3.png,images/complex/13.png,images/complex/7.png,images/complex/5.png,images/complex/9.png,images/complex/17.png","1","null","","200","372.0649999915622","","","","background","",""
"","null","html-keyboard-response","204","181024","0.0-16.0-0.45","SS1602823796763","","null","","","","","","","","","","","","<img src=images/blank.png width =""500"" height = ""500"" style=""border:5px solid black"">","","",""
"","217.6399999880232","stimulus-presentation","205","181452","0.0-16.0-1.45","SS1602823796763","<img src='images/complex/10.png' width ='500' height = '500' style='border:5px solid black'>","40","all_complex","images/complex/4.png","images/complex/10.png","images/complex/14.png,images/complex/3.png,images/complex/13.png,images/complex/7.png,images/complex/5.png,images/complex/9.png,images/complex/17.png","1","null","","200","417.6399999880232","","","","background","",""
"","null","html-keyboard-response","206","182450","0.0-16.0-0.46","SS1602823796763","","null","","","","","","","","","","","","<img src=images/blank.png width =""500"" height = ""500"" style=""border:5px solid black"">","","",""
"","827.3199999821372","stimulus-presentation","207","183486","0.0-16.0-1.46","SS1602823796763","<img src='images/complex/4.png' width ='500' height = '500' style='border:5px solid black'>","40","all_complex","images/complex/4.png","images/complex/10.png","images/complex/14.png,images/complex/3.png,images/complex/13.png,images/complex/7.png,images/complex/5.png,images/complex/9.png,images/complex/17.png","1","null","","200","1027.3199999821372","yes","291.42000002320856","","target","",""
"","null","html-keyboard-response","208","184637","0.0-16.0-0.47","SS1602823796763","","null","","","","","","","","","","","","<img src=images/blank.png width =""500"" height = ""500"" style=""border:5px solid black"">","","",""
"","109.40000001573935","stimulus-presentation","209","184956","0.0-16.0-1.47","SS1602823796763","<img src='images/complex/4.png' width ='500' height = '500' style='border:5px solid black'>","40","all_complex","images/complex/4.png","images/complex/10.png","images/complex/14.png,images/complex/3.png,images/complex/13.png,images/complex/7.png,images/complex/5.png,images/complex/9.png,images/complex/17.png","1","null","","200","309.40000001573935","","","","target","",""
"","null","html-keyboard-response","210","186173","0.0-16.0-0.48","SS1602823796763","","null","","","","","","","","","","","","<img src=images/blank.png width =""500"" height = ""500"" style=""border:5px solid black"">","","",""
"","183.83500003255904","stimulus-presentation","211","186565","0.0-16.0-1.48","SS1602823796763","<img src='images/complex/10.png' width ='500' height = '500' style='border:5px solid black'>","40","all_complex","images/complex/4.png","images/complex/10.png","images/complex/14.png,images/complex/3.png,images/complex/13.png,images/complex/7.png,images/complex/5.png,images/complex/9.png,images/complex/17.png","1","null","","200","383.83500003255904","","","","background","",""
"[{""page_index"":0,""viewing_time"":2022}]","2023","task-instructions","212","188595","0.0-17.0","SS1602823796763","","","","","","","","","","","","","","","","",""
"[{""page_index"":0,""viewing_time"":866.4600000483915},{""page_index"":1,""viewing_time"":887.7449999563396},{""page_index"":2,""viewing_time"":573.7000000081025}]","2328.120000020135","instructions","213","190928","0.0-18.0","SS1602823796763","","","","","","","","","","","","","","","","",""
"","null","html-keyboard-response","214","191805","0.0-19.0-0.0","SS1602823796763","","null","","","","","","","","","","","","<img src=images/blank.png width =""500"" height = ""500"" style=""border:5px solid black"">","","",""
"","497.52999999327585","stimulus-presentation","215","192511","0.0-19.0-1.0","SS1602823796763","<img src='images/simple/17.png' width ='500' height = '500' style='border:5px solid black'>","40","all_simple","images/simple/4.png","images/simple/17.png","images/simple/9.png,images/simple/11.png,images/simple/15.png,images/simple/10.png,images/simple/13.png,images/simple/14.png,images/simple/16.png","2","null","","200","697.5299999932759","","","","background","",""
"","null","html-keyboard-response","216","193684","0.0-19.0-0.1","SS1602823796763","","null","","","","","","","","","","","","<img src=images/blank.png width =""500"" height = ""500"" style=""border:5px solid black"">","","",""
"","633.3749999757856","stimulus-presentation","217","194529","0.0-19.0-1.1","SS1602823796763","<img src='images/simple/14.png' width ='500' height = '500' style='border:5px solid black'>","40","all_simple","images/simple/4.png","images/simple/17.png","images/simple/9.png,images/simple/11.png,images/simple/15.png,images/simple/10.png,images/simple/13.png,images/simple/14.png,images/simple/16.png","2","null","","200","833.3749999757856","","","","deviant","",""
"","null","html-keyboard-response","218","195550","0.0-19.0-0.2","SS1602823796763","","null","","","","","","","","","","","","<img src=images/blank.png width =""500"" height = ""500"" style=""border:5px solid black"">","","",""
"","880.8150000404567","stimulus-presentation","219","196638","0.0-19.0-1.2","SS1602823796763","<img src='images/simple/4.png' width ='500' height = '500' style='border:5px solid black'>","40","all_simple","images/simple/4.png","images/simple/17.png","images/simple/9.png,images/simple/11.png,images/simple/15.png,images/simple/10.png,images/simple/13.png,images/simple/14.png,images/simple/16.png","2","null","","200","1080.8150000404567","yes","288.8399999937974","","target","",""
"","null","html-keyboard-response","220","197635","0.0-19.0-0.3","SS1602823796763","","null","","","","","","","","","","","","<img src=images/blank.png width =""500"" height = ""500"" style=""border:5px solid black"">","","",""
"","201.2249999679625","stimulus-presentation","221","198044","0.0-19.0-1.3","SS1602823796763","<img src='images/simple/17.png' width ='500' height = '500' style='border:5px solid black'>","40","all_simple","images/simple/4.png","images/simple/17.png","images/simple/9.png,images/simple/11.png,images/simple/15.png,images/simple/10.png,images/simple/13.png,images/simple/14.png,images/simple/16.png","2","null","","200","401.2249999679625","","","","background","",""
"","null","html-keyboard-response","222","198938","0.0-19.0-0.4","SS1602823796763","","null","","","","","","","","","","","","<img src=images/blank.png width =""500"" height = ""500"" style=""border:5px solid black"">","","",""
"","160.8550000237301","stimulus-presentation","223","199310","0.0-19.0-1.4","SS1602823796763","<img src='images/simple/17.png' width ='500' height = '500' style='border:5px solid black'>","40","all_simple","images/simple/4.png","images/simple/17.png","images/simple/9.png,images/simple/11.png,images/simple/15.png,images/simple/10.png,images/simple/13.png,images/simple/14.png,images/simple/16.png","2","null","","200","360.8550000237301","","","","background","",""
"","null","html-keyboard-response","224","200515","0.0-19.0-0.5","SS1602823796763","","null","","","","","","","","","","","","<img src=images/blank.png width =""500"" height = ""500"" style=""border:5px solid black"">","","",""
"","149.54999997280538","stimulus-presentation","225","200872","0.0-19.0-1.5","SS1602823796763","<img src='images/simple/17.png' width ='500' height = '500' style='border:5px solid black'>","40","all_simple","images/simple/4.png","images/simple/17.png","images/simple/9.png,images/simple/11.png,images/simple/15.png,images/simple/10.png,images/simple/13.png,images/simple/14.png,images/simple/16.png","2","null","","200","349.5499999728054","","","","background","",""
"","null","html-keyboard-response","226","202019","0.0-19.0-0.6","SS1602823796763","","null","","","","","","","","","","","","<img src=images/blank.png width =""500"" height = ""500"" style=""border:5px solid black"">","","",""
"","139.32000001659617","stimulus-presentation","227","202366","0.0-19.0-1.6","SS1602823796763","<img src='images/simple/17.png' width ='500' height = '500' style='border:5px solid black'>","40","all_simple","images/simple/4.png","images/simple/17.png","images/simple/9.png,images/simple/11.png,images/simple/15.png,images/simple/10.png,images/simple/13.png,images/simple/14.png,images/simple/16.png","2","null","","200","339.32000001659617","","","","background","",""
"","null","html-keyboard-response","228","203489","0.0-19.0-0.7","SS1602823796763","","null","","","","","","","","","","","","<img src=images/blank.png width =""500"" height = ""500"" style=""border:5px solid black"">","","",""
"","142.68000004813075","stimulus-presentation","229","203843","0.0-19.0-1.7","SS1602823796763","<img src='images/simple/17.png' width ='500' height = '500' style='border:5px solid black'>","40","all_simple","images/simple/4.png","images/simple/17.png","images/simple/9.png,images/simple/11.png,images/simple/15.png,images/simple/10.png,images/simple/13.png,images/simple/14.png,images/simple/16.png","2","null","","200","342.68000004813075","","","","background","",""
"","null","html-keyboard-response","230","204685","0.0-19.0-0.8","SS1602823796763","","null","","","","","","","","","","","","<img src=images/blank.png width =""500"" height = ""500"" style=""border:5px solid black"">","","",""
"","135.13999996939674","stimulus-presentation","231","205032","0.0-19.0-1.8","SS1602823796763","<img src='images/simple/17.png' width ='500' height = '500' style='border:5px solid black'>","40","all_simple","images/simple/4.png","images/simple/17.png","images/simple/9.png,images/simple/11.png,images/simple/15.png,images/simple/10.png,images/simple/13.png,images/simple/14.png,images/simple/16.png","2","null","","200","335.13999996939674","","","","background","",""
"","null","html-keyboard-response","232","206002","0.0-19.0-0.9","SS1602823796763","","null","","","","","","","","","","","","<img src=images/blank.png width =""500"" height = ""500"" style=""border:5px solid black"">","","",""
"","532.7399999951012","stimulus-presentation","233","206744","0.0-19.0-1.9","SS1602823796763","<img src='images/simple/13.png' width ='500' height = '500' style='border:5px solid black'>","40","all_simple","images/simple/4.png","images/simple/17.png","images/simple/9.png,images/simple/11.png,images/simple/15.png,images/simple/10.png,images/simple/13.png,images/simple/14.png,images/simple/16.png","2","null","","200","732.7399999951012","","","","deviant","",""
"","null","html-keyboard-response","234","207826","0.0-19.0-0.10","SS1602823796763","","null","","","","","","","","","","","","<img src=images/blank.png width =""500"" height = ""500"" style=""border:5px solid black"">","","",""
"","267.5150000141002","stimulus-presentation","235","208302","0.0-19.0-1.10","SS1602823796763","<img src='images/simple/17.png' width ='500' height = '500' style='border:5px solid black'>","40","all_simple","images/simple/4.png","images/simple/17.png","images/simple/9.png,images/simple/11.png,images/simple/15.png,images/simple/10.png,images/simple/13.png,images/simple/14.png,images/simple/16.png","2","null","","200","467.5150000141002","","","","background","",""
"","null","html-keyboard-response","236","209181","0.0-19.0-0.11","SS1602823796763","","null","","","","","","","","","","","","<img src=images/blank.png width =""500"" height = ""500"" style=""border:5px solid black"">","","",""
"","287.0200000470504","stimulus-presentation","237","209679","0.0-19.0-1.11","SS1602823796763","<img src='images/simple/17.png' width ='500' height = '500' style='border:5px solid black'>","40","all_simple","images/simple/4.png","images/simple/17.png","images/simple/9.png,images/simple/11.png,images/simple/15.png,images/simple/10.png,images/simple/13.png,images/simple/14.png,images/simple/16.png","2","null","","200","487.0200000470504","","","","background","",""
"","null","html-keyboard-response","238","210591","0.0-19.0-0.12","SS1602823796763","","null","","","","","","","","","","","","<img src=images/blank.png width =""500"" height = ""500"" style=""border:5px solid black"">","","",""
"","219.01500003878027","stimulus-presentation","239","211021","0.0-19.0-1.12","SS1602823796763","<img src='images/simple/17.png' width ='500' height = '500' style='border:5px solid black'>","40","all_simple","images/simple/4.png","images/simple/17.png","images/simple/9.png,images/simple/11.png,images/simple/15.png,images/simple/10.png,images/simple/13.png,images/simple/14.png,images/simple/16.png","2","null","","200","419.0150000387803","","","","background","",""
"","null","html-keyboard-response","240","211948","0.0-19.0-0.13","SS1602823796763","","null","","","","","","","","","","","","<img src=images/blank.png width =""500"" height = ""500"" style=""border:5px solid black"">","","",""
"","623.0499999946915","stimulus-presentation","241","212775","0.0-19.0-1.13","SS1602823796763","<img src='images/simple/16.png' width ='500' height = '500' style='border:5px solid black'>","40","all_simple","images/simple/4.png","images/simple/17.png","images/simple/9.png,images/simple/11.png,images/simple/15.png,images/simple/10.png,images/simple/13.png,images/simple/14.png,images/simple/16.png","2","null","","200","823.0499999946915","","","","deviant","",""
"","null","html-keyboard-response","242","214029","0.0-19.0-0.14","SS1602823796763","","null","","","","","","","","","","","","<img src=images/blank.png width =""500"" height = ""500"" style=""border:5px solid black"">","","",""
"","541.5199999697506","stimulus-presentation","243","214783","0.0-19.0-1.14","SS1602823796763","<img src='images/simple/17.png' width ='500' height = '500' style='border:5px solid black'>","40","all_simple","images/simple/4.png","images/simple/17.png","images/simple/9.png,images/simple/11.png,images/simple/15.png,images/simple/10.png,images/simple/13.png,images/simple/14.png,images/simple/16.png","2","null","","200","741.5199999697506","","","","background","",""
"","null","html-keyboard-response","244","215832","0.0-19.0-0.15","SS1602823796763","","null","","","","","","","","","","","","<img src=images/blank.png width =""500"" height = ""500"" style=""border:5px solid black"">","","",""
"","200.07000002078712","stimulus-presentation","245","216242","0.0-19.0-1.15","SS1602823796763","<img src='images/simple/17.png' width ='500' height = '500' style='border:5px solid black'>","40","all_simple","images/simple/4.png","images/simple/17.png","images/simple/9.png,images/simple/11.png,images/simple/15.png,images/simple/10.png,images/simple/13.png,images/simple/14.png,images/simple/16.png","2","null","","200","400.0700000207871","","","","background","",""
"","null","html-keyboard-response","246","217320","0.0-19.0-0.16","SS1602823796763","","null","","","","","","","","","","","","<img src=images/blank.png width =""500"" height = ""500"" style=""border:5px solid black"">","","",""
"","1506.9099999964237","stimulus-presentation","247","219038","0.0-19.0-1.16","SS1602823796763","<img src='images/simple/4.png' width ='500' height = '500' style='border:5px solid black'>","40","all_simple","images/simple/4.png","images/simple/17.png","images/simple/9.png,images/simple/11.png,images/simple/15.png,images/simple/10.png,images/simple/13.png,images/simple/14.png,images/simple/16.png","2","null","","200","1706.9099999964237","yes","904.5500000356697","","target","",""
"","null","html-keyboard-response","248","219880","0.0-19.0-0.17","SS1602823796763","","null","","","","","","","","","","","","<img src=images/blank.png width =""500"" height = ""500"" style=""border:5px solid black"">","","",""
"","230.17500003334135","stimulus-presentation","249","220322","0.0-19.0-1.17","SS1602823796763","<img src='images/simple/10.png' width ='500' height = '500' style='border:5px solid black'>","40","all_simple","images/simple/4.png","images/simple/17.png","images/simple/9.png,images/simple/11.png,images/simple/15.png,images/simple/10.png,images/simple/13.png,images/simple/14.png,images/simple/16.png","2","null","","200","430.17500003334135","","","","deviant","",""
"","null","html-keyboard-response","250","221507","0.0-19.0-0.18","SS1602823796763","","null","","","","","","","","","","","","<img src=images/blank.png width =""500"" height = ""500"" style=""border:5px solid black"">","","",""
"","172.31499997433275","stimulus-presentation","251","221887","0.0-19.0-1.18","SS1602823796763","<img src='images/simple/17.png' width ='500' height = '500' style='border:5px solid black'>","40","all_simple","images/simple/4.png","images/simple/17.png","images/simple/9.png,images/simple/11.png,images/simple/15.png,images/simple/10.png,images/simple/13.png,images/simple/14.png,images/simple/16.png","2","null","","200","372.31499997433275","","","","background","",""
"","null","html-keyboard-response","252","222949","0.0-19.0-0.19","SS1602823796763","","null","","","","","","","","","","","","<img src=images/blank.png width =""500"" height = ""500"" style=""border:5px solid black"">","","",""
"","142.4750000005588","stimulus-presentation","253","223303","0.0-19.0-1.19","SS1602823796763","<img src='images/simple/17.png' width ='500' height = '500' style='border:5px solid black'>","40","all_simple","images/simple/4.png","images/simple/17.png","images/simple/9.png,images/simple/11.png,images/simple/15.png,images/simple/10.png,images/simple/13.png,images/simple/14.png,images/simple/16.png","2","null","","200","342.4750000005588","","","","background","",""
"","null","html-keyboard-response","254","224164","0.0-19.0-0.20","SS1602823796763","","null","","","","","","","","","","","","<img src=images/blank.png width =""500"" height = ""500"" style=""border:5px solid black"">","","",""
"","949.2849999805912","stimulus-presentation","255","225318","0.0-19.0-1.20","SS1602823796763","<img src='images/simple/4.png' width ='500' height = '500' style='border:5px solid black'>","40","all_simple","images/simple/4.png","images/simple/17.png","images/simple/9.png,images/simple/11.png,images/simple/15.png,images/simple/10.png,images/simple/13.png,images/simple/14.png,images/simple/16.png","2","null","","200","1149.2849999805912","yes","408.47999998368323","","target","",""
"","null","html-keyboard-response","256","226195","0.0-19.0-0.21","SS1602823796763","","null","","","","","","","","","","","","<img src=images/blank.png width =""500"" height = ""500"" style=""border:5px solid black"">","","",""
"","155.95499996561557","stimulus-presentation","257","226560","0.0-19.0-1.21","SS1602823796763","<img src='images/simple/17.png' width ='500' height = '500' style='border:5px solid black'>","40","all_simple","images/simple/4.png","images/simple/17.png","images/simple/9.png,images/simple/11.png,images/simple/15.png,images/simple/10.png,images/simple/13.png,images/simple/14.png,images/simple/16.png","2","null","","200","355.95499996561557","","","","background","",""
"","null","html-keyboard-response","258","227518","0.0-19.0-0.22","SS1602823796763","","null","","","","","","","","","","","","<img src=images/blank.png width =""500"" height = ""500"" style=""border:5px solid black"">","","",""
"","272.1400000154972","stimulus-presentation","259","227998","0.0-19.0-1.22","SS1602823796763","<img src='images/simple/11.png' width ='500' height = '500' style='border:5px solid black'>","40","all_simple","images/simple/4.png","images/simple/17.png","images/simple/9.png,images/simple/11.png,images/simple/15.png,images/simple/10.png,images/simple/13.png,images/simple/14.png,images/simple/16.png","2","null","","200","472.1400000154972","","","","deviant","",""
"","null","html-keyboard-response","260","229042","0.0-19.0-0.23","SS1602823796763","","null","","","","","","","","","","","","<img src=images/blank.png width =""500"" height = ""500"" style=""border:5px solid black"">","","",""
"","98.92499999841675","stimulus-presentation","261","229349","0.0-19.0-1.23","SS1602823796763","<img src='images/simple/17.png' width ='500' height = '500' style='border:5px solid black'>","40","all_simple","images/simple/4.png","images/simple/17.png","images/simple/9.png,images/simple/11.png,images/simple/15.png,images/simple/10.png,images/simple/13.png,images/simple/14.png,images/simple/16.png","2","null","","200","298.92499999841675","","","","background","",""
"","null","html-keyboard-response","262","230211","0.0-19.0-0.24","SS1602823796763","","null","","","","","","","","","","","","<img src=images/blank.png width =""500"" height = ""500"" style=""border:5px solid black"">","","",""
"","90.44500003801659","stimulus-presentation","263","230510","0.0-19.0-1.24","SS1602823796763","<img src='images/simple/17.png' width ='500' height = '500' style='border:5px solid black'>","40","all_simple","images/simple/4.png","images/simple/17.png","images/simple/9.png,images/simple/11.png,images/simple/15.png,images/simple/10.png,images/simple/13.png,images/simple/14.png,images/simple/16.png","2","null","","200","290.4450000380166","","","","background","",""
"","null","html-keyboard-response","264","231470","0.0-19.0-0.25","SS1602823796763","","null","","","","","","","","","","","","<img src=images/blank.png width =""500"" height = ""500"" style=""border:5px solid black"">","","",""
"","93.87000004062429","stimulus-presentation","265","231777","0.0-19.0-1.25","SS1602823796763","<img src='images/simple/17.png' width ='500' height = '500' style='border:5px solid black'>","40","all_simple","images/simple/4.png","images/simple/17.png","images/simple/9.png,images/simple/11.png,images/simple/15.png,images/simple/10.png,images/simple/13.png,images/simple/14.png,images/simple/16.png","2","null","","200","293.8700000406243","","","","background","",""
"","null","html-keyboard-response","266","233022","0.0-19.0-0.26","SS1602823796763","","null","","","","","","","","","","","","<img src=images/blank.png width =""500"" height = ""500"" style=""border:5px solid black"">","","",""
"","119.49499999172986","stimulus-presentation","267","233350","0.0-19.0-1.26","SS1602823796763","<img src='images/simple/17.png' width ='500' height = '500' style='border:5px solid black'>","40","all_simple","images/simple/4.png","images/simple/17.png","images/simple/9.png,images/simple/11.png,images/simple/15.png,images/simple/10.png,images/simple/13.png,images/simple/14.png,images/simple/16.png","2","null","","200","319.49499999172986","","","","background","",""
"","null","html-keyboard-response","268","234623","0.0-19.0-0.27","SS1602823796763","","null","","","","","","","","","","","","<img src=images/blank.png width =""500"" height = ""500"" style=""border:5px solid black"">","","",""
"","137.81499996548519","stimulus-presentation","269","234967","0.0-19.0-1.27","SS1602823796763","<img src='images/simple/17.png' width ='500' height = '500' style='border:5px solid black'>","40","all_simple","images/simple/4.png","images/simple/17.png","images/simple/9.png,images/simple/11.png,images/simple/15.png,images/simple/10.png,images/simple/13.png,images/simple/14.png,images/simple/16.png","2","null","","200","337.8149999654852","","","","background","",""
"","null","html-keyboard-response","270","236163","0.0-19.0-0.28","SS1602823796763","","null","","","","","","","","","","","","<img src=images/blank.png width =""500"" height = ""500"" style=""border:5px solid black"">","","",""
"","131.5900000045076","stimulus-presentation","271","236503","0.0-19.0-1.28","SS1602823796763","<img src='images/simple/17.png' width ='500' height = '500' style='border:5px solid black'>","40","all_simple","images/simple/4.png","images/simple/17.png","images/simple/9.png,images/simple/11.png,images/simple/15.png,images/simple/10.png,images/simple/13.png,images/simple/14.png,images/simple/16.png","2","null","","200","331.5900000045076","","","","background","",""
"","null","html-keyboard-response","272","237504","0.0-19.0-0.29","SS1602823796763","","null","","","","","","","","","","","","<img src=images/blank.png width =""500"" height = ""500"" style=""border:5px solid black"">","","",""
"","110.42499996256083","stimulus-presentation","273","237826","0.0-19.0-1.29","SS1602823796763","<img src='images/simple/17.png' width ='500' height = '500' style='border:5px solid black'>","40","all_simple","images/simple/4.png","images/simple/17.png","images/simple/9.png,images/simple/11.png,images/simple/15.png,images/simple/10.png,images/simple/13.png,images/simple/14.png,images/simple/16.png","2","null","","200","310.42499996256083","","","","background","",""
"","null","html-keyboard-response","274","238658","0.0-19.0-0.30","SS1602823796763","","null","","","","","","","","","","","","<img src=images/blank.png width =""500"" height = ""500"" style=""border:5px solid black"">","","",""
"","851.0849999729544","stimulus-presentation","275","239718","0.0-19.0-1.30","SS1602823796763","<img src='images/simple/4.png' width ='500' height = '500' style='border:5px solid black'>","40","all_simple","images/simple/4.png","images/simple/17.png","images/simple/9.png,images/simple/11.png,images/simple/15.png,images/simple/10.png,images/simple/13.png,images/simple/14.png,images/simple/16.png","2","null","","200","1051.0849999729544","yes","364.2450000043027","","target","",""
"","null","html-keyboard-response","276","240635","0.0-19.0-0.31","SS1602823796763","","null","","","","","","","","","","","","<img src=images/blank.png width =""500"" height = ""500"" style=""border:5px solid black"">","","",""
"","283.5049999994226","stimulus-presentation","277","241127","0.0-19.0-1.31","SS1602823796763","<img src='images/simple/9.png' width ='500' height = '500' style='border:5px solid black'>","40","all_simple","images/simple/4.png","images/simple/17.png","images/simple/9.png,images/simple/11.png,images/simple/15.png,images/simple/10.png,images/simple/13.png,images/simple/14.png,images/simple/16.png","2","null","","200","483.5049999994226","","","","deviant","",""
"","null","html-keyboard-response","278","242307","0.0-19.0-0.32","SS1602823796763","","null","","","","","","","","","","","","<img src=images/blank.png width =""500"" height = ""500"" style=""border:5px solid black"">","","",""
"","127.3650000221096","stimulus-presentation","279","242646","0.0-19.0-1.32","SS1602823796763","<img src='images/simple/4.png' width ='500' height = '500' style='border:5px solid black'>","40","all_simple","images/simple/4.png","images/simple/17.png","images/simple/9.png,images/simple/11.png,images/simple/15.png,images/simple/10.png,images/simple/13.png,images/simple/14.png,images/simple/16.png","2","null","","200","327.3650000221096","","","","target","",""
"","null","html-keyboard-response","280","243491","0.0-19.0-0.33","SS1602823796763","","null","","","","","","","","","","","","<img src=images/blank.png width =""500"" height = ""500"" style=""border:5px solid black"">","","",""
"","296.77999997511506","stimulus-presentation","281","243997","0.0-19.0-1.33","SS1602823796763","<img src='images/simple/17.png' width ='500' height = '500' style='border:5px solid black'>","40","all_simple","images/simple/4.png","images/simple/17.png","images/simple/9.png,images/simple/11.png,images/simple/15.png,images/simple/10.png,images/simple/13.png,images/simple/14.png,images/simple/16.png","2","null","","200","496.77999997511506","","","","background","",""
"","null","html-keyboard-response","282","245190","0.0-19.0-0.34","SS1602823796763","","null","","","","","","","","","","","","<img src=images/blank.png width =""500"" height = ""500"" style=""border:5px solid black"">","","",""
"","135.25500003015622","stimulus-presentation","283","245536","0.0-19.0-1.34","SS1602823796763","<img src='images/simple/17.png' width ='500' height = '500' style='border:5px solid black'>","40","all_simple","images/simple/4.png","images/simple/17.png","images/simple/9.png,images/simple/11.png,images/simple/15.png,images/simple/10.png,images/simple/13.png,images/simple/14.png,images/simple/16.png","2","null","","200","335.2550000301562","","","","background","",""
"","null","html-keyboard-response","284","246669","0.0-19.0-0.35","SS1602823796763","","null","","","","","","","","","","","","<img src=images/blank.png width =""500"" height = ""500"" style=""border:5px solid black"">","","",""
