"view_history","rt","trial_type","trial_index","time_elapsed","internal_node_id","subject","trial_stimulus","key_press","task_type","task_target_stimulus","task_background_stimulus","task_deviant_stimuli","task_order_number","block_order_number","trial_order_number","minimum_viewing_duration","trial_looking_time","trial_pressed_space_bar","trial_space_bar_rt","stimulus","trial_stimulus_type","responses","question_order"
"[{""page_index"":0,""viewing_time"":3188.6149999918416}]","3189.8499999952037","instructions","0","3225","0.0-0.0","SS1604513289695","","","","","","","","","","","","","","","","",""
"[{""page_index"":0,""viewing_time"":11451.09999999113},{""page_index"":1,""viewing_time"":21359.800000005635},{""page_index"":2,""viewing_time"":7927.924999996321},{""page_index"":3,""viewing_time"":10649.780000007013},{""page_index"":4,""viewing_time"":1741.9849999860162},{""page_index"":5,""viewing_time"":1263.8500000030035},{""page_index"":6,""viewing_time"":1472.3450000019511},{""page_index"":7,""viewing_time"":2311.8800000083866},{""page_index"":6,""viewing_time"":688.1099999882281},{""page_index"":5,""viewing_time"":8432.140000004438},{""page_index"":4,""viewing_time"":1207.764999999199},{""page_index"":5,""viewing_time"":1079.8400000057882},{""page_index"":6,""viewing_time"":3941.1249999975553},{""page_index"":7,""viewing_time"":4674.899999998161},{""page_index"":8,""viewing_time"":1120.1200000068638}]","79323.16999998875","instructions","1","82551","0.0-1.0","SS1604513289695","","","","","","","","","","","","","","","","",""
"[{""page_index"":0,""viewing_time"":2291.8050000007497},{""page_index"":1,""viewing_time"":15367.865000007441},{""page_index"":2,""viewing_time"":5607.990000004065}]","23268.12500000233","instructions","2","105823","0.0-2.0","SS1604513289695","","","","","","","","","","","","","","","","",""
"","1730.135000005248","practice-block","3","107774","0.0-3.0","SS1604513289695","<img src='images/practice/practice_background.jpeg' width ='500' height = '500' style='border:5px solid black'>","40","null","images/practice/practice_target.jpg","null","null","null","null","","200","1930.135000005248","","","","","",""
"","null","html-keyboard-response","4","109074","0.0-4.0","SS1604513289695","","null","","","","","","","","","","","","<img src=images/blank.png width =""500"" height = ""500"" style=""border:5px solid black"">","","",""
"","2477.6549999951385","practice-block","5","111757","0.0-5.0","SS1604513289695","<img src='images/practice/practice_background.jpeg' width ='500' height = '500' style='border:5px solid black'>","40","null","images/practice/practice_target.jpg","null","null","null","null","","200","2677.6549999951385","","","","","",""
"","null","html-keyboard-response","6","112566","0.0-6.0","SS1604513289695","","null","","","","","","","","","","","","<img src=images/blank.png width =""500"" height = ""500"" style=""border:5px solid black"">","","",""
"","4811.730000001262","practice-block","7","117582","0.0-7.0","SS1604513289695","<img src='images/practice/practice_deviant.jpeg' width ='500' height = '500' style='border:5px solid black'>","40","null","images/practice/practice_target.jpg","null","null","null","null","","200","5011.730000001262","yes","531.0750000062399","","","",""
"","null","html-keyboard-response","8","118541","0.0-8.0","SS1604513289695","","null","","","","","","","","","","","","<img src=images/blank.png width =""500"" height = ""500"" style=""border:5px solid black"">","","",""
"","2172.2849999932805","practice-block","9","124087","0.0-9.0-0.0","SS1604513289695","<img src='images/practice/practice_target.jpg' width ='500' height = '500' style='border:5px solid black'>","40","null","images/practice/practice_target.jpg","null","null","null","null","","200","2372.2849999932805","","","","","",""
"","2271.6050000017276","practice-block","10","128695","0.0-9.1-0.1","SS1604513289695","<img src='images/practice/practice_target.jpg' width ='500' height = '500' style='border:5px solid black'>","40","null","images/practice/practice_target.jpg","null","null","null","null","","200","2471.6050000017276","","","","","",""
"","19649.35500000138","practice-block","11","148549","0.0-9.2-0.2","SS1604513289695","<img src='images/practice/practice_target.jpg' width ='500' height = '500' style='border:5px solid black'>","40","null","images/practice/practice_target.jpg","null","null","null","null","","200","19849.35500000138","yes","314.5199999999022","","","",""
"","null","html-keyboard-response","12","149537","0.0-10.0","SS1604513289695","","null","","","","","","","","","","","","<img src=images/blank.png width =""500"" height = ""500"" style=""border:5px solid black"">","","",""
"","1143.660000001546","practice-block","13","150893","0.0-11.0","SS1604513289695","<img src='images/practice/practice_background.jpeg' width ='500' height = '500' style='border:5px solid black'>","40","null","images/practice/practice_target.jpg","null","null","null","null","","200","1343.660000001546","","","","","",""
"[{""page_index"":0,""viewing_time"":2896}]","2897","task-instructions","14","153792","0.0-12.0","SS1604513289695","","","","","","","","","","","","","","","","",""
"[{""page_index"":0,""viewing_time"":4026.595000002999},{""page_index"":1,""viewing_time"":18288.000000000466},{""page_index"":2,""viewing_time"":1943.9750000019558}]","24259.02500000666","instructions","15","178055","0.0-13.0","SS1604513289695","","","","","","","","","","","","","","","","",""
"","null","html-keyboard-response","16","179228","0.0-14.0-0.0","SS1604513289695","","null","","","","","","","","","","","","<img src=images/blank.png width =""500"" height = ""500"" style=""border:5px solid black"">","","",""
"","1098.2800000056159","stimulus-presentation","17","180534","0.0-14.0-1.0","SS1604513289695","<img src='images/simple/1.png' width ='500' height = '500' style='border:5px solid black'>","40","mixed_complex_deviant","images/simple/12.png","images/simple/1.png","images/complex/16.png,images/complex/14.png,images/complex/8.png,images/complex/6.png,images/complex/4.png,images/complex/12.png,images/complex/15.png","0","null","","200","1298.2800000056159","","","","background","",""
"","null","html-keyboard-response","18","181354","0.0-14.0-0.1","SS1604513289695","","null","","","","","","","","","","","","<img src=images/blank.png width =""500"" height = ""500"" style=""border:5px solid black"">","","",""
"","2020.780000006198","stimulus-presentation","19","183581","0.0-14.0-1.1","SS1604513289695","<img src='images/complex/8.png' width ='500' height = '500' style='border:5px solid black'>","40","mixed_complex_deviant","images/simple/12.png","images/simple/1.png","images/complex/16.png,images/complex/14.png,images/complex/8.png,images/complex/6.png,images/complex/4.png,images/complex/12.png,images/complex/15.png","0","null","","200","2220.780000006198","","","","deviant","",""
"","null","html-keyboard-response","20","184666","0.0-14.0-0.2","SS1604513289695","","null","","","","","","","","","","","","<img src=images/blank.png width =""500"" height = ""500"" style=""border:5px solid black"">","","",""
"","2157.149999999092","stimulus-presentation","21","187030","0.0-14.0-1.2","SS1604513289695","<img src='images/simple/1.png' width ='500' height = '500' style='border:5px solid black'>","40","mixed_complex_deviant","images/simple/12.png","images/simple/1.png","images/complex/16.png,images/complex/14.png,images/complex/8.png,images/complex/6.png,images/complex/4.png,images/complex/12.png,images/complex/15.png","0","null","","200","2357.149999999092","","","","background","",""
"","null","html-keyboard-response","22","188170","0.0-14.0-0.3","SS1604513289695","","null","","","","","","","","","","","","<img src=images/blank.png width =""500"" height = ""500"" style=""border:5px solid black"">","","",""
"","1781.3250000035623","stimulus-presentation","23","190156","0.0-14.0-1.3","SS1604513289695","<img src='images/simple/1.png' width ='500' height = '500' style='border:5px solid black'>","40","mixed_complex_deviant","images/simple/12.png","images/simple/1.png","images/complex/16.png,images/complex/14.png,images/complex/8.png,images/complex/6.png,images/complex/4.png,images/complex/12.png,images/complex/15.png","0","null","","200","1981.3250000035623","","","","background","",""
"","null","html-keyboard-response","24","191180","0.0-14.0-0.4","SS1604513289695","","null","","","","","","","","","","","","<img src=images/blank.png width =""500"" height = ""500"" style=""border:5px solid black"">","","",""
"","784.0949999954319","stimulus-presentation","25","192189","0.0-14.0-1.4","SS1604513289695","<img src='images/simple/1.png' width ='500' height = '500' style='border:5px solid black'>","40","mixed_complex_deviant","images/simple/12.png","images/simple/1.png","images/complex/16.png,images/complex/14.png,images/complex/8.png,images/complex/6.png,images/complex/4.png,images/complex/12.png,images/complex/15.png","0","null","","200","984.0949999954319","","","","background","",""
"","null","html-keyboard-response","26","193283","0.0-14.0-0.5","SS1604513289695","","null","","","","","","","","","","","","<img src=images/blank.png width =""500"" height = ""500"" style=""border:5px solid black"">","","",""
"","4882.570000001579","stimulus-presentation","27","198370","0.0-14.0-1.5","SS1604513289695","<img src='images/simple/12.png' width ='500' height = '500' style='border:5px solid black'>","40","mixed_complex_deviant","images/simple/12.png","images/simple/1.png","images/complex/16.png,images/complex/14.png,images/complex/8.png,images/complex/6.png,images/complex/4.png,images/complex/12.png,images/complex/15.png","0","null","","200","5082.570000001579","yes","884.9449999979697","","target","",""
"","null","html-keyboard-response","28","199440","0.0-14.0-0.6","SS1604513289695","","null","","","","","","","","","","","","<img src=images/blank.png width =""500"" height = ""500"" style=""border:5px solid black"">","","",""
"","1172.8049999946961","stimulus-presentation","29","200821","0.0-14.0-1.6","SS1604513289695","<img src='images/simple/1.png' width ='500' height = '500' style='border:5px solid black'>","40","mixed_complex_deviant","images/simple/12.png","images/simple/1.png","images/complex/16.png,images/complex/14.png,images/complex/8.png,images/complex/6.png,images/complex/4.png,images/complex/12.png,images/complex/15.png","0","null","","200","1372.8049999946961","","","","background","",""
"","null","html-keyboard-response","30","202060","0.0-14.0-0.7","SS1604513289695","","null","","","","","","","","","","","","<img src=images/blank.png width =""500"" height = ""500"" style=""border:5px solid black"">","","",""
"","978.7900000083027","stimulus-presentation","31","203244","0.0-14.0-1.7","SS1604513289695","<img src='images/simple/1.png' width ='500' height = '500' style='border:5px solid black'>","40","mixed_complex_deviant","images/simple/12.png","images/simple/1.png","images/complex/16.png,images/complex/14.png,images/complex/8.png,images/complex/6.png,images/complex/4.png,images/complex/12.png,images/complex/15.png","0","null","","200","1178.7900000083027","","","","background","",""
"","null","html-keyboard-response","32","204105","0.0-14.0-0.8","SS1604513289695","","null","","","","","","","","","","","","<img src=images/blank.png width =""500"" height = ""500"" style=""border:5px solid black"">","","",""
"","311.9399999995949","stimulus-presentation","33","204622","0.0-14.0-1.8","SS1604513289695","<img src='images/simple/1.png' width ='500' height = '500' style='border:5px solid black'>","40","mixed_complex_deviant","images/simple/12.png","images/simple/1.png","images/complex/16.png,images/complex/14.png,images/complex/8.png,images/complex/6.png,images/complex/4.png,images/complex/12.png,images/complex/15.png","0","null","","200","511.9399999995949","","","","background","",""
"","null","html-keyboard-response","34","205548","0.0-14.0-0.9","SS1604513289695","","null","","","","","","","","","","","","<img src=images/blank.png width =""500"" height = ""500"" style=""border:5px solid black"">","","",""
"","2058.419999986654","stimulus-presentation","35","207812","0.0-14.0-1.9","SS1604513289695","<img src='images/complex/6.png' width ='500' height = '500' style='border:5px solid black'>","40","mixed_complex_deviant","images/simple/12.png","images/simple/1.png","images/complex/16.png,images/complex/14.png,images/complex/8.png,images/complex/6.png,images/complex/4.png,images/complex/12.png,images/complex/15.png","0","null","","200","2258.419999986654","","","","deviant","",""
"","null","html-keyboard-response","36","208728","0.0-14.0-0.10","SS1604513289695","","null","","","","","","","","","","","","<img src=images/blank.png width =""500"" height = ""500"" style=""border:5px solid black"">","","",""
"","1734.9350000004051","stimulus-presentation","37","210670","0.0-14.0-1.10","SS1604513289695","<img src='images/simple/1.png' width ='500' height = '500' style='border:5px solid black'>","40","mixed_complex_deviant","images/simple/12.png","images/simple/1.png","images/complex/16.png,images/complex/14.png,images/complex/8.png,images/complex/6.png,images/complex/4.png,images/complex/12.png,images/complex/15.png","0","null","","200","1934.9350000004051","","","","background","",""
"","null","html-keyboard-response","38","211867","0.0-14.0-0.11","SS1604513289695","","null","","","","","","","","","","","","<img src=images/blank.png width =""500"" height = ""500"" style=""border:5px solid black"">","","",""
"","371.1449999973411","stimulus-presentation","39","212444","0.0-14.0-1.11","SS1604513289695","<img src='images/simple/1.png' width ='500' height = '500' style='border:5px solid black'>","40","mixed_complex_deviant","images/simple/12.png","images/simple/1.png","images/complex/16.png,images/complex/14.png,images/complex/8.png,images/complex/6.png,images/complex/4.png,images/complex/12.png,images/complex/15.png","0","null","","200","571.1449999973411","","","","background","",""
"","null","html-keyboard-response","40","213535","0.0-14.0-0.12","SS1604513289695","","null","","","","","","","","","","","","<img src=images/blank.png width =""500"" height = ""500"" style=""border:5px solid black"">","","",""
"","1169.0099999977974","stimulus-presentation","41","214911","0.0-14.0-1.12","SS1604513289695","<img src='images/simple/1.png' width ='500' height = '500' style='border:5px solid black'>","40","mixed_complex_deviant","images/simple/12.png","images/simple/1.png","images/complex/16.png,images/complex/14.png,images/complex/8.png,images/complex/6.png,images/complex/4.png,images/complex/12.png,images/complex/15.png","0","null","","200","1369.0099999977974","","","","background","",""
"","null","html-keyboard-response","42","216093","0.0-14.0-0.13","SS1604513289695","","null","","","","","","","","","","","","<img src=images/blank.png width =""500"" height = ""500"" style=""border:5px solid black"">","","",""
"","450.2950000023702","stimulus-presentation","43","216748","0.0-14.0-1.13","SS1604513289695","<img src='images/complex/15.png' width ='500' height = '500' style='border:5px solid black'>","40","mixed_complex_deviant","images/simple/12.png","images/simple/1.png","images/complex/16.png,images/complex/14.png,images/complex/8.png,images/complex/6.png,images/complex/4.png,images/complex/12.png,images/complex/15.png","0","null","","200","650.2950000023702","","","","deviant","",""
"","null","html-keyboard-response","44","217922","0.0-14.0-0.14","SS1604513289695","","null","","","","","","","","","","","","<img src=images/blank.png width =""500"" height = ""500"" style=""border:5px solid black"">","","",""
"","396.22499998949934","stimulus-presentation","45","218524","0.0-14.0-1.14","SS1604513289695","<img src='images/simple/1.png' width ='500' height = '500' style='border:5px solid black'>","40","mixed_complex_deviant","images/simple/12.png","images/simple/1.png","images/complex/16.png,images/complex/14.png,images/complex/8.png,images/complex/6.png,images/complex/4.png,images/complex/12.png,images/complex/15.png","0","null","","200","596.2249999894993","","","","background","",""
"","null","html-keyboard-response","46","219666","0.0-14.0-0.15","SS1604513289695","","null","","","","","","","","","","","","<img src=images/blank.png width =""500"" height = ""500"" style=""border:5px solid black"">","","",""
"","1772.8949999873294","stimulus-presentation","47","221646","0.0-14.0-1.15","SS1604513289695","<img src='images/simple/1.png' width ='500' height = '500' style='border:5px solid black'>","40","mixed_complex_deviant","images/simple/12.png","images/simple/1.png","images/complex/16.png,images/complex/14.png,images/complex/8.png,images/complex/6.png,images/complex/4.png,images/complex/12.png,images/complex/15.png","0","null","","200","1972.8949999873294","","","","background","",""
"","null","html-keyboard-response","48","222587","0.0-14.0-0.16","SS1604513289695","","null","","","","","","","","","","","","<img src=images/blank.png width =""500"" height = ""500"" style=""border:5px solid black"">","","",""
"","1483.0500000098255","stimulus-presentation","49","224276","0.0-14.0-1.16","SS1604513289695","<img src='images/simple/1.png' width ='500' height = '500' style='border:5px solid black'>","40","mixed_complex_deviant","images/simple/12.png","images/simple/1.png","images/complex/16.png,images/complex/14.png,images/complex/8.png,images/complex/6.png,images/complex/4.png,images/complex/12.png,images/complex/15.png","0","null","","200","1683.0500000098255","","","","background","",""
"","null","html-keyboard-response","50","225083","0.0-14.0-0.17","SS1604513289695","","null","","","","","","","","","","","","<img src=images/blank.png width =""500"" height = ""500"" style=""border:5px solid black"">","","",""
"","284.414999987348","stimulus-presentation","51","225572","0.0-14.0-1.17","SS1604513289695","<img src='images/complex/4.png' width ='500' height = '500' style='border:5px solid black'>","40","mixed_complex_deviant","images/simple/12.png","images/simple/1.png","images/complex/16.png,images/complex/14.png,images/complex/8.png,images/complex/6.png,images/complex/4.png,images/complex/12.png,images/complex/15.png","0","null","","200","484.414999987348","","","","deviant","",""
"","null","html-keyboard-response","52","226486","0.0-14.0-0.18","SS1604513289695","","null","","","","","","","","","","","","<img src=images/blank.png width =""500"" height = ""500"" style=""border:5px solid black"">","","",""
"","8295.385000004899","stimulus-presentation","53","234988","0.0-14.0-1.18","SS1604513289695","<img src='images/simple/12.png' width ='500' height = '500' style='border:5px solid black'>","40","mixed_complex_deviant","images/simple/12.png","images/simple/1.png","images/complex/16.png,images/complex/14.png,images/complex/8.png,images/complex/6.png,images/complex/4.png,images/complex/12.png,images/complex/15.png","0","null","","200","8495.385000004899","yes","791.1800000001676","","target","",""
"","null","html-keyboard-response","54","235825","0.0-14.0-0.19","SS1604513289695","","null","","","","","","","","","","","","<img src=images/blank.png width =""500"" height = ""500"" style=""border:5px solid black"">","","",""
"","414.06999999890104","stimulus-presentation","55","236445","0.0-14.0-1.19","SS1604513289695","<img src='images/simple/1.png' width ='500' height = '500' style='border:5px solid black'>","40","mixed_complex_deviant","images/simple/12.png","images/simple/1.png","images/complex/16.png,images/complex/14.png,images/complex/8.png,images/complex/6.png,images/complex/4.png,images/complex/12.png,images/complex/15.png","0","null","","200","614.069999998901","","","","background","",""
"","null","html-keyboard-response","56","237537","0.0-14.0-0.20","SS1604513289695","","null","","","","","","","","","","","","<img src=images/blank.png width =""500"" height = ""500"" style=""border:5px solid black"">","","",""
"","1940.085000009276","stimulus-presentation","57","239684","0.0-14.0-1.20","SS1604513289695","<img src='images/simple/12.png' width ='500' height = '500' style='border:5px solid black'>","40","mixed_complex_deviant","images/simple/12.png","images/simple/1.png","images/complex/16.png,images/complex/14.png,images/complex/8.png,images/complex/6.png,images/complex/4.png,images/complex/12.png,images/complex/15.png","0","null","","200","2140.085000009276","yes","757.3249999986729","","target","",""
"","null","html-keyboard-response","58","240837","0.0-14.0-0.21","SS1604513289695","","null","","","","","","","","","","","","<img src=images/blank.png width =""500"" height = ""500"" style=""border:5px solid black"">","","",""
"","298.75000000174623","stimulus-presentation","59","241341","0.0-14.0-1.21","SS1604513289695","<img src='images/simple/1.png' width ='500' height = '500' style='border:5px solid black'>","40","mixed_complex_deviant","images/simple/12.png","images/simple/1.png","images/complex/16.png,images/complex/14.png,images/complex/8.png,images/complex/6.png,images/complex/4.png,images/complex/12.png,images/complex/15.png","0","null","","200","498.75000000174623","","","","background","",""
"","null","html-keyboard-response","60","242380","0.0-14.0-0.22","SS1604513289695","","null","","","","","","","","","","","","<img src=images/blank.png width =""500"" height = ""500"" style=""border:5px solid black"">","","",""
"","562.7349999995204","stimulus-presentation","61","243156","0.0-14.0-1.22","SS1604513289695","<img src='images/simple/1.png' width ='500' height = '500' style='border:5px solid black'>","40","mixed_complex_deviant","images/simple/12.png","images/simple/1.png","images/complex/16.png,images/complex/14.png,images/complex/8.png,images/complex/6.png,images/complex/4.png,images/complex/12.png,images/complex/15.png","0","null","","200","762.7349999995204","","","","background","",""
"","null","html-keyboard-response","62","244326","0.0-14.0-0.23","SS1604513289695","","null","","","","","","","","","","","","<img src=images/blank.png width =""500"" height = ""500"" style=""border:5px solid black"">","","",""
"","463.88999999908265","stimulus-presentation","63","244998","0.0-14.0-1.23","SS1604513289695","<img src='images/simple/1.png' width ='500' height = '500' style='border:5px solid black'>","40","mixed_complex_deviant","images/simple/12.png","images/simple/1.png","images/complex/16.png,images/complex/14.png,images/complex/8.png,images/complex/6.png,images/complex/4.png,images/complex/12.png,images/complex/15.png","0","null","","200","663.8899999990826","","","","background","",""
"","null","html-keyboard-response","64","245989","0.0-14.0-0.24","SS1604513289695","","null","","","","","","","","","","","","<img src=images/blank.png width =""500"" height = ""500"" style=""border:5px solid black"">","","",""
"","1785.3099999920232","stimulus-presentation","65","247981","0.0-14.0-1.24","SS1604513289695","<img src='images/simple/1.png' width ='500' height = '500' style='border:5px solid black'>","40","mixed_complex_deviant","images/simple/12.png","images/simple/1.png","images/complex/16.png,images/complex/14.png,images/complex/8.png,images/complex/6.png,images/complex/4.png,images/complex/12.png,images/complex/15.png","0","null","","200","1985.3099999920232","","","","background","",""
"","null","html-keyboard-response","66","249115","0.0-14.0-0.25","SS1604513289695","","null","","","","","","","","","","","","<img src=images/blank.png width =""500"" height = ""500"" style=""border:5px solid black"">","","",""
"","244.30500000016764","stimulus-presentation","67","249565","0.0-14.0-1.25","SS1604513289695","<img src='images/simple/1.png' width ='500' height = '500' style='border:5px solid black'>","40","mixed_complex_deviant","images/simple/12.png","images/simple/1.png","images/complex/16.png,images/complex/14.png,images/complex/8.png,images/complex/6.png,images/complex/4.png,images/complex/12.png,images/complex/15.png","0","null","","200","444.30500000016764","","","","background","",""
"","null","html-keyboard-response","68","250423","0.0-14.0-0.26","SS1604513289695","","null","","","","","","","","","","","","<img src=images/blank.png width =""500"" height = ""500"" style=""border:5px solid black"">","","",""
"","499.1299999965122","stimulus-presentation","69","251133","0.0-14.0-1.26","SS1604513289695","<img src='images/simple/1.png' width ='500' height = '500' style='border:5px solid black'>","40","mixed_complex_deviant","images/simple/12.png","images/simple/1.png","images/complex/16.png,images/complex/14.png,images/complex/8.png,images/complex/6.png,images/complex/4.png,images/complex/12.png,images/complex/15.png","0","null","","200","699.1299999965122","","","","background","",""
"","null","html-keyboard-response","70","252351","0.0-14.0-0.27","SS1604513289695","","null","","","","","","","","","","","","<img src=images/blank.png width =""500"" height = ""500"" style=""border:5px solid black"">","","",""
"","278.2450000086101","stimulus-presentation","71","252837","0.0-14.0-1.27","SS1604513289695","<img src='images/simple/1.png' width ='500' height = '500' style='border:5px solid black'>","40","mixed_complex_deviant","images/simple/12.png","images/simple/1.png","images/complex/16.png,images/complex/14.png,images/complex/8.png,images/complex/6.png,images/complex/4.png,images/complex/12.png,images/complex/15.png","0","null","","200","478.2450000086101","","","","background","",""
"","null","html-keyboard-response","72","253662","0.0-14.0-0.28","SS1604513289695","","null","","","","","","","","","","","","<img src=images/blank.png width =""500"" height = ""500"" style=""border:5px solid black"">","","",""
"","770.1750000123866","stimulus-presentation","73","254637","0.0-14.0-1.28","SS1604513289695","<img src='images/simple/1.png' width ='500' height = '500' style='border:5px solid black'>","40","mixed_complex_deviant","images/simple/12.png","images/simple/1.png","images/complex/16.png,images/complex/14.png,images/complex/8.png,images/complex/6.png,images/complex/4.png,images/complex/12.png,images/complex/15.png","0","null","","200","970.1750000123866","","","","background","",""
"","null","html-keyboard-response","74","255893","0.0-14.0-0.29","SS1604513289695","","null","","","","","","","","","","","","<img src=images/blank.png width =""500"" height = ""500"" style=""border:5px solid black"">","","",""
"","675.1050000020768","stimulus-presentation","75","256774","0.0-14.0-1.29","SS1604513289695","<img src='images/complex/14.png' width ='500' height = '500' style='border:5px solid black'>","40","mixed_complex_deviant","images/simple/12.png","images/simple/1.png","images/complex/16.png,images/complex/14.png,images/complex/8.png,images/complex/6.png,images/complex/4.png,images/complex/12.png,images/complex/15.png","0","null","","200","875.1050000020768","","","","deviant","",""
"","null","html-keyboard-response","76","257947","0.0-14.0-0.30","SS1604513289695","","null","","","","","","","","","","","","<img src=images/blank.png width =""500"" height = ""500"" style=""border:5px solid black"">","","",""
"","1332.2150000021793","stimulus-presentation","77","259485","0.0-14.0-1.30","SS1604513289695","<img src='images/simple/12.png' width ='500' height = '500' style='border:5px solid black'>","40","mixed_complex_deviant","images/simple/12.png","images/simple/1.png","images/complex/16.png,images/complex/14.png,images/complex/8.png,images/complex/6.png,images/complex/4.png,images/complex/12.png,images/complex/15.png","0","null","","200","1532.2150000021793","yes","652.1250000077998","","target","",""
"","null","html-keyboard-response","78","260573","0.0-14.0-0.31","SS1604513289695","","null","","","","","","","","","","","","<img src=images/blank.png width =""500"" height = ""500"" style=""border:5px solid black"">","","",""
"","417.8749999991851","stimulus-presentation","79","261198","0.0-14.0-1.31","SS1604513289695","<img src='images/simple/1.png' width ='500' height = '500' style='border:5px solid black'>","40","mixed_complex_deviant","images/simple/12.png","images/simple/1.png","images/complex/16.png,images/complex/14.png,images/complex/8.png,images/complex/6.png,images/complex/4.png,images/complex/12.png,images/complex/15.png","0","null","","200","617.8749999991851","","","","background","",""
"","null","html-keyboard-response","80","262149","0.0-14.0-0.32","SS1604513289695","","null","","","","","","","","","","","","<img src=images/blank.png width =""500"" height = ""500"" style=""border:5px solid black"">","","",""
"","609.4149999989895","stimulus-presentation","81","262965","0.0-14.0-1.32","SS1604513289695","<img src='images/complex/12.png' width ='500' height = '500' style='border:5px solid black'>","40","mixed_complex_deviant","images/simple/12.png","images/simple/1.png","images/complex/16.png,images/complex/14.png,images/complex/8.png,images/complex/6.png,images/complex/4.png,images/complex/12.png,images/complex/15.png","0","null","","200","809.4149999989895","","","","deviant","",""
"","null","html-keyboard-response","82","263997","0.0-14.0-0.33","SS1604513289695","","null","","","","","","","","","","","","<img src=images/blank.png width =""500"" height = ""500"" style=""border:5px solid black"">","","",""
"","1408.159999991767","stimulus-presentation","83","265613","0.0-14.0-1.33","SS1604513289695","<img src='images/simple/12.png' width ='500' height = '500' style='border:5px solid black'>","40","mixed_complex_deviant","images/simple/12.png","images/simple/1.png","images/complex/16.png,images/complex/14.png,images/complex/8.png,images/complex/6.png,images/complex/4.png,images/complex/12.png,images/complex/15.png","0","null","","200","1608.159999991767","yes","672.1099999995204","","target","",""
"","null","html-keyboard-response","84","266914","0.0-14.0-0.34","SS1604513289695","","null","","","","","","","","","","","","<img src=images/blank.png width =""500"" height = ""500"" style=""border:5px solid black"">","","",""
"","1294.160000004922","stimulus-presentation","85","268415","0.0-14.0-1.34","SS1604513289695","<img src='images/simple/12.png' width ='500' height = '500' style='border:5px solid black'>","40","mixed_complex_deviant","images/simple/12.png","images/simple/1.png","images/complex/16.png,images/complex/14.png,images/complex/8.png,images/complex/6.png,images/complex/4.png,images/complex/12.png,images/complex/15.png","0","null","","200","1494.160000004922","yes","861.7649999941932","","target","",""
"","null","html-keyboard-response","86","269253","0.0-14.0-0.35","SS1604513289695","","null","","","","","","","","","","","","<img src=images/blank.png width =""500"" height = ""500"" style=""border:5px solid black"">","","",""
"","792.4150000035297","stimulus-presentation","87","270252","0.0-14.0-1.35","SS1604513289695","<img src='images/simple/1.png' width ='500' height = '500' style='border:5px solid black'>","40","mixed_complex_deviant","images/simple/12.png","images/simple/1.png","images/complex/16.png,images/complex/14.png,images/complex/8.png,images/complex/6.png,images/complex/4.png,images/complex/12.png,images/complex/15.png","0","null","","200","992.4150000035297","","","","background","",""
"","null","html-keyboard-response","88","271374","0.0-14.0-0.36","SS1604513289695","","null","","","","","","","","","","","","<img src=images/blank.png width =""500"" height = ""500"" style=""border:5px solid black"">","","",""
"","1390.1949999999488","stimulus-presentation","89","272972","0.0-14.0-1.36","SS1604513289695","<img src='images/simple/1.png' width ='500' height = '500' style='border:5px solid black'>","40","mixed_complex_deviant","images/simple/12.png","images/simple/1.png","images/complex/16.png,images/complex/14.png,images/complex/8.png,images/complex/6.png,images/complex/4.png,images/complex/12.png,images/complex/15.png","0","null","","200","1590.1949999999488","","","","background","",""
"","null","html-keyboard-response","90","274192","0.0-14.0-0.37","SS1604513289695","","null","","","","","","","","","","","","<img src=images/blank.png width =""500"" height = ""500"" style=""border:5px solid black"">","","",""
"","517.2800000000279","stimulus-presentation","91","274916","0.0-14.0-1.37","SS1604513289695","<img src='images/simple/1.png' width ='500' height = '500' style='border:5px solid black'>","40","mixed_complex_deviant","images/simple/12.png","images/simple/1.png","images/complex/16.png,images/complex/14.png,images/complex/8.png,images/complex/6.png,images/complex/4.png,images/complex/12.png,images/complex/15.png","0","null","","200","717.2800000000279","","","","background","",""
"","null","html-keyboard-response","92","276132","0.0-14.0-0.38","SS1604513289695","","null","","","","","","","","","","","","<img src=images/blank.png width =""500"" height = ""500"" style=""border:5px solid black"">","","",""
"","401.930000007269","stimulus-presentation","93","276740","0.0-14.0-1.38","SS1604513289695","<img src='images/simple/1.png' width ='500' height = '500' style='border:5px solid black'>","40","mixed_complex_deviant","images/simple/12.png","images/simple/1.png","images/complex/16.png,images/complex/14.png,images/complex/8.png,images/complex/6.png,images/complex/4.png,images/complex/12.png,images/complex/15.png","0","null","","200","601.930000007269","","","","background","",""
"","null","html-keyboard-response","94","278040","0.0-14.0-0.39","SS1604513289695","","null","","","","","","","","","","","","<img src=images/blank.png width =""500"" height = ""500"" style=""border:5px solid black"">","","",""
"","509.4049999897834","stimulus-presentation","95","278757","0.0-14.0-1.39","SS1604513289695","<img src='images/simple/1.png' width ='500' height = '500' style='border:5px solid black'>","40","mixed_complex_deviant","images/simple/12.png","images/simple/1.png","images/complex/16.png,images/complex/14.png,images/complex/8.png,images/complex/6.png,images/complex/4.png,images/complex/12.png,images/complex/15.png","0","null","","200","709.4049999897834","","","","background","",""
"","null","html-keyboard-response","96","279923","0.0-14.0-0.40","SS1604513289695","","null","","","","","","","","","","","","<img src=images/blank.png width =""500"" height = ""500"" style=""border:5px solid black"">","","",""
"","537.4200000078417","stimulus-presentation","97","280668","0.0-14.0-1.40","SS1604513289695","<img src='images/simple/1.png' width ='500' height = '500' style='border:5px solid black'>","40","mixed_complex_deviant","images/simple/12.png","images/simple/1.png","images/complex/16.png,images/complex/14.png,images/complex/8.png,images/complex/6.png,images/complex/4.png,images/complex/12.png,images/complex/15.png","0","null","","200","737.4200000078417","","","","background","",""
"","null","html-keyboard-response","98","281616","0.0-14.0-0.41","SS1604513289695","","null","","","","","","","","","","","","<img src=images/blank.png width =""500"" height = ""500"" style=""border:5px solid black"">","","",""
"","1131.164999998873","stimulus-presentation","99","282956","0.0-14.0-1.41","SS1604513289695","<img src='images/complex/16.png' width ='500' height = '500' style='border:5px solid black'>","40","mixed_complex_deviant","images/simple/12.png","images/simple/1.png","images/complex/16.png,images/complex/14.png,images/complex/8.png,images/complex/6.png,images/complex/4.png,images/complex/12.png,images/complex/15.png","0","null","","200","1331.164999998873","","","","deviant","",""
"","null","html-keyboard-response","100","284126","0.0-14.0-0.42","SS1604513289695","","null","","","","","","","","","","","","<img src=images/blank.png width =""500"" height = ""500"" style=""border:5px solid black"">","","",""
"","383.67500000458676","stimulus-presentation","101","284716","0.0-14.0-1.42","SS1604513289695","<img src='images/simple/1.png' width ='500' height = '500' style='border:5px solid black'>","40","mixed_complex_deviant","images/simple/12.png","images/simple/1.png","images/complex/16.png,images/complex/14.png,images/complex/8.png,images/complex/6.png,images/complex/4.png,images/complex/12.png,images/complex/15.png","0","null","","200","583.6750000045868","","","","background","",""
"","null","html-keyboard-response","102","285823","0.0-14.0-0.43","SS1604513289695","","null","","","","","","","","","","","","<img src=images/blank.png width =""500"" height = ""500"" style=""border:5px solid black"">","","",""
"","180.51500000001397","stimulus-presentation","103","286212","0.0-14.0-1.43","SS1604513289695","<img src='images/simple/1.png' width ='500' height = '500' style='border:5px solid black'>","40","mixed_complex_deviant","images/simple/12.png","images/simple/1.png","images/complex/16.png,images/complex/14.png,images/complex/8.png,images/complex/6.png,images/complex/4.png,images/complex/12.png,images/complex/15.png","0","null","","200","380.51500000001397","","","","background","",""
"","null","html-keyboard-response","104","287278","0.0-14.0-0.44","SS1604513289695","","null","","","","","","","","","","","","<img src=images/blank.png width =""500"" height = ""500"" style=""border:5px solid black"">","","",""
"","1182.1599999966566","stimulus-presentation","105","288668","0.0-14.0-1.44","SS1604513289695","<img src='images/simple/12.png' width ='500' height = '500' style='border:5px solid black'>","40","mixed_complex_deviant","images/simple/12.png","images/simple/1.png","images/complex/16.png,images/complex/14.png,images/complex/8.png,images/complex/6.png,images/complex/4.png,images/complex/12.png,images/complex/15.png","0","null","","200","1382.1599999966566","yes","606.5450000023702","","target","",""
"","null","html-keyboard-response","106","289569","0.0-14.0-0.45","SS1604513289695","","null","","","","","","","","","","","","<img src=images/blank.png width =""500"" height = ""500"" style=""border:5px solid black"">","","",""
"","269.3799999979092","stimulus-presentation","107","290046","0.0-14.0-1.45","SS1604513289695","<img src='images/simple/1.png' width ='500' height = '500' style='border:5px solid black'>","40","mixed_complex_deviant","images/simple/12.png","images/simple/1.png","images/complex/16.png,images/complex/14.png,images/complex/8.png,images/complex/6.png,images/complex/4.png,images/complex/12.png,images/complex/15.png","0","null","","200","469.3799999979092","","","","background","",""
"","null","html-keyboard-response","108","291308","0.0-14.0-0.46","SS1604513289695","","null","","","","","","","","","","","","<img src=images/blank.png width =""500"" height = ""500"" style=""border:5px solid black"">","","",""
"","3087.7800000016578","stimulus-presentation","109","294605","0.0-14.0-1.46","SS1604513289695","<img src='images/simple/1.png' width ='500' height = '500' style='border:5px solid black'>","40","mixed_complex_deviant","images/simple/12.png","images/simple/1.png","images/complex/16.png,images/complex/14.png,images/complex/8.png,images/complex/6.png,images/complex/4.png,images/complex/12.png,images/complex/15.png","0","null","","200","3287.7800000016578","","","","background","",""
"","null","html-keyboard-response","110","295861","0.0-14.0-0.47","SS1604513289695","","null","","","","","","","","","","","","<img src=images/blank.png width =""500"" height = ""500"" style=""border:5px solid black"">","","",""
"","330.54000000993256","stimulus-presentation","111","296405","0.0-14.0-1.47","SS1604513289695","<img src='images/simple/1.png' width ='500' height = '500' style='border:5px solid black'>","40","mixed_complex_deviant","images/simple/12.png","images/simple/1.png","images/complex/16.png,images/complex/14.png,images/complex/8.png,images/complex/6.png,images/complex/4.png,images/complex/12.png,images/complex/15.png","0","null","","200","530.5400000099326","","","","background","",""
"","null","html-keyboard-response","112","297611","0.0-14.0-0.48","SS1604513289695","","null","","","","","","","","","","","","<img src=images/blank.png width =""500"" height = ""500"" style=""border:5px solid black"">","","",""
"","2683.4600000001956","stimulus-presentation","113","300502","0.0-14.0-1.48","SS1604513289695","<img src='images/simple/1.png' width ='500' height = '500' style='border:5px solid black'>","40","mixed_complex_deviant","images/simple/12.png","images/simple/1.png","images/complex/16.png,images/complex/14.png,images/complex/8.png,images/complex/6.png,images/complex/4.png,images/complex/12.png,images/complex/15.png","0","null","","200","2883.4600000001956","","","","background","",""
"[{""page_index"":0,""viewing_time"":41731}]","41731","task-instructions","114","342238","0.0-15.0","SS1604513289695","","","","","","","","","","","","","","","","",""
"[{""page_index"":0,""viewing_time"":6554.730000003474},{""page_index"":1,""viewing_time"":2855.985000001965},{""page_index"":2,""viewing_time"":1783.8900000060676}]","11195.100000011735","instructions","115","353438","0.0-16.0","SS1604513289695","","","","","","","","","","","","","","","","",""
"","null","html-keyboard-response","116","354654","0.0-17.0-0.0","SS1604513289695","","null","","","","","","","","","","","","<img src=images/blank.png width =""500"" height = ""500"" style=""border:5px solid black"">","","",""
"","1717.0849999965867","stimulus-presentation","117","356580","0.0-17.0-1.0","SS1604513289695","<img src='images/simple/15.png' width ='500' height = '500' style='border:5px solid black'>","40","all_simple","images/simple/6.png","images/simple/8.png","images/simple/11.png,images/simple/17.png,images/simple/4.png,images/simple/15.png,images/simple/10.png,images/simple/16.png,images/simple/2.png","1","null","","200","1917.0849999965867","","","","deviant","",""
"","null","html-keyboard-response","118","357814","0.0-17.0-0.1","SS1604513289695","","null","","","","","","","","","","","","<img src=images/blank.png width =""500"" height = ""500"" style=""border:5px solid black"">","","",""
"","1342.0049999986077","stimulus-presentation","119","359367","0.0-17.0-1.1","SS1604513289695","<img src='images/simple/8.png' width ='500' height = '500' style='border:5px solid black'>","40","all_simple","images/simple/6.png","images/simple/8.png","images/simple/11.png,images/simple/17.png,images/simple/4.png,images/simple/15.png,images/simple/10.png,images/simple/16.png,images/simple/2.png","1","null","","200","1542.0049999986077","","","","background","",""
"","null","html-keyboard-response","120","360596","0.0-17.0-0.2","SS1604513289695","","null","","","","","","","","","","","","<img src=images/blank.png width =""500"" height = ""500"" style=""border:5px solid black"">","","",""
"","534.9399999977322","stimulus-presentation","121","361339","0.0-17.0-1.2","SS1604513289695","<img src='images/simple/8.png' width ='500' height = '500' style='border:5px solid black'>","40","all_simple","images/simple/6.png","images/simple/8.png","images/simple/11.png,images/simple/17.png,images/simple/4.png,images/simple/15.png,images/simple/10.png,images/simple/16.png,images/simple/2.png","1","null","","200","734.9399999977322","","","","background","",""
"","null","html-keyboard-response","122","362261","0.0-17.0-0.3","SS1604513289695","","null","","","","","","","","","","","","<img src=images/blank.png width =""500"" height = ""500"" style=""border:5px solid black"">","","",""
"","341.90999998827465","stimulus-presentation","123","362811","0.0-17.0-1.3","SS1604513289695","<img src='images/simple/8.png' width ='500' height = '500' style='border:5px solid black'>","40","all_simple","images/simple/6.png","images/simple/8.png","images/simple/11.png,images/simple/17.png,images/simple/4.png,images/simple/15.png,images/simple/10.png,images/simple/16.png,images/simple/2.png","1","null","","200","541.9099999882746","","","","background","",""
"","null","html-keyboard-response","124","363876","0.0-17.0-0.4","SS1604513289695","","null","","","","","","","","","","","","<img src=images/blank.png width =""500"" height = ""500"" style=""border:5px solid black"">","","",""
"","537.7449999941746","stimulus-presentation","125","364619","0.0-17.0-1.4","SS1604513289695","<img src='images/simple/8.png' width ='500' height = '500' style='border:5px solid black'>","40","all_simple","images/simple/6.png","images/simple/8.png","images/simple/11.png,images/simple/17.png,images/simple/4.png,images/simple/15.png,images/simple/10.png,images/simple/16.png,images/simple/2.png","1","null","","200","737.7449999941746","","","","background","",""
"","null","html-keyboard-response","126","365741","0.0-17.0-0.5","SS1604513289695","","null","","","","","","","","","","","","<img src=images/blank.png width =""500"" height = ""500"" style=""border:5px solid black"">","","",""
"","204.51999999932013","stimulus-presentation","127","366155","0.0-17.0-1.5","SS1604513289695","<img src='images/simple/8.png' width ='500' height = '500' style='border:5px solid black'>","40","all_simple","images/simple/6.png","images/simple/8.png","images/simple/11.png,images/simple/17.png,images/simple/4.png,images/simple/15.png,images/simple/10.png,images/simple/16.png,images/simple/2.png","1","null","","200","404.51999999932013","","","","background","",""
"","null","html-keyboard-response","128","367451","0.0-17.0-0.6","SS1604513289695","","null","","","","","","","","","","","","<img src=images/blank.png width =""500"" height = ""500"" style=""border:5px solid black"">","","",""
"","331.3600000110455","stimulus-presentation","129","367995","0.0-17.0-1.6","SS1604513289695","<img src='images/simple/8.png' width ='500' height = '500' style='border:5px solid black'>","40","all_simple","images/simple/6.png","images/simple/8.png","images/simple/11.png,images/simple/17.png,images/simple/4.png,images/simple/15.png,images/simple/10.png,images/simple/16.png,images/simple/2.png","1","null","","200","531.3600000110455","","","","background","",""
"","null","html-keyboard-response","130","369026","0.0-17.0-0.7","SS1604513289695","","null","","","","","","","","","","","","<img src=images/blank.png width =""500"" height = ""500"" style=""border:5px solid black"">","","",""
"","195.89999999152496","stimulus-presentation","131","369431","0.0-17.0-1.7","SS1604513289695","<img src='images/simple/8.png' width ='500' height = '500' style='border:5px solid black'>","40","all_simple","images/simple/6.png","images/simple/8.png","images/simple/11.png,images/simple/17.png,images/simple/4.png,images/simple/15.png,images/simple/10.png,images/simple/16.png,images/simple/2.png","1","null","","200","395.89999999152496","","","","background","",""
"","null","html-keyboard-response","132","370730","0.0-17.0-0.8","SS1604513289695","","null","","","","","","","","","","","","<img src=images/blank.png width =""500"" height = ""500"" style=""border:5px solid black"">","","",""
"","170.37000000709668","stimulus-presentation","133","371108","0.0-17.0-1.8","SS1604513289695","<img src='images/simple/8.png' width ='500' height = '500' style='border:5px solid black'>","40","all_simple","images/simple/6.png","images/simple/8.png","images/simple/11.png,images/simple/17.png,images/simple/4.png,images/simple/15.png,images/simple/10.png,images/simple/16.png,images/simple/2.png","1","null","","200","370.3700000070967","","","","background","",""
"","null","html-keyboard-response","134","372195","0.0-17.0-0.9","SS1604513289695","","null","","","","","","","","","","","","<img src=images/blank.png width =""500"" height = ""500"" style=""border:5px solid black"">","","",""
"","973.3949999936158","stimulus-presentation","135","373379","0.0-17.0-1.9","SS1604513289695","<img src='images/simple/6.png' width ='500' height = '500' style='border:5px solid black'>","40","all_simple","images/simple/6.png","images/simple/8.png","images/simple/11.png,images/simple/17.png,images/simple/4.png,images/simple/15.png,images/simple/10.png,images/simple/16.png,images/simple/2.png","1","null","","200","1173.3949999936158","yes","525.2900000050431","","target","",""
"","null","html-keyboard-response","136","374195","0.0-17.0-0.10","SS1604513289695","","null","","","","","","","","","","","","<img src=images/blank.png width =""500"" height = ""500"" style=""border:5px solid black"">","","",""
"","293.79500000504777","stimulus-presentation","137","374699","0.0-17.0-1.10","SS1604513289695","<img src='images/simple/8.png' width ='500' height = '500' style='border:5px solid black'>","40","all_simple","images/simple/6.png","images/simple/8.png","images/simple/11.png,images/simple/17.png,images/simple/4.png,images/simple/15.png,images/simple/10.png,images/simple/16.png,images/simple/2.png","1","null","","200","493.79500000504777","","","","background","",""
"","null","html-keyboard-response","138","375737","0.0-17.0-0.11","SS1604513289695","","null","","","","","","","","","","","","<img src=images/blank.png width =""500"" height = ""500"" style=""border:5px solid black"">","","",""
"","219.76500000164378","stimulus-presentation","139","376163","0.0-17.0-1.11","SS1604513289695","<img src='images/simple/8.png' width ='500' height = '500' style='border:5px solid black'>","40","all_simple","images/simple/6.png","images/simple/8.png","images/simple/11.png,images/simple/17.png,images/simple/4.png,images/simple/15.png,images/simple/10.png,images/simple/16.png,images/simple/2.png","1","null","","200","419.7650000016438","","","","background","",""
"","null","html-keyboard-response","140","377394","0.0-17.0-0.12","SS1604513289695","","null","","","","","","","","","","","","<img src=images/blank.png width =""500"" height = ""500"" style=""border:5px solid black"">","","",""
"","645.7749999972293","stimulus-presentation","141","378251","0.0-17.0-1.12","SS1604513289695","<img src='images/simple/11.png' width ='500' height = '500' style='border:5px solid black'>","40","all_simple","images/simple/6.png","images/simple/8.png","images/simple/11.png,images/simple/17.png,images/simple/4.png,images/simple/15.png,images/simple/10.png,images/simple/16.png,images/simple/2.png","1","null","","200","845.7749999972293","","","","deviant","",""
"","null","html-keyboard-response","142","379153","0.0-17.0-0.13","SS1604513289695","","null","","","","","","","","","","","","<img src=images/blank.png width =""500"" height = ""500"" style=""border:5px solid black"">","","",""
"","1681.9800000084797","stimulus-presentation","143","381045","0.0-17.0-1.13","SS1604513289695","<img src='images/simple/8.png' width ='500' height = '500' style='border:5px solid black'>","40","all_simple","images/simple/6.png","images/simple/8.png","images/simple/11.png,images/simple/17.png,images/simple/4.png,images/simple/15.png,images/simple/10.png,images/simple/16.png,images/simple/2.png","1","null","","200","1881.9800000084797","","","","background","",""
"","null","html-keyboard-response","144","382164","0.0-17.0-0.14","SS1604513289695","","null","","","","","","","","","","","","<img src=images/blank.png width =""500"" height = ""500"" style=""border:5px solid black"">","","",""
"","333.4350000077393","stimulus-presentation","145","382707","0.0-17.0-1.14","SS1604513289695","<img src='images/simple/8.png' width ='500' height = '500' style='border:5px solid black'>","40","all_simple","images/simple/6.png","images/simple/8.png","images/simple/11.png,images/simple/17.png,images/simple/4.png,images/simple/15.png,images/simple/10.png,images/simple/16.png,images/simple/2.png","1","null","","200","533.4350000077393","","","","background","",""
"","null","html-keyboard-response","146","383601","0.0-17.0-0.15","SS1604513289695","","null","","","","","","","","","","","","<img src=images/blank.png width =""500"" height = ""500"" style=""border:5px solid black"">","","",""
"","555.4699999920558","stimulus-presentation","147","384363","0.0-17.0-1.15","SS1604513289695","<img src='images/simple/8.png' width ='500' height = '500' style='border:5px solid black'>","40","all_simple","images/simple/6.png","images/simple/8.png","images/simple/11.png,images/simple/17.png,images/simple/4.png,images/simple/15.png,images/simple/10.png,images/simple/16.png,images/simple/2.png","1","null","","200","755.4699999920558","","","","background","",""
"","null","html-keyboard-response","148","385617","0.0-17.0-0.16","SS1604513289695","","null","","","","","","","","","","","","<img src=images/blank.png width =""500"" height = ""500"" style=""border:5px solid black"">","","",""
"","402.14999999443535","stimulus-presentation","149","386227","0.0-17.0-1.16","SS1604513289695","<img src='images/simple/8.png' width ='500' height = '500' style='border:5px solid black'>","40","all_simple","images/simple/6.png","images/simple/8.png","images/simple/11.png,images/simple/17.png,images/simple/4.png,images/simple/15.png,images/simple/10.png,images/simple/16.png,images/simple/2.png","1","null","","200","602.1499999944353","","","","background","",""
"","null","html-keyboard-response","150","387066","0.0-17.0-0.17","SS1604513289695","","null","","","","","","","","","","","","<img src=images/blank.png width =""500"" height = ""500"" style=""border:5px solid black"">","","",""
"","288.29499999119435","stimulus-presentation","151","387564","0.0-17.0-1.17","SS1604513289695","<img src='images/simple/8.png' width ='500' height = '500' style='border:5px solid black'>","40","all_simple","images/simple/6.png","images/simple/8.png","images/simple/11.png,images/simple/17.png,images/simple/4.png,images/simple/15.png,images/simple/10.png,images/simple/16.png,images/simple/2.png","1","null","","200","488.29499999119435","","","","background","",""
"","null","html-keyboard-response","152","388454","0.0-17.0-0.18","SS1604513289695","","null","","","","","","","","","","","","<img src=images/blank.png width =""500"" height = ""500"" style=""border:5px solid black"">","","",""
"","269.24499998858664","stimulus-presentation","153","388931","0.0-17.0-1.18","SS1604513289695","<img src='images/simple/8.png' width ='500' height = '500' style='border:5px solid black'>","40","all_simple","images/simple/6.png","images/simple/8.png","images/simple/11.png,images/simple/17.png,images/simple/4.png,images/simple/15.png,images/simple/10.png,images/simple/16.png,images/simple/2.png","1","null","","200","469.24499998858664","","","","background","",""
"","null","html-keyboard-response","154","390002","0.0-17.0-0.19","SS1604513289695","","null","","","","","","","","","","","","<img src=images/blank.png width =""500"" height = ""500"" style=""border:5px solid black"">","","",""
"","208.199999993667","stimulus-presentation","155","390419","0.0-17.0-1.19","SS1604513289695","<img src='images/simple/8.png' width ='500' height = '500' style='border:5px solid black'>","40","all_simple","images/simple/6.png","images/simple/8.png","images/simple/11.png,images/simple/17.png,images/simple/4.png,images/simple/15.png,images/simple/10.png,images/simple/16.png,images/simple/2.png","1","null","","200","408.199999993667","","","","background","",""
"","null","html-keyboard-response","156","391577","0.0-17.0-0.20","SS1604513289695","","null","","","","","","","","","","","","<img src=images/blank.png width =""500"" height = ""500"" style=""border:5px solid black"">","","",""
"","189.5749999966938","stimulus-presentation","157","391973","0.0-17.0-1.20","SS1604513289695","<img src='images/simple/8.png' width ='500' height = '500' style='border:5px solid black'>","40","all_simple","images/simple/6.png","images/simple/8.png","images/simple/11.png,images/simple/17.png,images/simple/4.png,images/simple/15.png,images/simple/10.png,images/simple/16.png,images/simple/2.png","1","null","","200","389.5749999966938","","","","background","",""
"","null","html-keyboard-response","158","392979","0.0-17.0-0.21","SS1604513289695","","null","","","","","","","","","","","","<img src=images/blank.png width =""500"" height = ""500"" style=""border:5px solid black"">","","",""
"","3471.7299999902025","stimulus-presentation","159","396659","0.0-17.0-1.21","SS1604513289695","<img src='images/simple/17.png' width ='500' height = '500' style='border:5px solid black'>","40","all_simple","images/simple/6.png","images/simple/8.png","images/simple/11.png,images/simple/17.png,images/simple/4.png,images/simple/15.png,images/simple/10.png,images/simple/16.png,images/simple/2.png","1","null","","200","3671.7299999902025","yes","623.5799999994924","","deviant","",""
"","null","html-keyboard-response","160","397890","0.0-17.0-0.22","SS1604513289695","","null","","","","","","","","","","","","<img src=images/blank.png width =""500"" height = ""500"" style=""border:5px solid black"">","","",""
"","423.8749999931315","stimulus-presentation","161","398523","0.0-17.0-1.22","SS1604513289695","<img src='images/simple/8.png' width ='500' height = '500' style='border:5px solid black'>","40","all_simple","images/simple/6.png","images/simple/8.png","images/simple/11.png,images/simple/17.png,images/simple/4.png,images/simple/15.png,images/simple/10.png,images/simple/16.png,images/simple/2.png","1","null","","200","623.8749999931315","","","","background","",""
"","null","html-keyboard-response","162","399371","0.0-17.0-0.23","SS1604513289695","","null","","","","","","","","","","","","<img src=images/blank.png width =""500"" height = ""500"" style=""border:5px solid black"">","","",""
"","342.86999999312684","stimulus-presentation","163","399923","0.0-17.0-1.23","SS1604513289695","<img src='images/simple/8.png' width ='500' height = '500' style='border:5px solid black'>","40","all_simple","images/simple/6.png","images/simple/8.png","images/simple/11.png,images/simple/17.png,images/simple/4.png,images/simple/15.png,images/simple/10.png,images/simple/16.png,images/simple/2.png","1","null","","200","542.8699999931268","","","","background","",""
"","null","html-keyboard-response","164","401135","0.0-17.0-0.24","SS1604513289695","","null","","","","","","","","","","","","<img src=images/blank.png width =""500"" height = ""500"" style=""border:5px solid black"">","","",""
"","2554.6549999999115","stimulus-presentation","165","403899","0.0-17.0-1.24","SS1604513289695","<img src='images/simple/6.png' width ='500' height = '500' style='border:5px solid black'>","40","all_simple","images/simple/6.png","images/simple/8.png","images/simple/11.png,images/simple/17.png,images/simple/4.png,images/simple/15.png,images/simple/10.png,images/simple/16.png,images/simple/2.png","1","null","","200","2754.6549999999115","yes","1852.6850000052946","","target","",""
"","null","html-keyboard-response","166","404809","0.0-17.0-0.25","SS1604513289695","","null","","","","","","","","","","","","<img src=images/blank.png width =""500"" height = ""500"" style=""border:5px solid black"">","","",""
"","679.1850000008708","stimulus-presentation","167","405699","0.0-17.0-1.25","SS1604513289695","<img src='images/simple/16.png' width ='500' height = '500' style='border:5px solid black'>","40","all_simple","images/simple/6.png","images/simple/8.png","images/simple/11.png,images/simple/17.png,images/simple/4.png,images/simple/15.png,images/simple/10.png,images/simple/16.png,images/simple/2.png","1","null","","200","879.1850000008708","","","","deviant","",""
"","null","html-keyboard-response","168","406899","0.0-17.0-0.26","SS1604513289695","","null","","","","","","","","","","","","<img src=images/blank.png width =""500"" height = ""500"" style=""border:5px solid black"">","","",""
"","414.79499998968095","stimulus-presentation","169","407523","0.0-17.0-1.26","SS1604513289695","<img src='images/simple/8.png' width ='500' height = '500' style='border:5px solid black'>","40","all_simple","images/simple/6.png","images/simple/8.png","images/simple/11.png,images/simple/17.png,images/simple/4.png,images/simple/15.png,images/simple/10.png,images/simple/16.png,images/simple/2.png","1","null","","200","614.794999989681","","","","background","",""
"","null","html-keyboard-response","170","408507","0.0-17.0-0.27","SS1604513289695","","null","","","","","","","","","","","","<img src=images/blank.png width =""500"" height = ""500"" style=""border:5px solid black"">","","",""
"","327.6849999965634","stimulus-presentation","171","409043","0.0-17.0-1.27","SS1604513289695","<img src='images/simple/8.png' width ='500' height = '500' style='border:5px solid black'>","40","all_simple","images/simple/6.png","images/simple/8.png","images/simple/11.png,images/simple/17.png,images/simple/4.png,images/simple/15.png,images/simple/10.png,images/simple/16.png,images/simple/2.png","1","null","","200","527.6849999965634","","","","background","",""
"","null","html-keyboard-response","172","410166","0.0-17.0-0.28","SS1604513289695","","null","","","","","","","","","","","","<img src=images/blank.png width =""500"" height = ""500"" style=""border:5px solid black"">","","",""
"","610.5050000041956","stimulus-presentation","173","410987","0.0-17.0-1.28","SS1604513289695","<img src='images/simple/8.png' width ='500' height = '500' style='border:5px solid black'>","40","all_simple","images/simple/6.png","images/simple/8.png","images/simple/11.png,images/simple/17.png,images/simple/4.png,images/simple/15.png,images/simple/10.png,images/simple/16.png,images/simple/2.png","1","null","","200","810.5050000041956","","","","background","",""
"","null","html-keyboard-response","174","411999","0.0-17.0-0.29","SS1604513289695","","null","","","","","","","","","","","","<img src=images/blank.png width =""500"" height = ""500"" style=""border:5px solid black"">","","",""
"","399.3049999990035","stimulus-presentation","175","412611","0.0-17.0-1.29","SS1604513289695","<img src='images/simple/8.png' width ='500' height = '500' style='border:5px solid black'>","40","all_simple","images/simple/6.png","images/simple/8.png","images/simple/11.png,images/simple/17.png,images/simple/4.png,images/simple/15.png,images/simple/10.png,images/simple/16.png,images/simple/2.png","1","null","","200","599.3049999990035","","","","background","",""
"","null","html-keyboard-response","176","413491","0.0-17.0-0.30","SS1604513289695","","null","","","","","","","","","","","","<img src=images/blank.png width =""500"" height = ""500"" style=""border:5px solid black"">","","",""
"","535.6049999973038","stimulus-presentation","177","414236","0.0-17.0-1.30","SS1604513289695","<img src='images/simple/2.png' width ='500' height = '500' style='border:5px solid black'>","40","all_simple","images/simple/6.png","images/simple/8.png","images/simple/11.png,images/simple/17.png,images/simple/4.png,images/simple/15.png,images/simple/10.png,images/simple/16.png,images/simple/2.png","1","null","","200","735.6049999973038","","","","deviant","",""
"","null","html-keyboard-response","178","415373","0.0-17.0-0.31","SS1604513289695","","null","","","","","","","","","","","","<img src=images/blank.png width =""500"" height = ""500"" style=""border:5px solid black"">","","",""
"","1292.0799999992596","stimulus-presentation","179","416875","0.0-17.0-1.31","SS1604513289695","<img src='images/simple/6.png' width ='500' height = '500' style='border:5px solid black'>","40","all_simple","images/simple/6.png","images/simple/8.png","images/simple/11.png,images/simple/17.png,images/simple/4.png,images/simple/15.png,images/simple/10.png,images/simple/16.png,images/simple/2.png","1","null","","200","1492.0799999992596","yes","772.1149999997579","","target","",""
"","null","html-keyboard-response","180","418010","0.0-17.0-0.32","SS1604513289695","","null","","","","","","","","","","","","<img src=images/blank.png width =""500"" height = ""500"" style=""border:5px solid black"">","","",""
"","230.3200000023935","stimulus-presentation","181","418451","0.0-17.0-1.32","SS1604513289695","<img src='images/simple/8.png' width ='500' height = '500' style='border:5px solid black'>","40","all_simple","images/simple/6.png","images/simple/8.png","images/simple/11.png,images/simple/17.png,images/simple/4.png,images/simple/15.png,images/simple/10.png,images/simple/16.png,images/simple/2.png","1","null","","200","430.3200000023935","","","","background","",""
"","null","html-keyboard-response","182","419636","0.0-17.0-0.33","SS1604513289695","","null","","","","","","","","","","","","<img src=images/blank.png width =""500"" height = ""500"" style=""border:5px solid black"">","","",""
"","225.12499999720603","stimulus-presentation","183","420075","0.0-17.0-1.33","SS1604513289695","<img src='images/simple/8.png' width ='500' height = '500' style='border:5px solid black'>","40","all_simple","images/simple/6.png","images/simple/8.png","images/simple/11.png,images/simple/17.png,images/simple/4.png,images/simple/15.png,images/simple/10.png,images/simple/16.png,images/simple/2.png","1","null","","200","425.12499999720603","","","","background","",""
"","null","html-keyboard-response","184","421044","0.0-17.0-0.34","SS1604513289695","","null","","","","","","","","","","","","<img src=images/blank.png width =""500"" height = ""500"" style=""border:5px solid black"">","","",""
"","180.24500001047272","stimulus-presentation","185","421435","0.0-17.0-1.34","SS1604513289695","<img src='images/simple/8.png' width ='500' height = '500' style='border:5px solid black'>","40","all_simple","images/simple/6.png","images/simple/8.png","images/simple/11.png,images/simple/17.png,images/simple/4.png,images/simple/15.png,images/simple/10.png,images/simple/16.png,images/simple/2.png","1","null","","200","380.2450000104727","","","","background","",""
"","null","html-keyboard-response","186","422303","0.0-17.0-0.35","SS1604513289695","","null","","","","","","","","","","","","<img src=images/blank.png width =""500"" height = ""500"" style=""border:5px solid black"">","","",""
"","1642.359999998007","stimulus-presentation","187","424155","0.0-17.0-1.35","SS1604513289695","<img src='images/simple/6.png' width ='500' height = '500' style='border:5px solid black'>","40","all_simple","images/simple/6.png","images/simple/8.png","images/simple/11.png,images/simple/17.png,images/simple/4.png,images/simple/15.png,images/simple/10.png,images/simple/16.png,images/simple/2.png","1","null","","200","1842.359999998007","yes","738.469999996596","","target","",""
"","null","html-keyboard-response","188","425286","0.0-17.0-0.36","SS1604513289695","","null","","","","","","","","","","","","<img src=images/blank.png width =""500"" height = ""500"" style=""border:5px solid black"">","","",""
"","203.06499999423977","stimulus-presentation","189","425701","0.0-17.0-1.36","SS1604513289695","<img src='images/simple/8.png' width ='500' height = '500' style='border:5px solid black'>","40","all_simple","images/simple/6.png","images/simple/8.png","images/simple/11.png,images/simple/17.png,images/simple/4.png,images/simple/15.png,images/simple/10.png,images/simple/16.png,images/simple/2.png","1","null","","200","403.06499999423977","","","","background","",""
"","null","html-keyboard-response","190","426769","0.0-17.0-0.37","SS1604513289695","","null","","","","","","","","","","","","<img src=images/blank.png width =""500"" height = ""500"" style=""border:5px solid black"">","","",""
"","163.40499999932945","stimulus-presentation","191","427139","0.0-17.0-1.37","SS1604513289695","<img src='images/simple/6.png' width ='500' height = '500' style='border:5px solid black'>","40","all_simple","images/simple/6.png","images/simple/8.png","images/simple/11.png,images/simple/17.png,images/simple/4.png,images/simple/15.png,images/simple/10.png,images/simple/16.png,images/simple/2.png","1","null","","200","363.40499999932945","","","","target","",""
"","null","html-keyboard-response","192","427968","0.0-17.0-0.38","SS1604513289695","","null","","","","","","","","","","","","<img src=images/blank.png width =""500"" height = ""500"" style=""border:5px solid black"">","","",""
"","2319.535000002361","stimulus-presentation","193","430499","0.0-17.0-1.38","SS1604513289695","<img src='images/simple/8.png' width ='500' height = '500' style='border:5px solid black'>","40","all_simple","images/simple/6.png","images/simple/8.png","images/simple/11.png,images/simple/17.png,images/simple/4.png,images/simple/15.png,images/simple/10.png,images/simple/16.png,images/simple/2.png","1","null","","200","2519.535000002361","","","","background","",""
"","null","html-keyboard-response","194","431415","0.0-17.0-0.39","SS1604513289695","","null","","","","","","","","","","","","<img src=images/blank.png width =""500"" height = ""500"" style=""border:5px solid black"">","","",""
"","95.3600000066217","stimulus-presentation","195","431732","0.0-17.0-1.39","SS1604513289695","<img src='images/simple/4.png' width ='500' height = '500' style='border:5px solid black'>","40","all_simple","images/simple/6.png","images/simple/8.png","images/simple/11.png,images/simple/17.png,images/simple/4.png,images/simple/15.png,images/simple/10.png,images/simple/16.png,images/simple/2.png","1","null","","200","295.3600000066217","","","","deviant","",""
"","null","html-keyboard-response","196","432548","0.0-17.0-0.40","SS1604513289695","","null","","","","","","","","","","","","<img src=images/blank.png width =""500"" height = ""500"" style=""border:5px solid black"">","","",""
"","212.46500000415836","stimulus-presentation","197","432971","0.0-17.0-1.40","SS1604513289695","<img src='images/simple/8.png' width ='500' height = '500' style='border:5px solid black'>","40","all_simple","images/simple/6.png","images/simple/8.png","images/simple/11.png,images/simple/17.png,images/simple/4.png,images/simple/15.png,images/simple/10.png,images/simple/16.png,images/simple/2.png","1","null","","200","412.46500000415836","","","","background","",""
"","null","html-keyboard-response","198","433871","0.0-17.0-0.41","SS1604513289695","","null","","","","","","","","","","","","<img src=images/blank.png width =""500"" height = ""500"" style=""border:5px solid black"">","","",""
"","228.57000000658445","stimulus-presentation","199","434307","0.0-17.0-1.41","SS1604513289695","<img src='images/simple/10.png' width ='500' height = '500' style='border:5px solid black'>","40","all_simple","images/simple/6.png","images/simple/8.png","images/simple/11.png,images/simple/17.png,images/simple/4.png,images/simple/15.png,images/simple/10.png,images/simple/16.png,images/simple/2.png","1","null","","200","428.57000000658445","","","","deviant","",""
"","null","html-keyboard-response","200","435331","0.0-17.0-0.42","SS1604513289695","","null","","","","","","","","","","","","<img src=images/blank.png width =""500"" height = ""500"" style=""border:5px solid black"">","","",""
"","1701.4000000053784","stimulus-presentation","201","437243","0.0-17.0-1.42","SS1604513289695","<img src='images/simple/6.png' width ='500' height = '500' style='border:5px solid black'>","40","all_simple","images/simple/6.png","images/simple/8.png","images/simple/11.png,images/simple/17.png,images/simple/4.png,images/simple/15.png,images/simple/10.png,images/simple/16.png,images/simple/2.png","1","null","","200","1901.4000000053784","yes","543.0550000019139","","target","",""
"","null","html-keyboard-response","202","438134","0.0-17.0-0.43","SS1604513289695","","null","","","","","","","","","","","","<img src=images/blank.png width =""500"" height = ""500"" style=""border:5px solid black"">","","",""
"","321.7199999926379","stimulus-presentation","203","438667","0.0-17.0-1.43","SS1604513289695","<img src='images/simple/8.png' width ='500' height = '500' style='border:5px solid black'>","40","all_simple","images/simple/6.png","images/simple/8.png","images/simple/11.png,images/simple/17.png,images/simple/4.png,images/simple/15.png,images/simple/10.png,images/simple/16.png,images/simple/2.png","1","null","","200","521.7199999926379","","","","background","",""
"","null","html-keyboard-response","204","439622","0.0-17.0-0.44","SS1604513289695","","null","","","","","","","","","","","","<img src=images/blank.png width =""500"" height = ""500"" style=""border:5px solid black"">","","",""
"","164.98000000137836","stimulus-presentation","205","439995","0.0-17.0-1.44","SS1604513289695","<img src='images/simple/6.png' width ='500' height = '500' style='border:5px solid black'>","40","all_simple","images/simple/6.png","images/simple/8.png","images/simple/11.png,images/simple/17.png,images/simple/4.png,images/simple/15.png,images/simple/10.png,images/simple/16.png,images/simple/2.png","1","null","","200","364.98000000137836","","","","target","",""
"","null","html-keyboard-response","206","441027","0.0-17.0-0.45","SS1604513289695","","null","","","","","","","","","","","","<img src=images/blank.png width =""500"" height = ""500"" style=""border:5px solid black"">","","",""
"","628.4900000027847","stimulus-presentation","207","441866","0.0-17.0-1.45","SS1604513289695","<img src='images/simple/8.png' width ='500' height = '500' style='border:5px solid black'>","40","all_simple","images/simple/6.png","images/simple/8.png","images/simple/11.png,images/simple/17.png,images/simple/4.png,images/simple/15.png,images/simple/10.png,images/simple/16.png,images/simple/2.png","1","null","","200","828.4900000027847","","","","background","",""
"","null","html-keyboard-response","208","442766","0.0-17.0-0.46","SS1604513289695","","null","","","","","","","","","","","","<img src=images/blank.png width =""500"" height = ""500"" style=""border:5px solid black"">","","",""
"","354.3399999907706","stimulus-presentation","209","443330","0.0-17.0-1.46","SS1604513289695","<img src='images/simple/8.png' width ='500' height = '500' style='border:5px solid black'>","40","all_simple","images/simple/6.png","images/simple/8.png","images/simple/11.png,images/simple/17.png,images/simple/4.png,images/simple/15.png,images/simple/10.png,images/simple/16.png,images/simple/2.png","1","null","","200","554.3399999907706","","","","background","",""
"","null","html-keyboard-response","210","444364","0.0-17.0-0.47","SS1604513289695","","null","","","","","","","","","","","","<img src=images/blank.png width =""500"" height = ""500"" style=""border:5px solid black"">","","",""
"","308.40499998885207","stimulus-presentation","211","444883","0.0-17.0-1.47","SS1604513289695","<img src='images/simple/8.png' width ='500' height = '500' style='border:5px solid black'>","40","all_simple","images/simple/6.png","images/simple/8.png","images/simple/11.png,images/simple/17.png,images/simple/4.png,images/simple/15.png,images/simple/10.png,images/simple/16.png,images/simple/2.png","1","null","","200","508.40499998885207","","","","background","",""
"","null","html-keyboard-response","212","445979","0.0-17.0-0.48","SS1604513289695","","null","","","","","","","","","","","","<img src=images/blank.png width =""500"" height = ""500"" style=""border:5px solid black"">","","",""
"","630.6100000074366","stimulus-presentation","213","446820","0.0-17.0-1.48","SS1604513289695","<img src='images/simple/8.png' width ='500' height = '500' style='border:5px solid black'>","40","all_simple","images/simple/6.png","images/simple/8.png","images/simple/11.png,images/simple/17.png,images/simple/4.png,images/simple/15.png,images/simple/10.png,images/simple/16.png,images/simple/2.png","1","null","","200","830.6100000074366","","","","background","",""
"[{""page_index"":0,""viewing_time"":4655}]","4656","task-instructions","214","451485","0.0-18.0","SS1604513289695","","","","","","","","","","","","","","","","",""
"[{""page_index"":0,""viewing_time"":3441.4149999938672},{""page_index"":1,""viewing_time"":3680.1500000001397},{""page_index"":2,""viewing_time"":1111.6349999938393}]","8233.694999988074","instructions","215","459725","0.0-19.0","SS1604513289695","","","","","","","","","","","","","","","","",""
"","null","html-keyboard-response","216","460836","0.0-20.0-0.0","SS1604513289695","","null","","","","","","","","","","","","<img src=images/blank.png width =""500"" height = ""500"" style=""border:5px solid black"">","","",""
"","1555.449999999837","stimulus-presentation","217","462603","0.0-20.0-1.0","SS1604513289695","<img src='images/complex/9.png' width ='500' height = '500' style='border:5px solid black'>","40","mixed_simple_deviant","images/complex/17.png","images/complex/9.png","images/simple/18.png,images/simple/5.png,images/simple/3.png,images/simple/13.png,images/simple/7.png,images/simple/14.png,images/simple/9.png","2","null","","200","1755.449999999837","","","","background","",""
"","null","html-keyboard-response","218","463700","0.0-20.0-0.1","SS1604513289695","","null","","","","","","","","","","","","<img src=images/blank.png width =""500"" height = ""500"" style=""border:5px solid black"">","","",""
"","299.4849999959115","stimulus-presentation","219","464211","0.0-20.0-1.1","SS1604513289695","<img src='images/simple/14.png' width ='500' height = '500' style='border:5px solid black'>","40","mixed_simple_deviant","images/complex/17.png","images/complex/9.png","images/simple/18.png,images/simple/5.png,images/simple/3.png,images/simple/13.png,images/simple/7.png,images/simple/14.png,images/simple/9.png","2","null","","200","499.4849999959115","","","","deviant","",""
"","null","html-keyboard-response","220","465124","0.0-20.0-0.2","SS1604513289695","","null","","","","","","","","","","","","<img src=images/blank.png width =""500"" height = ""500"" style=""border:5px solid black"">","","",""
"","905.5450000014389","stimulus-presentation","221","466243","0.0-20.0-1.2","SS1604513289695","<img src='images/complex/9.png' width ='500' height = '500' style='border:5px solid black'>","40","mixed_simple_deviant","images/complex/17.png","images/complex/9.png","images/simple/18.png,images/simple/5.png,images/simple/3.png,images/simple/13.png,images/simple/7.png,images/simple/14.png,images/simple/9.png","2","null","","200","1105.545000001439","","","","background","",""
"","null","html-keyboard-response","222","467173","0.0-20.0-0.3","SS1604513289695","","null","","","","","","","","","","","","<img src=images/blank.png width =""500"" height = ""500"" style=""border:5px solid black"">","","",""
"","324.0549999900395","stimulus-presentation","223","467709","0.0-20.0-1.3","SS1604513289695","<img src='images/complex/9.png' width ='500' height = '500' style='border:5px solid black'>","40","mixed_simple_deviant","images/complex/17.png","images/complex/9.png","images/simple/18.png,images/simple/5.png,images/simple/3.png,images/simple/13.png,images/simple/7.png,images/simple/14.png,images/simple/9.png","2","null","","200","524.0549999900395","","","","background","",""
"","null","html-keyboard-response","224","468694","0.0-20.0-0.4","SS1604513289695","","null","","","","","","","","","","","","<img src=images/blank.png width =""500"" height = ""500"" style=""border:5px solid black"">","","",""
"","309.1500000009546","stimulus-presentation","225","469211","0.0-20.0-1.4","SS1604513289695","<img src='images/complex/9.png' width ='500' height = '500' style='border:5px solid black'>","40","mixed_simple_deviant","images/complex/17.png","images/complex/9.png","images/simple/18.png,images/simple/5.png,images/simple/3.png,images/simple/13.png,images/simple/7.png,images/simple/14.png,images/simple/9.png","2","null","","200","509.1500000009546","","","","background","",""
"","null","html-keyboard-response","226","470285","0.0-20.0-0.5","SS1604513289695","","null","","","","","","","","","","","","<img src=images/blank.png width =""500"" height = ""500"" style=""border:5px solid black"">","","",""
"","325.96999999077525","stimulus-presentation","227","470819","0.0-20.0-1.5","SS1604513289695","<img src='images/complex/9.png' width ='500' height = '500' style='border:5px solid black'>","40","mixed_simple_deviant","images/complex/17.png","images/complex/9.png","images/simple/18.png,images/simple/5.png,images/simple/3.png,images/simple/13.png,images/simple/7.png,images/simple/14.png,images/simple/9.png","2","null","","200","525.9699999907752","","","","background","",""
"","null","html-keyboard-response","228","471986","0.0-20.0-0.6","SS1604513289695","","null","","","","","","","","","","","","<img src=images/blank.png width =""500"" height = ""500"" style=""border:5px solid black"">","","",""
"","307.6149999978952","stimulus-presentation","229","472506","0.0-20.0-1.6","SS1604513289695","<img src='images/complex/9.png' width ='500' height = '500' style='border:5px solid black'>","40","mixed_simple_deviant","images/complex/17.png","images/complex/9.png","images/simple/18.png,images/simple/5.png,images/simple/3.png,images/simple/13.png,images/simple/7.png,images/simple/14.png,images/simple/9.png","2","null","","200","507.6149999978952","","","","background","",""
"","null","html-keyboard-response","230","473454","0.0-20.0-0.7","SS1604513289695","","null","","","","","","","","","","","","<img src=images/blank.png width =""500"" height = ""500"" style=""border:5px solid black"">","","",""
"","416.79000000294764","stimulus-presentation","231","474082","0.0-20.0-1.7","SS1604513289695","<img src='images/complex/9.png' width ='500' height = '500' style='border:5px solid black'>","40","mixed_simple_deviant","images/complex/17.png","images/complex/9.png","images/simple/18.png,images/simple/5.png,images/simple/3.png,images/simple/13.png,images/simple/7.png,images/simple/14.png,images/simple/9.png","2","null","","200","616.7900000029476","","","","background","",""
"","null","html-keyboard-response","232","474898","0.0-20.0-0.8","SS1604513289695","","null","","","","","","","","","","","","<img src=images/blank.png width =""500"" height = ""500"" style=""border:5px solid black"">","","",""
"","445.02499999362044","stimulus-presentation","233","475555","0.0-20.0-1.8","SS1604513289695","<img src='images/complex/9.png' width ='500' height = '500' style='border:5px solid black'>","40","mixed_simple_deviant","images/complex/17.png","images/complex/9.png","images/simple/18.png,images/simple/5.png,images/simple/3.png,images/simple/13.png,images/simple/7.png,images/simple/14.png,images/simple/9.png","2","null","","200","645.0249999936204","","","","background","",""
"","null","html-keyboard-response","234","476433","0.0-20.0-0.9","SS1604513289695","","null","","","","","","","","","","","","<img src=images/blank.png width =""500"" height = ""500"" style=""border:5px solid black"">","","",""
"","373.7399999954505","stimulus-presentation","235","477019","0.0-20.0-1.9","SS1604513289695","<img src='images/complex/9.png' width ='500' height = '500' style='border:5px solid black'>","40","mixed_simple_deviant","images/complex/17.png","images/complex/9.png","images/simple/18.png,images/simple/5.png,images/simple/3.png,images/simple/13.png,images/simple/7.png,images/simple/14.png,images/simple/9.png","2","null","","200","573.7399999954505","","","","background","",""
"","null","html-keyboard-response","236","477887","0.0-20.0-0.10","SS1604513289695","","null","","","","","","","","","","","","<img src=images/blank.png width =""500"" height = ""500"" style=""border:5px solid black"">","","",""
"","401.3850000046659","stimulus-presentation","237","478500","0.0-20.0-1.10","SS1604513289695","<img src='images/complex/9.png' width ='500' height = '500' style='border:5px solid black'>","40","mixed_simple_deviant","images/complex/17.png","images/complex/9.png","images/simple/18.png,images/simple/5.png,images/simple/3.png,images/simple/13.png,images/simple/7.png,images/simple/14.png,images/simple/9.png","2","null","","200","601.3850000046659","","","","background","",""
"","null","html-keyboard-response","238","479723","0.0-20.0-0.11","SS1604513289695","","null","","","","","","","","","","","","<img src=images/blank.png width =""500"" height = ""500"" style=""border:5px solid black"">","","",""
"","670.3550000092946","stimulus-presentation","239","480606","0.0-20.0-1.11","SS1604513289695","<img src='images/simple/13.png' width ='500' height = '500' style='border:5px solid black'>","40","mixed_simple_deviant","images/complex/17.png","images/complex/9.png","images/simple/18.png,images/simple/5.png,images/simple/3.png,images/simple/13.png,images/simple/7.png,images/simple/14.png,images/simple/9.png","2","null","","200","870.3550000092946","","","","deviant","",""
"","null","html-keyboard-response","240","481687","0.0-20.0-0.12","SS1604513289695","","null","","","","","","","","","","","","<img src=images/blank.png width =""500"" height = ""500"" style=""border:5px solid black"">","","",""
"","1360.2700000046752","stimulus-presentation","241","483258","0.0-20.0-1.12","SS1604513289695","<img src='images/complex/17.png' width ='500' height = '500' style='border:5px solid black'>","40","mixed_simple_deviant","images/complex/17.png","images/complex/9.png","images/simple/18.png,images/simple/5.png,images/simple/3.png,images/simple/13.png,images/simple/7.png,images/simple/14.png,images/simple/9.png","2","null","","200","1560.2700000046752","yes","600.4099999991013","","target","",""
"","null","html-keyboard-response","242","484451","0.0-20.0-0.13","SS1604513289695","","null","","","","","","","","","","","","<img src=images/blank.png width =""500"" height = ""500"" style=""border:5px solid black"">","","",""
"","1604.4750000000931","stimulus-presentation","243","486267","0.0-20.0-1.13","SS1604513289695","<img src='images/complex/17.png' width ='500' height = '500' style='border:5px solid black'>","40","mixed_simple_deviant","images/complex/17.png","images/complex/9.png","images/simple/18.png,images/simple/5.png,images/simple/3.png,images/simple/13.png,images/simple/7.png,images/simple/14.png,images/simple/9.png","2","null","","200","1804.4750000000931","yes","884.5849999925122","","target","",""
"","null","html-keyboard-response","244","487195","0.0-20.0-0.14","SS1604513289695","","null","","","","","","","","","","","","<img src=images/blank.png width =""500"" height = ""500"" style=""border:5px solid black"">","","",""
"","828.8400000019465","stimulus-presentation","245","488236","0.0-20.0-1.14","SS1604513289695","<img src='images/simple/9.png' width ='500' height = '500' style='border:5px solid black'>","40","mixed_simple_deviant","images/complex/17.png","images/complex/9.png","images/simple/18.png,images/simple/5.png,images/simple/3.png,images/simple/13.png,images/simple/7.png,images/simple/14.png,images/simple/9.png","2","null","","200","1028.8400000019465","","","","deviant","",""
"","null","html-keyboard-response","246","489232","0.0-20.0-0.15","SS1604513289695","","null","","","","","","","","","","","","<img src=images/blank.png width =""500"" height = ""500"" style=""border:5px solid black"">","","",""
"","1246.240000007674","stimulus-presentation","247","490690","0.0-20.0-1.15","SS1604513289695","<img src='images/complex/17.png' width ='500' height = '500' style='border:5px solid black'>","40","mixed_simple_deviant","images/complex/17.png","images/complex/9.png","images/simple/18.png,images/simple/5.png,images/simple/3.png,images/simple/13.png,images/simple/7.png,images/simple/14.png,images/simple/9.png","2","null","","200","1446.240000007674","yes","735.8550000062678","","target","",""
"","null","html-keyboard-response","248","491912","0.0-20.0-0.16","SS1604513289695","","null","","","","","","","","","","","","<img src=images/blank.png width =""500"" height = ""500"" style=""border:5px solid black"">","","",""
"","662.5050000002375","stimulus-presentation","249","492787","0.0-20.0-1.16","SS1604513289695","<img src='images/complex/9.png' width ='500' height = '500' style='border:5px solid black'>","40","mixed_simple_deviant","images/complex/17.png","images/complex/9.png","images/simple/18.png,images/simple/5.png,images/simple/3.png,images/simple/13.png,images/simple/7.png,images/simple/14.png,images/simple/9.png","2","null","","200","862.5050000002375","","","","background","",""
"","null","html-keyboard-response","250","494031","0.0-20.0-0.17","SS1604513289695","","null","","","","","","","","","","","","<img src=images/blank.png width =""500"" height = ""500"" style=""border:5px solid black"">","","",""
"","2496.6500000009546","stimulus-presentation","251","496741","0.0-20.0-1.17","SS1604513289695","<img src='images/complex/9.png' width ='500' height = '500' style='border:5px solid black'>","40","mixed_simple_deviant","images/complex/17.png","images/complex/9.png","images/simple/18.png,images/simple/5.png,images/simple/3.png,images/simple/13.png,images/simple/7.png,images/simple/14.png,images/simple/9.png","2","null","","200","2696.6500000009546","","","","background","",""
"","null","html-keyboard-response","252","497777","0.0-20.0-0.18","SS1604513289695","","null","","","","","","","","","","","","<img src=images/blank.png width =""500"" height = ""500"" style=""border:5px solid black"">","","",""
"","5459.024999989197","stimulus-presentation","253","503449","0.0-20.0-1.18","SS1604513289695","<img src='images/complex/9.png' width ='500' height = '500' style='border:5px solid black'>","40","mixed_simple_deviant","images/complex/17.png","images/complex/9.png","images/simple/18.png,images/simple/5.png,images/simple/3.png,images/simple/13.png,images/simple/7.png,images/simple/14.png,images/simple/9.png","2","null","","200","5659.024999989197","","","","background","",""
"","null","html-keyboard-response","254","504285","0.0-20.0-0.19","SS1604513289695","","null","","","","","","","","","","","","<img src=images/blank.png width =""500"" height = ""500"" style=""border:5px solid black"">","","",""
"","264.76499999989755","stimulus-presentation","255","504763","0.0-20.0-1.19","SS1604513289695","<img src='images/complex/9.png' width ='500' height = '500' style='border:5px solid black'>","40","mixed_simple_deviant","images/complex/17.png","images/complex/9.png","images/simple/18.png,images/simple/5.png,images/simple/3.png,images/simple/13.png,images/simple/7.png,images/simple/14.png,images/simple/9.png","2","null","","200","464.76499999989755","","","","background","",""
"","null","html-keyboard-response","256","505802","0.0-20.0-0.20","SS1604513289695","","null","","","","","","","","","","","","<img src=images/blank.png width =""500"" height = ""500"" style=""border:5px solid black"">","","",""
"","387.0699999970384","stimulus-presentation","257","506403","0.0-20.0-1.20","SS1604513289695","<img src='images/complex/9.png' width ='500' height = '500' style='border:5px solid black'>","40","mixed_simple_deviant","images/complex/17.png","images/complex/9.png","images/simple/18.png,images/simple/5.png,images/simple/3.png,images/simple/13.png,images/simple/7.png,images/simple/14.png,images/simple/9.png","2","null","","200","587.0699999970384","","","","background","",""
"","null","html-keyboard-response","258","507490","0.0-20.0-0.21","SS1604513289695","","null","","","","","","","","","","","","<img src=images/blank.png width =""500"" height = ""500"" style=""border:5px solid black"">","","",""
"","287.914999993518","stimulus-presentation","259","507987","0.0-20.0-1.21","SS1604513289695","<img src='images/complex/9.png' width ='500' height = '500' style='border:5px solid black'>","40","mixed_simple_deviant","images/complex/17.png","images/complex/9.png","images/simple/18.png,images/simple/5.png,images/simple/3.png,images/simple/13.png,images/simple/7.png,images/simple/14.png,images/simple/9.png","2","null","","200","487.914999993518","","","","background","",""
"","null","html-keyboard-response","260","509246","0.0-20.0-0.22","SS1604513289695","","null","","","","","","","","","","","","<img src=images/blank.png width =""500"" height = ""500"" style=""border:5px solid black"">","","",""
"","834.6950000122888","stimulus-presentation","261","510307","0.0-20.0-1.22","SS1604513289695","<img src='images/simple/7.png' width ='500' height = '500' style='border:5px solid black'>","40","mixed_simple_deviant","images/complex/17.png","images/complex/9.png","images/simple/18.png,images/simple/5.png,images/simple/3.png,images/simple/13.png,images/simple/7.png,images/simple/14.png,images/simple/9.png","2","null","","200","1034.6950000122888","","","","deviant","",""
"","null","html-keyboard-response","262","511431","0.0-20.0-0.23","SS1604513289695","","null","","","","","","","","","","","","<img src=images/blank.png width =""500"" height = ""500"" style=""border:5px solid black"">","","",""
"","236.0799999878509","stimulus-presentation","263","511882","0.0-20.0-1.23","SS1604513289695","<img src='images/complex/9.png' width ='500' height = '500' style='border:5px solid black'>","40","mixed_simple_deviant","images/complex/17.png","images/complex/9.png","images/simple/18.png,images/simple/5.png,images/simple/3.png,images/simple/13.png,images/simple/7.png,images/simple/14.png,images/simple/9.png","2","null","","200","436.0799999878509","","","","background","",""
"","null","html-keyboard-response","264","512764","0.0-20.0-0.24","SS1604513289695","","null","","","","","","","","","","","","<img src=images/blank.png width =""500"" height = ""500"" style=""border:5px solid black"">","","",""
"","265.41000000725035","stimulus-presentation","265","513243","0.0-20.0-1.24","SS1604513289695","<img src='images/complex/9.png' width ='500' height = '500' style='border:5px solid black'>","40","mixed_simple_deviant","images/complex/17.png","images/complex/9.png","images/simple/18.png,images/simple/5.png,images/simple/3.png,images/simple/13.png,images/simple/7.png,images/simple/14.png,images/simple/9.png","2","null","","200","465.41000000725035","","","","background","",""
"","null","html-keyboard-response","266","514442","0.0-20.0-0.25","SS1604513289695","","null","","","","","","","","","","","","<img src=images/blank.png width =""500"" height = ""500"" style=""border:5px solid black"">","","",""
"","323.26499999908265","stimulus-presentation","267","514980","0.0-20.0-1.25","SS1604513289695","<img src='images/complex/9.png' width ='500' height = '500' style='border:5px solid black'>","40","mixed_simple_deviant","images/complex/17.png","images/complex/9.png","images/simple/18.png,images/simple/5.png,images/simple/3.png,images/simple/13.png,images/simple/7.png,images/simple/14.png,images/simple/9.png","2","null","","200","523.2649999990826","","","","background","",""
"","null","html-keyboard-response","268","515794","0.0-20.0-0.26","SS1604513289695","","null","","","","","","","","","","","","<img src=images/blank.png width =""500"" height = ""500"" style=""border:5px solid black"">","","",""
"","820.305000001099","stimulus-presentation","269","516827","0.0-20.0-1.26","SS1604513289695","<img src='images/simple/18.png' width ='500' height = '500' style='border:5px solid black'>","40","mixed_simple_deviant","images/complex/17.png","images/complex/9.png","images/simple/18.png,images/simple/5.png,images/simple/3.png,images/simple/13.png,images/simple/7.png,images/simple/14.png,images/simple/9.png","2","null","","200","1020.305000001099","","","","deviant","",""
"","null","html-keyboard-response","270","517796","0.0-20.0-0.27","SS1604513289695","","null","","","","","","","","","","","","<img src=images/blank.png width =""500"" height = ""500"" style=""border:5px solid black"">","","",""
"","243.0199999944307","stimulus-presentation","271","518251","0.0-20.0-1.27","SS1604513289695","<img src='images/complex/9.png' width ='500' height = '500' style='border:5px solid black'>","40","mixed_simple_deviant","images/complex/17.png","images/complex/9.png","images/simple/18.png,images/simple/5.png,images/simple/3.png,images/simple/13.png,images/simple/7.png,images/simple/14.png,images/simple/9.png","2","null","","200","443.0199999944307","","","","background","",""
"","null","html-keyboard-response","272","519484","0.0-20.0-0.28","SS1604513289695","","null","","","","","","","","","","","","<img src=images/blank.png width =""500"" height = ""500"" style=""border:5px solid black"">","","",""
"","2058.7700000032783","stimulus-presentation","273","521754","0.0-20.0-1.28","SS1604513289695","<img src='images/complex/17.png' width ='500' height = '500' style='border:5px solid black'>","40","mixed_simple_deviant","images/complex/17.png","images/complex/9.png","images/simple/18.png,images/simple/5.png,images/simple/3.png,images/simple/13.png,images/simple/7.png,images/simple/14.png,images/simple/9.png","2","null","","200","2258.7700000032783","yes","1354.8100000043632","","target","",""
"","null","html-keyboard-response","274","522660","0.0-20.0-0.29","SS1604513289695","","null","","","","","","","","","","","","<img src=images/blank.png width =""500"" height = ""500"" style=""border:5px solid black"">","","",""
"","236.69999999401625","stimulus-presentation","275","523106","0.0-20.0-1.29","SS1604513289695","<img src='images/complex/9.png' width ='500' height = '500' style='border:5px solid black'>","40","mixed_simple_deviant","images/complex/17.png","images/complex/9.png","images/simple/18.png,images/simple/5.png,images/simple/3.png,images/simple/13.png,images/simple/7.png,images/simple/14.png,images/simple/9.png","2","null","","200","436.69999999401625","","","","background","",""
"","null","html-keyboard-response","276","524020","0.0-20.0-0.30","SS1604513289695","","null","","","","","","","","","","","","<img src=images/blank.png width =""500"" height = ""500"" style=""border:5px solid black"">","","",""
"","1650.7199999905424","stimulus-presentation","277","525882","0.0-20.0-1.30","SS1604513289695","<img src='images/complex/17.png' width ='500' height = '500' style='border:5px solid black'>","40","mixed_simple_deviant","images/complex/17.png","images/complex/9.png","images/simple/18.png,images/simple/5.png,images/simple/3.png,images/simple/13.png,images/simple/7.png,images/simple/14.png,images/simple/9.png","2","null","","200","1850.7199999905424","yes","1124.469999995199","","target","",""
"","null","html-keyboard-response","278","527022","0.0-20.0-0.31","SS1604513289695","","null","","","","","","","","","","","","<img src=images/blank.png width =""500"" height = ""500"" style=""border:5px solid black"">","","",""
"","471.7149999924004","stimulus-presentation","279","527706","0.0-20.0-1.31","SS1604513289695","<img src='images/complex/9.png' width ='500' height = '500' style='border:5px solid black'>","40","mixed_simple_deviant","images/complex/17.png","images/complex/9.png","images/simple/18.png,images/simple/5.png,images/simple/3.png,images/simple/13.png,images/simple/7.png,images/simple/14.png,images/simple/9.png","2","null","","200","671.7149999924004","","","","background","",""
"","null","html-keyboard-response","280","528856","0.0-20.0-0.32","SS1604513289695","","null","","","","","","","","","","","","<img src=images/blank.png width =""500"" height = ""500"" style=""border:5px solid black"">","","",""
"","580.5399999953806","stimulus-presentation","281","529650","0.0-20.0-1.32","SS1604513289695","<img src='images/complex/9.png' width ='500' height = '500' style='border:5px solid black'>","40","mixed_simple_deviant","images/complex/17.png","images/complex/9.png","images/simple/18.png,images/simple/5.png,images/simple/3.png,images/simple/13.png,images/simple/7.png,images/simple/14.png,images/simple/9.png","2","null","","200","780.5399999953806","","","","background","",""
"","null","html-keyboard-response","282","530692","0.0-20.0-0.33","SS1604513289695","","null","","","","","","","","","","","","<img src=images/blank.png width =""500"" height = ""500"" style=""border:5px solid black"">","","",""
