"view_history","rt","trial_type","trial_index","time_elapsed","internal_node_id","subject","trial_stimulus","key_press","task_type","task_target_stimulus","task_background_stimulus","task_deviant_stimuli","task_order_number","block_order_number","trial_order_number","minimum_viewing_duration","trial_looking_time","trial_pressed_space_bar","trial_space_bar_rt","stimulus","trial_stimulus_type","responses","question_order"
"[{""page_index"":0,""viewing_time"":10190.01999986358}]","10190.65499980934","instructions","0","10208","0.0-0.0","SS1604513259197","","","","","","","","","","","","","","","","",""
"[{""page_index"":0,""viewing_time"":6040.879999985918},{""page_index"":1,""viewing_time"":5790.259999921545},{""page_index"":2,""viewing_time"":5773.920000065118},{""page_index"":3,""viewing_time"":198510.0149998907},{""page_index"":4,""viewing_time"":10459.444999927655},{""page_index"":5,""viewing_time"":8476.560000097379},{""page_index"":6,""viewing_time"":4363.640000112355},{""page_index"":7,""viewing_time"":6910.454999888316},{""page_index"":8,""viewing_time"":2035.924999974668}]","248361.42500001006","instructions","1","258570","0.0-1.0","SS1604513259197","","","","","","","","","","","","","","","","",""
"[{""page_index"":0,""viewing_time"":8942.825000034645},{""page_index"":1,""viewing_time"":10407.064999919385},{""page_index"":2,""viewing_time"":2022.690000012517}]","21372.725000139326","instructions","2","279944","0.0-2.0","SS1604513259197","","","","","","","","","","","","","","","","",""
"","2219.4699998945","practice-block","3","282367","0.0-3.0","SS1604513259197","<img src='images/practice/practice_background.jpeg' width ='500' height = '500' style='border:5px solid black'>","40","null","images/practice/practice_target.jpg","null","null","null","null","","200","2419.4699998945","","","","","",""
"","null","html-keyboard-response","4","283294","0.0-4.0","SS1604513259197","","null","","","","","","","","","","","","<img src=images/blank.png width =""500"" height = ""500"" style=""border:5px solid black"">","","",""
"","998.505000025034","practice-block","5","284494","0.0-5.0","SS1604513259197","<img src='images/practice/practice_background.jpeg' width ='500' height = '500' style='border:5px solid black'>","40","null","images/practice/practice_target.jpg","null","null","null","null","","200","1198.505000025034","","","","","",""
"","null","html-keyboard-response","6","285488","0.0-6.0","SS1604513259197","","null","","","","","","","","","","","","<img src=images/blank.png width =""500"" height = ""500"" style=""border:5px solid black"">","","",""
"","387.6000000163913","practice-block","7","286078","0.0-7.0","SS1604513259197","<img src='images/practice/practice_deviant.jpeg' width ='500' height = '500' style='border:5px solid black'>","40","null","images/practice/practice_target.jpg","null","null","null","null","","200","587.6000000163913","","","","","",""
"","null","html-keyboard-response","8","287328","0.0-8.0","SS1604513259197","","null","","","","","","","","","","","","<img src=images/blank.png width =""500"" height = ""500"" style=""border:5px solid black"">","","",""
"","4627.975000068545","practice-block","9","292159","0.0-9.0-0.0","SS1604513259197","<img src='images/practice/practice_target.jpg' width ='500' height = '500' style='border:5px solid black'>","40","null","images/practice/practice_target.jpg","null","null","null","null","","200","4827.975000068545","yes","772.3950000945479","","","",""
"","null","html-keyboard-response","10","293339","0.0-10.0","SS1604513259197","","null","","","","","","","","","","","","<img src=images/blank.png width =""500"" height = ""500"" style=""border:5px solid black"">","","",""
"","1465.0149999652058","practice-block","11","295006","0.0-11.0","SS1604513259197","<img src='images/practice/practice_background.jpeg' width ='500' height = '500' style='border:5px solid black'>","40","null","images/practice/practice_target.jpg","null","null","null","null","","200","1665.0149999652058","","","","","",""
"[{""page_index"":0,""viewing_time"":3855}]","3855","task-instructions","12","298863","0.0-12.0","SS1604513259197","","","","","","","","","","","","","","","","",""
"[{""page_index"":0,""viewing_time"":4623.420000076294},{""page_index"":1,""viewing_time"":10616.759999888018},{""page_index"":2,""viewing_time"":1854.174999985844}]","17094.590000109747","instructions","13","315960","0.0-13.0","SS1604513259197","","","","","","","","","","","","","","","","",""
"","null","html-keyboard-response","14","316791","0.0-14.0-0.0","SS1604513259197","","null","","","","","","","","","","","","<img src=images/blank.png width =""500"" height = ""500"" style=""border:5px solid black"">","","",""
"","940.5450001358986","stimulus-presentation","15","317935","0.0-14.0-1.0","SS1604513259197","<img src='images/complex/5.png' width ='500' height = '500' style='border:5px solid black'>","40","all_complex","images/complex/15.png","images/complex/5.png","images/complex/17.png,images/complex/4.png,images/complex/12.png,images/complex/2.png,images/complex/14.png,images/complex/16.png,images/complex/1.png","0","null","","200","1140.5450001358986","","","","background","",""
"","null","html-keyboard-response","16","318762","0.0-14.0-0.1","SS1604513259197","","null","","","","","","","","","","","","<img src=images/blank.png width =""500"" height = ""500"" style=""border:5px solid black"">","","",""
"","233.6200000718236","stimulus-presentation","17","319199","0.0-14.0-1.1","SS1604513259197","<img src='images/complex/5.png' width ='500' height = '500' style='border:5px solid black'>","40","all_complex","images/complex/15.png","images/complex/5.png","images/complex/17.png,images/complex/4.png,images/complex/12.png,images/complex/2.png,images/complex/14.png,images/complex/16.png,images/complex/1.png","0","null","","200","433.6200000718236","","","","background","",""
"","null","html-keyboard-response","18","320008","0.0-14.0-0.2","SS1604513259197","","null","","","","","","","","","","","","<img src=images/blank.png width =""500"" height = ""500"" style=""border:5px solid black"">","","",""
"","211.32000000216067","stimulus-presentation","19","320422","0.0-14.0-1.2","SS1604513259197","<img src='images/complex/5.png' width ='500' height = '500' style='border:5px solid black'>","40","all_complex","images/complex/15.png","images/complex/5.png","images/complex/17.png,images/complex/4.png,images/complex/12.png,images/complex/2.png,images/complex/14.png,images/complex/16.png,images/complex/1.png","0","null","","200","411.32000000216067","","","","background","",""
"","null","html-keyboard-response","20","321454","0.0-14.0-0.3","SS1604513259197","","null","","","","","","","","","","","","<img src=images/blank.png width =""500"" height = ""500"" style=""border:5px solid black"">","","",""
"","430.750000057742","stimulus-presentation","21","322087","0.0-14.0-1.3","SS1604513259197","<img src='images/complex/14.png' width ='500' height = '500' style='border:5px solid black'>","40","all_complex","images/complex/15.png","images/complex/5.png","images/complex/17.png,images/complex/4.png,images/complex/12.png,images/complex/2.png,images/complex/14.png,images/complex/16.png,images/complex/1.png","0","null","","200","630.750000057742","","","","deviant","",""
"","null","html-keyboard-response","22","323337","0.0-14.0-0.4","SS1604513259197","","null","","","","","","","","","","","","<img src=images/blank.png width =""500"" height = ""500"" style=""border:5px solid black"">","","",""
"","273.24000000953674","stimulus-presentation","23","323815","0.0-14.0-1.4","SS1604513259197","<img src='images/complex/5.png' width ='500' height = '500' style='border:5px solid black'>","40","all_complex","images/complex/15.png","images/complex/5.png","images/complex/17.png,images/complex/4.png,images/complex/12.png,images/complex/2.png,images/complex/14.png,images/complex/16.png,images/complex/1.png","0","null","","200","473.24000000953674","","","","background","",""
"","null","html-keyboard-response","24","325078","0.0-14.0-0.5","SS1604513259197","","null","","","","","","","","","","","","<img src=images/blank.png width =""500"" height = ""500"" style=""border:5px solid black"">","","",""
"","246.69499997980893","stimulus-presentation","25","325527","0.0-14.0-1.5","SS1604513259197","<img src='images/complex/5.png' width ='500' height = '500' style='border:5px solid black'>","40","all_complex","images/complex/15.png","images/complex/5.png","images/complex/17.png,images/complex/4.png,images/complex/12.png,images/complex/2.png,images/complex/14.png,images/complex/16.png,images/complex/1.png","0","null","","200","446.6949999798089","","","","background","",""
"","null","html-keyboard-response","26","326434","0.0-14.0-0.6","SS1604513259197","","null","","","","","","","","","","","","<img src=images/blank.png width =""500"" height = ""500"" style=""border:5px solid black"">","","",""
"","2977.509999880567","stimulus-presentation","27","329614","0.0-14.0-1.6","SS1604513259197","<img src='images/complex/15.png' width ='500' height = '500' style='border:5px solid black'>","40","all_complex","images/complex/15.png","images/complex/5.png","images/complex/17.png,images/complex/4.png,images/complex/12.png,images/complex/2.png,images/complex/14.png,images/complex/16.png,images/complex/1.png","0","null","","200","3177.509999880567","","","","target","",""
"","null","html-keyboard-response","28","330743","0.0-14.0-0.7","SS1604513259197","","null","","","","","","","","","","","","<img src=images/blank.png width =""500"" height = ""500"" style=""border:5px solid black"">","","",""
"","283.57500000856817","stimulus-presentation","29","331231","0.0-14.0-1.7","SS1604513259197","<img src='images/complex/5.png' width ='500' height = '500' style='border:5px solid black'>","40","all_complex","images/complex/15.png","images/complex/5.png","images/complex/17.png,images/complex/4.png,images/complex/12.png,images/complex/2.png,images/complex/14.png,images/complex/16.png,images/complex/1.png","0","null","","200","483.57500000856817","","","","background","",""
"","null","html-keyboard-response","30","332091","0.0-14.0-0.8","SS1604513259197","","null","","","","","","","","","","","","<img src=images/blank.png width =""500"" height = ""500"" style=""border:5px solid black"">","","",""
"","440.849999897182","stimulus-presentation","31","332736","0.0-14.0-1.8","SS1604513259197","<img src='images/complex/5.png' width ='500' height = '500' style='border:5px solid black'>","40","all_complex","images/complex/15.png","images/complex/5.png","images/complex/17.png,images/complex/4.png,images/complex/12.png,images/complex/2.png,images/complex/14.png,images/complex/16.png,images/complex/1.png","0","null","","200","640.849999897182","","","","background","",""
"","null","html-keyboard-response","32","333662","0.0-14.0-0.9","SS1604513259197","","null","","","","","","","","","","","","<img src=images/blank.png width =""500"" height = ""500"" style=""border:5px solid black"">","","",""
"","2261.8299999739975","stimulus-presentation","33","336127","0.0-14.0-1.9","SS1604513259197","<img src='images/complex/15.png' width ='500' height = '500' style='border:5px solid black'>","40","all_complex","images/complex/15.png","images/complex/5.png","images/complex/17.png,images/complex/4.png,images/complex/12.png,images/complex/2.png,images/complex/14.png,images/complex/16.png,images/complex/1.png","0","null","","200","2461.8299999739975","yes","797.6849998813123","","target","",""
"","null","html-keyboard-response","34","337129","0.0-14.0-0.10","SS1604513259197","","null","","","","","","","","","","","","<img src=images/blank.png width =""500"" height = ""500"" style=""border:5px solid black"">","","",""
"","249.68500016257167","stimulus-presentation","35","337583","0.0-14.0-1.10","SS1604513259197","<img src='images/complex/5.png' width ='500' height = '500' style='border:5px solid black'>","40","all_complex","images/complex/15.png","images/complex/5.png","images/complex/17.png,images/complex/4.png,images/complex/12.png,images/complex/2.png,images/complex/14.png,images/complex/16.png,images/complex/1.png","0","null","","200","449.68500016257167","","","","background","",""
"","null","html-keyboard-response","36","338868","0.0-14.0-0.11","SS1604513259197","","null","","","","","","","","","","","","<img src=images/blank.png width =""500"" height = ""500"" style=""border:5px solid black"">","","",""
"","166.62000003270805","stimulus-presentation","37","339238","0.0-14.0-1.11","SS1604513259197","<img src='images/complex/5.png' width ='500' height = '500' style='border:5px solid black'>","40","all_complex","images/complex/15.png","images/complex/5.png","images/complex/17.png,images/complex/4.png,images/complex/12.png,images/complex/2.png,images/complex/14.png,images/complex/16.png,images/complex/1.png","0","null","","200","366.62000003270805","","","","background","",""
"","null","html-keyboard-response","38","340313","0.0-14.0-0.12","SS1604513259197","","null","","","","","","","","","","","","<img src=images/blank.png width =""500"" height = ""500"" style=""border:5px solid black"">","","",""
"","208.52999994531274","stimulus-presentation","39","340726","0.0-14.0-1.12","SS1604513259197","<img src='images/complex/5.png' width ='500' height = '500' style='border:5px solid black'>","40","all_complex","images/complex/15.png","images/complex/5.png","images/complex/17.png,images/complex/4.png,images/complex/12.png,images/complex/2.png,images/complex/14.png,images/complex/16.png,images/complex/1.png","0","null","","200","408.52999994531274","","","","background","",""
"","null","html-keyboard-response","40","341969","0.0-14.0-0.13","SS1604513259197","","null","","","","","","","","","","","","<img src=images/blank.png width =""500"" height = ""500"" style=""border:5px solid black"">","","",""
"","449.6999999973923","stimulus-presentation","41","342622","0.0-14.0-1.13","SS1604513259197","<img src='images/complex/16.png' width ='500' height = '500' style='border:5px solid black'>","40","all_complex","images/complex/15.png","images/complex/5.png","images/complex/17.png,images/complex/4.png,images/complex/12.png,images/complex/2.png,images/complex/14.png,images/complex/16.png,images/complex/1.png","0","null","","200","649.6999999973923","","","","deviant","",""
"","null","html-keyboard-response","42","343507","0.0-14.0-0.14","SS1604513259197","","null","","","","","","","","","","","","<img src=images/blank.png width =""500"" height = ""500"" style=""border:5px solid black"">","","",""
"","142.84500014036894","stimulus-presentation","43","343855","0.0-14.0-1.14","SS1604513259197","<img src='images/complex/5.png' width ='500' height = '500' style='border:5px solid black'>","40","all_complex","images/complex/15.png","images/complex/5.png","images/complex/17.png,images/complex/4.png,images/complex/12.png,images/complex/2.png,images/complex/14.png,images/complex/16.png,images/complex/1.png","0","null","","200","342.84500014036894","","","","background","",""
"","null","html-keyboard-response","44","344797","0.0-14.0-0.15","SS1604513259197","","null","","","","","","","","","","","","<img src=images/blank.png width =""500"" height = ""500"" style=""border:5px solid black"">","","",""
"","142.76499999687076","stimulus-presentation","45","345143","0.0-14.0-1.15","SS1604513259197","<img src='images/complex/5.png' width ='500' height = '500' style='border:5px solid black'>","40","all_complex","images/complex/15.png","images/complex/5.png","images/complex/17.png,images/complex/4.png,images/complex/12.png,images/complex/2.png,images/complex/14.png,images/complex/16.png,images/complex/1.png","0","null","","200","342.76499999687076","","","","background","",""
"","null","html-keyboard-response","46","346096","0.0-14.0-0.16","SS1604513259197","","null","","","","","","","","","","","","<img src=images/blank.png width =""500"" height = ""500"" style=""border:5px solid black"">","","",""
"","219.47499993257225","stimulus-presentation","47","346519","0.0-14.0-1.16","SS1604513259197","<img src='images/complex/5.png' width ='500' height = '500' style='border:5px solid black'>","40","all_complex","images/complex/15.png","images/complex/5.png","images/complex/17.png,images/complex/4.png,images/complex/12.png,images/complex/2.png,images/complex/14.png,images/complex/16.png,images/complex/1.png","0","null","","200","419.47499993257225","","","","background","",""
"","null","html-keyboard-response","48","347700","0.0-14.0-0.17","SS1604513259197","","null","","","","","","","","","","","","<img src=images/blank.png width =""500"" height = ""500"" style=""border:5px solid black"">","","",""
"","127.38499999977648","stimulus-presentation","49","348031","0.0-14.0-1.17","SS1604513259197","<img src='images/complex/5.png' width ='500' height = '500' style='border:5px solid black'>","40","all_complex","images/complex/15.png","images/complex/5.png","images/complex/17.png,images/complex/4.png,images/complex/12.png,images/complex/2.png,images/complex/14.png,images/complex/16.png,images/complex/1.png","0","null","","200","327.3849999997765","","","","background","",""
"","null","html-keyboard-response","50","349160","0.0-14.0-0.18","SS1604513259197","","null","","","","","","","","","","","","<img src=images/blank.png width =""500"" height = ""500"" style=""border:5px solid black"">","","",""
"","161.77499992772937","stimulus-presentation","51","349527","0.0-14.0-1.18","SS1604513259197","<img src='images/complex/5.png' width ='500' height = '500' style='border:5px solid black'>","40","all_complex","images/complex/15.png","images/complex/5.png","images/complex/17.png,images/complex/4.png,images/complex/12.png,images/complex/2.png,images/complex/14.png,images/complex/16.png,images/complex/1.png","0","null","","200","361.77499992772937","","","","background","",""
"","null","html-keyboard-response","52","350778","0.0-14.0-0.19","SS1604513259197","","null","","","","","","","","","","","","<img src=images/blank.png width =""500"" height = ""500"" style=""border:5px solid black"">","","",""
"","488.4949999395758","stimulus-presentation","53","351471","0.0-14.0-1.19","SS1604513259197","<img src='images/complex/12.png' width ='500' height = '500' style='border:5px solid black'>","40","all_complex","images/complex/15.png","images/complex/5.png","images/complex/17.png,images/complex/4.png,images/complex/12.png,images/complex/2.png,images/complex/14.png,images/complex/16.png,images/complex/1.png","0","null","","200","688.4949999395758","","","","deviant","",""
"","null","html-keyboard-response","54","352640","0.0-14.0-0.20","SS1604513259197","","null","","","","","","","","","","","","<img src=images/blank.png width =""500"" height = ""500"" style=""border:5px solid black"">","","",""
"","169.3600001744926","stimulus-presentation","55","353015","0.0-14.0-1.20","SS1604513259197","<img src='images/complex/5.png' width ='500' height = '500' style='border:5px solid black'>","40","all_complex","images/complex/15.png","images/complex/5.png","images/complex/17.png,images/complex/4.png,images/complex/12.png,images/complex/2.png,images/complex/14.png,images/complex/16.png,images/complex/1.png","0","null","","200","369.3600001744926","","","","background","",""
"","null","html-keyboard-response","56","354285","0.0-14.0-0.21","SS1604513259197","","null","","","","","","","","","","","","<img src=images/blank.png width =""500"" height = ""500"" style=""border:5px solid black"">","","",""
"","1451.969999819994","stimulus-presentation","57","355943","0.0-14.0-1.21","SS1604513259197","<img src='images/complex/15.png' width ='500' height = '500' style='border:5px solid black'>","40","all_complex","images/complex/15.png","images/complex/5.png","images/complex/17.png,images/complex/4.png,images/complex/12.png,images/complex/2.png,images/complex/14.png,images/complex/16.png,images/complex/1.png","0","null","","200","1651.969999819994","yes","705.2449998445809","","target","",""
"","null","html-keyboard-response","58","357090","0.0-14.0-0.22","SS1604513259197","","null","","","","","","","","","","","","<img src=images/blank.png width =""500"" height = ""500"" style=""border:5px solid black"">","","",""
"","168.21000003255904","stimulus-presentation","59","357463","0.0-14.0-1.22","SS1604513259197","<img src='images/complex/5.png' width ='500' height = '500' style='border:5px solid black'>","40","all_complex","images/complex/15.png","images/complex/5.png","images/complex/17.png,images/complex/4.png,images/complex/12.png,images/complex/2.png,images/complex/14.png,images/complex/16.png,images/complex/1.png","0","null","","200","368.21000003255904","","","","background","",""
"","null","html-keyboard-response","60","358647","0.0-14.0-0.23","SS1604513259197","","null","","","","","","","","","","","","<img src=images/blank.png width =""500"" height = ""500"" style=""border:5px solid black"">","","",""
"","116.41000001691282","stimulus-presentation","61","358967","0.0-14.0-1.23","SS1604513259197","<img src='images/complex/5.png' width ='500' height = '500' style='border:5px solid black'>","40","all_complex","images/complex/15.png","images/complex/5.png","images/complex/17.png,images/complex/4.png,images/complex/12.png,images/complex/2.png,images/complex/14.png,images/complex/16.png,images/complex/1.png","0","null","","200","316.4100000169128","","","","background","",""
"","null","html-keyboard-response","62","360069","0.0-14.0-0.24","SS1604513259197","","null","","","","","","","","","","","","<img src=images/blank.png width =""500"" height = ""500"" style=""border:5px solid black"">","","",""
"","548.2350001111627","stimulus-presentation","63","360822","0.0-14.0-1.24","SS1604513259197","<img src='images/complex/4.png' width ='500' height = '500' style='border:5px solid black'>","40","all_complex","images/complex/15.png","images/complex/5.png","images/complex/17.png,images/complex/4.png,images/complex/12.png,images/complex/2.png,images/complex/14.png,images/complex/16.png,images/complex/1.png","0","null","","200","748.2350001111627","","","","deviant","",""
"","null","html-keyboard-response","64","361667","0.0-14.0-0.25","SS1604513259197","","null","","","","","","","","","","","","<img src=images/blank.png width =""500"" height = ""500"" style=""border:5px solid black"">","","",""
"","1566.4049999322742","stimulus-presentation","65","363439","0.0-14.0-1.25","SS1604513259197","<img src='images/complex/15.png' width ='500' height = '500' style='border:5px solid black'>","40","all_complex","images/complex/15.png","images/complex/5.png","images/complex/17.png,images/complex/4.png,images/complex/12.png,images/complex/2.png,images/complex/14.png,images/complex/16.png,images/complex/1.png","0","null","","200","1766.4049999322742","yes","662.5449999701232","","target","",""
"","null","html-keyboard-response","66","364740","0.0-14.0-0.26","SS1604513259197","","null","","","","","","","","","","","","<img src=images/blank.png width =""500"" height = ""500"" style=""border:5px solid black"">","","",""
"","215.1700002141297","stimulus-presentation","67","365160","0.0-14.0-1.26","SS1604513259197","<img src='images/complex/5.png' width ='500' height = '500' style='border:5px solid black'>","40","all_complex","images/complex/15.png","images/complex/5.png","images/complex/17.png,images/complex/4.png,images/complex/12.png,images/complex/2.png,images/complex/14.png,images/complex/16.png,images/complex/1.png","0","null","","200","415.1700002141297","","","","background","",""
"","null","html-keyboard-response","68","366269","0.0-14.0-0.27","SS1604513259197","","null","","","","","","","","","","","","<img src=images/blank.png width =""500"" height = ""500"" style=""border:5px solid black"">","","",""
"","117.61499987915158","stimulus-presentation","69","366591","0.0-14.0-1.27","SS1604513259197","<img src='images/complex/5.png' width ='500' height = '500' style='border:5px solid black'>","40","all_complex","images/complex/15.png","images/complex/5.png","images/complex/17.png,images/complex/4.png,images/complex/12.png,images/complex/2.png,images/complex/14.png,images/complex/16.png,images/complex/1.png","0","null","","200","317.6149998791516","","","","background","",""
"","null","html-keyboard-response","70","367399","0.0-14.0-0.28","SS1604513259197","","null","","","","","","","","","","","","<img src=images/blank.png width =""500"" height = ""500"" style=""border:5px solid black"">","","",""
"","211.39500010758638","stimulus-presentation","71","367815","0.0-14.0-1.28","SS1604513259197","<img src='images/complex/5.png' width ='500' height = '500' style='border:5px solid black'>","40","all_complex","images/complex/15.png","images/complex/5.png","images/complex/17.png,images/complex/4.png,images/complex/12.png,images/complex/2.png,images/complex/14.png,images/complex/16.png,images/complex/1.png","0","null","","200","411.3950001075864","","","","background","",""
"","null","html-keyboard-response","72","368892","0.0-14.0-0.29","SS1604513259197","","null","","","","","","","","","","","","<img src=images/blank.png width =""500"" height = ""500"" style=""border:5px solid black"">","","",""
"","126.87000003643334","stimulus-presentation","73","369223","0.0-14.0-1.29","SS1604513259197","<img src='images/complex/5.png' width ='500' height = '500' style='border:5px solid black'>","40","all_complex","images/complex/15.png","images/complex/5.png","images/complex/17.png,images/complex/4.png,images/complex/12.png,images/complex/2.png,images/complex/14.png,images/complex/16.png,images/complex/1.png","0","null","","200","326.87000003643334","","","","background","",""
"","null","html-keyboard-response","74","370467","0.0-14.0-0.30","SS1604513259197","","null","","","","","","","","","","","","<img src=images/blank.png width =""500"" height = ""500"" style=""border:5px solid black"">","","",""
"","78.96000007167459","stimulus-presentation","75","370751","0.0-14.0-1.30","SS1604513259197","<img src='images/complex/5.png' width ='500' height = '500' style='border:5px solid black'>","40","all_complex","images/complex/15.png","images/complex/5.png","images/complex/17.png,images/complex/4.png,images/complex/12.png,images/complex/2.png,images/complex/14.png,images/complex/16.png,images/complex/1.png","0","null","","200","278.9600000716746","","","","background","",""
"","null","html-keyboard-response","76","372055","0.0-14.0-0.31","SS1604513259197","","null","","","","","","","","","","","","<img src=images/blank.png width =""500"" height = ""500"" style=""border:5px solid black"">","","",""
"","73.24500009417534","stimulus-presentation","77","372334","0.0-14.0-1.31","SS1604513259197","<img src='images/complex/5.png' width ='500' height = '500' style='border:5px solid black'>","40","all_complex","images/complex/15.png","images/complex/5.png","images/complex/17.png,images/complex/4.png,images/complex/12.png,images/complex/2.png,images/complex/14.png,images/complex/16.png,images/complex/1.png","0","null","","200","273.24500009417534","","","","background","",""
"","null","html-keyboard-response","78","373576","0.0-14.0-0.32","SS1604513259197","","null","","","","","","","","","","","","<img src=images/blank.png width =""500"" height = ""500"" style=""border:5px solid black"">","","",""
"","89.10500002093613","stimulus-presentation","79","373871","0.0-14.0-1.32","SS1604513259197","<img src='images/complex/1.png' width ='500' height = '500' style='border:5px solid black'>","40","all_complex","images/complex/15.png","images/complex/5.png","images/complex/17.png,images/complex/4.png,images/complex/12.png,images/complex/2.png,images/complex/14.png,images/complex/16.png,images/complex/1.png","0","null","","200","289.10500002093613","","","","deviant","",""
"","null","html-keyboard-response","80","375170","0.0-14.0-0.33","SS1604513259197","","null","","","","","","","","","","","","<img src=images/blank.png width =""500"" height = ""500"" style=""border:5px solid black"">","","",""
"","144.26500000990927","stimulus-presentation","81","375519","0.0-14.0-1.33","SS1604513259197","<img src='images/complex/5.png' width ='500' height = '500' style='border:5px solid black'>","40","all_complex","images/complex/15.png","images/complex/5.png","images/complex/17.png,images/complex/4.png,images/complex/12.png,images/complex/2.png,images/complex/14.png,images/complex/16.png,images/complex/1.png","0","null","","200","344.2650000099093","","","","background","",""
"","null","html-keyboard-response","82","376737","0.0-14.0-0.34","SS1604513259197","","null","","","","","","","","","","","","<img src=images/blank.png width =""500"" height = ""500"" style=""border:5px solid black"">","","",""
"","186.05499994009733","stimulus-presentation","83","377127","0.0-14.0-1.34","SS1604513259197","<img src='images/complex/5.png' width ='500' height = '500' style='border:5px solid black'>","40","all_complex","images/complex/15.png","images/complex/5.png","images/complex/17.png,images/complex/4.png,images/complex/12.png,images/complex/2.png,images/complex/14.png,images/complex/16.png,images/complex/1.png","0","null","","200","386.05499994009733","","","","background","",""
"","null","html-keyboard-response","84","377973","0.0-14.0-0.35","SS1604513259197","","null","","","","","","","","","","","","<img src=images/blank.png width =""500"" height = ""500"" style=""border:5px solid black"">","","",""
"","1307.7000000048429","stimulus-presentation","85","379486","0.0-14.0-1.35","SS1604513259197","<img src='images/complex/15.png' width ='500' height = '500' style='border:5px solid black'>","40","all_complex","images/complex/15.png","images/complex/5.png","images/complex/17.png,images/complex/4.png,images/complex/12.png,images/complex/2.png,images/complex/14.png,images/complex/16.png,images/complex/1.png","0","null","","200","1507.7000000048429","yes","484.3250000849366","","target","",""
"","null","html-keyboard-response","86","380459","0.0-14.0-0.36","SS1604513259197","","null","","","","","","","","","","","","<img src=images/blank.png width =""500"" height = ""500"" style=""border:5px solid black"">","","",""
"","421.77000013180077","stimulus-presentation","87","381087","0.0-14.0-1.36","SS1604513259197","<img src='images/complex/17.png' width ='500' height = '500' style='border:5px solid black'>","40","all_complex","images/complex/15.png","images/complex/5.png","images/complex/17.png,images/complex/4.png,images/complex/12.png,images/complex/2.png,images/complex/14.png,images/complex/16.png,images/complex/1.png","0","null","","200","621.7700001318008","","","","deviant","",""
"","null","html-keyboard-response","88","381924","0.0-14.0-0.37","SS1604513259197","","null","","","","","","","","","","","","<img src=images/blank.png width =""500"" height = ""500"" style=""border:5px solid black"">","","",""
"","307.49500007368624","stimulus-presentation","89","382438","0.0-14.0-1.37","SS1604513259197","<img src='images/complex/5.png' width ='500' height = '500' style='border:5px solid black'>","40","all_complex","images/complex/15.png","images/complex/5.png","images/complex/17.png,images/complex/4.png,images/complex/12.png,images/complex/2.png,images/complex/14.png,images/complex/16.png,images/complex/1.png","0","null","","200","507.49500007368624","","","","background","",""
"","null","html-keyboard-response","90","383740","0.0-14.0-0.38","SS1604513259197","","null","","","","","","","","","","","","<img src=images/blank.png width =""500"" height = ""500"" style=""border:5px solid black"">","","",""
"","115.92500004917383","stimulus-presentation","91","384062","0.0-14.0-1.38","SS1604513259197","<img src='images/complex/5.png' width ='500' height = '500' style='border:5px solid black'>","40","all_complex","images/complex/15.png","images/complex/5.png","images/complex/17.png,images/complex/4.png,images/complex/12.png,images/complex/2.png,images/complex/14.png,images/complex/16.png,images/complex/1.png","0","null","","200","315.92500004917383","","","","background","",""
"","null","html-keyboard-response","92","384880","0.0-14.0-0.39","SS1604513259197","","null","","","","","","","","","","","","<img src=images/blank.png width =""500"" height = ""500"" style=""border:5px solid black"">","","",""
"","326.0900001041591","stimulus-presentation","93","385412","0.0-14.0-1.39","SS1604513259197","<img src='images/complex/5.png' width ='500' height = '500' style='border:5px solid black'>","40","all_complex","images/complex/15.png","images/complex/5.png","images/complex/17.png,images/complex/4.png,images/complex/12.png,images/complex/2.png,images/complex/14.png,images/complex/16.png,images/complex/1.png","0","null","","200","526.0900001041591","","","","background","",""
"","null","html-keyboard-response","94","386590","0.0-14.0-0.40","SS1604513259197","","null","","","","","","","","","","","","<img src=images/blank.png width =""500"" height = ""500"" style=""border:5px solid black"">","","",""
"","1411.9500000961125","stimulus-presentation","95","388207","0.0-14.0-1.40","SS1604513259197","<img src='images/complex/15.png' width ='500' height = '500' style='border:5px solid black'>","40","all_complex","images/complex/15.png","images/complex/5.png","images/complex/17.png,images/complex/4.png,images/complex/12.png,images/complex/2.png,images/complex/14.png,images/complex/16.png,images/complex/1.png","0","null","","200","1611.9500000961125","yes","466.7650000192225","","target","",""
"","null","html-keyboard-response","96","389220","0.0-14.0-0.41","SS1604513259197","","null","","","","","","","","","","","","<img src=images/blank.png width =""500"" height = ""500"" style=""border:5px solid black"">","","",""
"","397.58999994955957","stimulus-presentation","97","389823","0.0-14.0-1.41","SS1604513259197","<img src='images/complex/5.png' width ='500' height = '500' style='border:5px solid black'>","40","all_complex","images/complex/15.png","images/complex/5.png","images/complex/17.png,images/complex/4.png,images/complex/12.png,images/complex/2.png,images/complex/14.png,images/complex/16.png,images/complex/1.png","0","null","","200","597.5899999495596","","","","background","",""
"","null","html-keyboard-response","98","391028","0.0-14.0-0.42","SS1604513259197","","null","","","","","","","","","","","","<img src=images/blank.png width =""500"" height = ""500"" style=""border:5px solid black"">","","",""
"","308.47500008530915","stimulus-presentation","99","391543","0.0-14.0-1.42","SS1604513259197","<img src='images/complex/5.png' width ='500' height = '500' style='border:5px solid black'>","40","all_complex","images/complex/15.png","images/complex/5.png","images/complex/17.png,images/complex/4.png,images/complex/12.png,images/complex/2.png,images/complex/14.png,images/complex/16.png,images/complex/1.png","0","null","","200","508.47500008530915","","","","background","",""
"","null","html-keyboard-response","100","392569","0.0-14.0-0.43","SS1604513259197","","null","","","","","","","","","","","","<img src=images/blank.png width =""500"" height = ""500"" style=""border:5px solid black"">","","",""
"","608.2299998961389","stimulus-presentation","101","393383","0.0-14.0-1.43","SS1604513259197","<img src='images/complex/2.png' width ='500' height = '500' style='border:5px solid black'>","40","all_complex","images/complex/15.png","images/complex/5.png","images/complex/17.png,images/complex/4.png,images/complex/12.png,images/complex/2.png,images/complex/14.png,images/complex/16.png,images/complex/1.png","0","null","","200","808.2299998961389","","","","deviant","",""
"","null","html-keyboard-response","102","394403","0.0-14.0-0.44","SS1604513259197","","null","","","","","","","","","","","","<img src=images/blank.png width =""500"" height = ""500"" style=""border:5px solid black"">","","",""
"","141.0850000102073","stimulus-presentation","103","394751","0.0-14.0-1.44","SS1604513259197","<img src='images/complex/5.png' width ='500' height = '500' style='border:5px solid black'>","40","all_complex","images/complex/15.png","images/complex/5.png","images/complex/17.png,images/complex/4.png,images/complex/12.png,images/complex/2.png,images/complex/14.png,images/complex/16.png,images/complex/1.png","0","null","","200","341.0850000102073","","","","background","",""
"","null","html-keyboard-response","104","395899","0.0-14.0-0.45","SS1604513259197","","null","","","","","","","","","","","","<img src=images/blank.png width =""500"" height = ""500"" style=""border:5px solid black"">","","",""
"","117.77000012807548","stimulus-presentation","105","396223","0.0-14.0-1.45","SS1604513259197","<img src='images/complex/5.png' width ='500' height = '500' style='border:5px solid black'>","40","all_complex","images/complex/15.png","images/complex/5.png","images/complex/17.png,images/complex/4.png,images/complex/12.png,images/complex/2.png,images/complex/14.png,images/complex/16.png,images/complex/1.png","0","null","","200","317.7700001280755","","","","background","",""
"","null","html-keyboard-response","106","397315","0.0-14.0-0.46","SS1604513259197","","null","","","","","","","","","","","","<img src=images/blank.png width =""500"" height = ""500"" style=""border:5px solid black"">","","",""
"","173.33499994128942","stimulus-presentation","107","397695","0.0-14.0-1.46","SS1604513259197","<img src='images/complex/5.png' width ='500' height = '500' style='border:5px solid black'>","40","all_complex","images/complex/15.png","images/complex/5.png","images/complex/17.png,images/complex/4.png,images/complex/12.png,images/complex/2.png,images/complex/14.png,images/complex/16.png,images/complex/1.png","0","null","","200","373.3349999412894","","","","background","",""
"","null","html-keyboard-response","108","398520","0.0-14.0-0.47","SS1604513259197","","null","","","","","","","","","","","","<img src=images/blank.png width =""500"" height = ""500"" style=""border:5px solid black"">","","",""
"","1785.3749999776483","stimulus-presentation","109","400511","0.0-14.0-1.47","SS1604513259197","<img src='images/complex/15.png' width ='500' height = '500' style='border:5px solid black'>","40","all_complex","images/complex/15.png","images/complex/5.png","images/complex/17.png,images/complex/4.png,images/complex/12.png,images/complex/2.png,images/complex/14.png,images/complex/16.png,images/complex/1.png","0","null","","200","1985.3749999776483","yes","857.2400000412017","","target","",""
"","null","html-keyboard-response","110","401650","0.0-14.0-0.48","SS1604513259197","","null","","","","","","","","","","","","<img src=images/blank.png width =""500"" height = ""500"" style=""border:5px solid black"">","","",""
"","413.2400001399219","stimulus-presentation","111","402270","0.0-14.0-1.48","SS1604513259197","<img src='images/complex/5.png' width ='500' height = '500' style='border:5px solid black'>","40","all_complex","images/complex/15.png","images/complex/5.png","images/complex/17.png,images/complex/4.png,images/complex/12.png,images/complex/2.png,images/complex/14.png,images/complex/16.png,images/complex/1.png","0","null","","200","613.2400001399219","","","","background","",""
"[{""page_index"":0,""viewing_time"":4103}]","4103","task-instructions","112","406379","0.0-15.0","SS1604513259197","","","","","","","","","","","","","","","","",""
"[{""page_index"":0,""viewing_time"":1471.5050000231713},{""page_index"":1,""viewing_time"":7867.795000085607},{""page_index"":2,""viewing_time"":4990.384999895468}]","14329.800000181422","instructions","113","420714","0.0-16.0","SS1604513259197","","","","","","","","","","","","","","","","",""
"","null","html-keyboard-response","114","421947","0.0-17.0-0.0","SS1604513259197","","null","","","","","","","","","","","","<img src=images/blank.png width =""500"" height = ""500"" style=""border:5px solid black"">","","",""
"","658.1850000657141","stimulus-presentation","115","422812","0.0-17.0-1.0","SS1604513259197","<img src='images/simple/11.png' width ='500' height = '500' style='border:5px solid black'>","40","mixed_simple_deviant","images/complex/11.png","images/complex/10.png","images/simple/13.png,images/simple/2.png,images/simple/11.png,images/simple/15.png,images/simple/18.png,images/simple/3.png,images/simple/5.png","1","null","","200","858.1850000657141","","","","deviant","",""
"","null","html-keyboard-response","116","423814","0.0-17.0-0.1","SS1604513259197","","null","","","","","","","","","","","","<img src=images/blank.png width =""500"" height = ""500"" style=""border:5px solid black"">","","",""
"","1953.5900000482798","stimulus-presentation","117","425975","0.0-17.0-1.1","SS1604513259197","<img src='images/complex/11.png' width ='500' height = '500' style='border:5px solid black'>","40","mixed_simple_deviant","images/complex/11.png","images/complex/10.png","images/simple/13.png,images/simple/2.png,images/simple/11.png,images/simple/15.png,images/simple/18.png,images/simple/3.png,images/simple/5.png","1","null","","200","2153.5900000482798","yes","393.15999997779727","","target","",""
"","null","html-keyboard-response","118","426856","0.0-17.0-0.2","SS1604513259197","","null","","","","","","","","","","","","<img src=images/blank.png width =""500"" height = ""500"" style=""border:5px solid black"">","","",""
"","448.37000011466444","stimulus-presentation","119","427511","0.0-17.0-1.2","SS1604513259197","<img src='images/complex/10.png' width ='500' height = '500' style='border:5px solid black'>","40","mixed_simple_deviant","images/complex/11.png","images/complex/10.png","images/simple/13.png,images/simple/2.png,images/simple/11.png,images/simple/15.png,images/simple/18.png,images/simple/3.png,images/simple/5.png","1","null","","200","648.3700001146644","","","","background","",""
"","null","html-keyboard-response","120","428335","0.0-17.0-0.3","SS1604513259197","","null","","","","","","","","","","","","<img src=images/blank.png width =""500"" height = ""500"" style=""border:5px solid black"">","","",""
"","273.71500013396144","stimulus-presentation","121","428815","0.0-17.0-1.3","SS1604513259197","<img src='images/complex/10.png' width ='500' height = '500' style='border:5px solid black'>","40","mixed_simple_deviant","images/complex/11.png","images/complex/10.png","images/simple/13.png,images/simple/2.png,images/simple/11.png,images/simple/15.png,images/simple/18.png,images/simple/3.png,images/simple/5.png","1","null","","200","473.71500013396144","","","","background","",""
"","null","html-keyboard-response","122","429839","0.0-17.0-0.4","SS1604513259197","","null","","","","","","","","","","","","<img src=images/blank.png width =""500"" height = ""500"" style=""border:5px solid black"">","","",""
"","1688.6800001375377","stimulus-presentation","123","431735","0.0-17.0-1.4","SS1604513259197","<img src='images/complex/11.png' width ='500' height = '500' style='border:5px solid black'>","40","mixed_simple_deviant","images/complex/11.png","images/complex/10.png","images/simple/13.png,images/simple/2.png,images/simple/11.png,images/simple/15.png,images/simple/18.png,images/simple/3.png,images/simple/5.png","1","null","","200","1888.6800001375377","yes","392.26999995298684","","target","",""
"","null","html-keyboard-response","124","432783","0.0-17.0-0.5","SS1604513259197","","null","","","","","","","","","","","","<img src=images/blank.png width =""500"" height = ""500"" style=""border:5px solid black"">","","",""
"","258.5050000343472","stimulus-presentation","125","433248","0.0-17.0-1.5","SS1604513259197","<img src='images/complex/10.png' width ='500' height = '500' style='border:5px solid black'>","40","mixed_simple_deviant","images/complex/11.png","images/complex/10.png","images/simple/13.png,images/simple/2.png,images/simple/11.png,images/simple/15.png,images/simple/18.png,images/simple/3.png,images/simple/5.png","1","null","","200","458.5050000343472","","","","background","",""
"","null","html-keyboard-response","126","434179","0.0-17.0-0.6","SS1604513259197","","null","","","","","","","","","","","","<img src=images/blank.png width =""500"" height = ""500"" style=""border:5px solid black"">","","",""
"","1813.160000136122","stimulus-presentation","127","436199","0.0-17.0-1.6","SS1604513259197","<img src='images/complex/11.png' width ='500' height = '500' style='border:5px solid black'>","40","mixed_simple_deviant","images/complex/11.png","images/complex/10.png","images/simple/13.png,images/simple/2.png,images/simple/11.png,images/simple/15.png,images/simple/18.png,images/simple/3.png,images/simple/5.png","1","null","","200","2013.160000136122","yes","357.2400000412017","","target","",""
"","null","html-keyboard-response","128","437366","0.0-17.0-0.7","SS1604513259197","","null","","","","","","","","","","","","<img src=images/blank.png width =""500"" height = ""500"" style=""border:5px solid black"">","","",""
"","185.9250001143664","stimulus-presentation","129","437760","0.0-17.0-1.7","SS1604513259197","<img src='images/complex/10.png' width ='500' height = '500' style='border:5px solid black'>","40","mixed_simple_deviant","images/complex/11.png","images/complex/10.png","images/simple/13.png,images/simple/2.png,images/simple/11.png,images/simple/15.png,images/simple/18.png,images/simple/3.png,images/simple/5.png","1","null","","200","385.9250001143664","","","","background","",""
"","null","html-keyboard-response","130","438733","0.0-17.0-0.8","SS1604513259197","","null","","","","","","","","","","","","<img src=images/blank.png width =""500"" height = ""500"" style=""border:5px solid black"">","","",""
"","162.84499992616475","stimulus-presentation","131","439103","0.0-17.0-1.8","SS1604513259197","<img src='images/simple/3.png' width ='500' height = '500' style='border:5px solid black'>","40","mixed_simple_deviant","images/complex/11.png","images/complex/10.png","images/simple/13.png,images/simple/2.png,images/simple/11.png,images/simple/15.png,images/simple/18.png,images/simple/3.png,images/simple/5.png","1","null","","200","362.84499992616475","","","","deviant","",""
"","null","html-keyboard-response","132","440126","0.0-17.0-0.9","SS1604513259197","","null","","","","","","","","","","","","<img src=images/blank.png width =""500"" height = ""500"" style=""border:5px solid black"">","","",""
"","137.33500009402633","stimulus-presentation","133","440470","0.0-17.0-1.9","SS1604513259197","<img src='images/complex/10.png' width ='500' height = '500' style='border:5px solid black'>","40","mixed_simple_deviant","images/complex/11.png","images/complex/10.png","images/simple/13.png,images/simple/2.png,images/simple/11.png,images/simple/15.png,images/simple/18.png,images/simple/3.png,images/simple/5.png","1","null","","200","337.3350000940263","","","","background","",""
"","null","html-keyboard-response","134","441679","0.0-17.0-0.10","SS1604513259197","","null","","","","","","","","","","","","<img src=images/blank.png width =""500"" height = ""500"" style=""border:5px solid black"">","","",""
"","151.66500001214445","stimulus-presentation","135","442039","0.0-17.0-1.10","SS1604513259197","<img src='images/complex/10.png' width ='500' height = '500' style='border:5px solid black'>","40","mixed_simple_deviant","images/complex/11.png","images/complex/10.png","images/simple/13.png,images/simple/2.png,images/simple/11.png,images/simple/15.png,images/simple/18.png,images/simple/3.png,images/simple/5.png","1","null","","200","351.66500001214445","","","","background","",""
"","null","html-keyboard-response","136","443073","0.0-17.0-0.11","SS1604513259197","","null","","","","","","","","","","","","<img src=images/blank.png width =""500"" height = ""500"" style=""border:5px solid black"">","","",""
"","263.35999998264015","stimulus-presentation","137","443544","0.0-17.0-1.11","SS1604513259197","<img src='images/simple/2.png' width ='500' height = '500' style='border:5px solid black'>","40","mixed_simple_deviant","images/complex/11.png","images/complex/10.png","images/simple/13.png,images/simple/2.png,images/simple/11.png,images/simple/15.png,images/simple/18.png,images/simple/3.png,images/simple/5.png","1","null","","200","463.35999998264015","","","","deviant","",""
"","null","html-keyboard-response","138","444802","0.0-17.0-0.12","SS1604513259197","","null","","","","","","","","","","","","<img src=images/blank.png width =""500"" height = ""500"" style=""border:5px solid black"">","","",""
"","317.6649999804795","stimulus-presentation","139","445327","0.0-17.0-1.12","SS1604513259197","<img src='images/complex/10.png' width ='500' height = '500' style='border:5px solid black'>","40","mixed_simple_deviant","images/complex/11.png","images/complex/10.png","images/simple/13.png,images/simple/2.png,images/simple/11.png,images/simple/15.png,images/simple/18.png,images/simple/3.png,images/simple/5.png","1","null","","200","517.6649999804795","","","","background","",""
"","null","html-keyboard-response","140","446149","0.0-17.0-0.13","SS1604513259197","","null","","","","","","","","","","","","<img src=images/blank.png width =""500"" height = ""500"" style=""border:5px solid black"">","","",""
"","186.38000008650124","stimulus-presentation","141","446543","0.0-17.0-1.13","SS1604513259197","<img src='images/complex/10.png' width ='500' height = '500' style='border:5px solid black'>","40","mixed_simple_deviant","images/complex/11.png","images/complex/10.png","images/simple/13.png,images/simple/2.png,images/simple/11.png,images/simple/15.png,images/simple/18.png,images/simple/3.png,images/simple/5.png","1","null","","200","386.38000008650124","","","","background","",""
"","null","html-keyboard-response","142","447465","0.0-17.0-0.14","SS1604513259197","","null","","","","","","","","","","","","<img src=images/blank.png width =""500"" height = ""500"" style=""border:5px solid black"">","","",""
"","206.59999991767108","stimulus-presentation","143","447879","0.0-17.0-1.14","SS1604513259197","<img src='images/complex/10.png' width ='500' height = '500' style='border:5px solid black'>","40","mixed_simple_deviant","images/complex/11.png","images/complex/10.png","images/simple/13.png,images/simple/2.png,images/simple/11.png,images/simple/15.png,images/simple/18.png,images/simple/3.png,images/simple/5.png","1","null","","200","406.5999999176711","","","","background","",""
"","null","html-keyboard-response","144","448709","0.0-17.0-0.15","SS1604513259197","","null","","","","","","","","","","","","<img src=images/blank.png width =""500"" height = ""500"" style=""border:5px solid black"">","","",""
"","1417.345000198111","stimulus-presentation","145","450335","0.0-17.0-1.15","SS1604513259197","<img src='images/complex/11.png' width ='500' height = '500' style='border:5px solid black'>","40","mixed_simple_deviant","images/complex/11.png","images/complex/10.png","images/simple/13.png,images/simple/2.png,images/simple/11.png,images/simple/15.png,images/simple/18.png,images/simple/3.png,images/simple/5.png","1","null","","200","1617.345000198111","yes","530.4650000762194","","target","",""
"","null","html-keyboard-response","146","451211","0.0-17.0-0.16","SS1604513259197","","null","","","","","","","","","","","","<img src=images/blank.png width =""500"" height = ""500"" style=""border:5px solid black"">","","",""
"","180.40499999187887","stimulus-presentation","147","451599","0.0-17.0-1.16","SS1604513259197","<img src='images/complex/10.png' width ='500' height = '500' style='border:5px solid black'>","40","mixed_simple_deviant","images/complex/11.png","images/complex/10.png","images/simple/13.png,images/simple/2.png,images/simple/11.png,images/simple/15.png,images/simple/18.png,images/simple/3.png,images/simple/5.png","1","null","","200","380.40499999187887","","","","background","",""
"","null","html-keyboard-response","148","452622","0.0-17.0-0.17","SS1604513259197","","null","","","","","","","","","","","","<img src=images/blank.png width =""500"" height = ""500"" style=""border:5px solid black"">","","",""
"","209.74499988369644","stimulus-presentation","149","453039","0.0-17.0-1.17","SS1604513259197","<img src='images/complex/10.png' width ='500' height = '500' style='border:5px solid black'>","40","mixed_simple_deviant","images/complex/11.png","images/complex/10.png","images/simple/13.png,images/simple/2.png,images/simple/11.png,images/simple/15.png,images/simple/18.png,images/simple/3.png,images/simple/5.png","1","null","","200","409.74499988369644","","","","background","",""
"","null","html-keyboard-response","150","454329","0.0-17.0-0.18","SS1604513259197","","null","","","","","","","","","","","","<img src=images/blank.png width =""500"" height = ""500"" style=""border:5px solid black"">","","",""
"","92.1000000089407","stimulus-presentation","151","454630","0.0-17.0-1.18","SS1604513259197","<img src='images/complex/10.png' width ='500' height = '500' style='border:5px solid black'>","40","mixed_simple_deviant","images/complex/11.png","images/complex/10.png","images/simple/13.png,images/simple/2.png,images/simple/11.png,images/simple/15.png,images/simple/18.png,images/simple/3.png,images/simple/5.png","1","null","","200","292.1000000089407","","","","background","",""
"","null","html-keyboard-response","152","455707","0.0-17.0-0.19","SS1604513259197","","null","","","","","","","","","","","","<img src=images/blank.png width =""500"" height = ""500"" style=""border:5px solid black"">","","",""
"","99.19999982230365","stimulus-presentation","153","456015","0.0-17.0-1.19","SS1604513259197","<img src='images/complex/10.png' width ='500' height = '500' style='border:5px solid black'>","40","mixed_simple_deviant","images/complex/11.png","images/complex/10.png","images/simple/13.png,images/simple/2.png,images/simple/11.png,images/simple/15.png,images/simple/18.png,images/simple/3.png,images/simple/5.png","1","null","","200","299.19999982230365","","","","background","",""
"","null","html-keyboard-response","154","456978","0.0-17.0-0.20","SS1604513259197","","null","","","","","","","","","","","","<img src=images/blank.png width =""500"" height = ""500"" style=""border:5px solid black"">","","",""
"","1428.685000166297","stimulus-presentation","155","458614","0.0-17.0-1.20","SS1604513259197","<img src='images/complex/11.png' width ='500' height = '500' style='border:5px solid black'>","40","mixed_simple_deviant","images/complex/11.png","images/complex/10.png","images/simple/13.png,images/simple/2.png,images/simple/11.png,images/simple/15.png,images/simple/18.png,images/simple/3.png,images/simple/5.png","1","null","","200","1628.685000166297","yes","389.40500002354383","","target","",""
"","null","html-keyboard-response","156","459684","0.0-17.0-0.21","SS1604513259197","","null","","","","","","","","","","","","<img src=images/blank.png width =""500"" height = ""500"" style=""border:5px solid black"">","","",""
"","147.48000004328787","stimulus-presentation","157","460039","0.0-17.0-1.21","SS1604513259197","<img src='images/complex/10.png' width ='500' height = '500' style='border:5px solid black'>","40","mixed_simple_deviant","images/complex/11.png","images/complex/10.png","images/simple/13.png,images/simple/2.png,images/simple/11.png,images/simple/15.png,images/simple/18.png,images/simple/3.png,images/simple/5.png","1","null","","200","347.4800000432879","","","","background","",""
"","null","html-keyboard-response","158","461203","0.0-17.0-0.22","SS1604513259197","","null","","","","","","","","","","","","<img src=images/blank.png width =""500"" height = ""500"" style=""border:5px solid black"">","","",""
"","108.06500003673136","stimulus-presentation","159","461519","0.0-17.0-1.22","SS1604513259197","<img src='images/simple/15.png' width ='500' height = '500' style='border:5px solid black'>","40","mixed_simple_deviant","images/complex/11.png","images/complex/10.png","images/simple/13.png,images/simple/2.png,images/simple/11.png,images/simple/15.png,images/simple/18.png,images/simple/3.png,images/simple/5.png","1","null","","200","308.06500003673136","","","","deviant","",""
"","null","html-keyboard-response","160","462387","0.0-17.0-0.23","SS1604513259197","","null","","","","","","","","","","","","<img src=images/blank.png width =""500"" height = ""500"" style=""border:5px solid black"">","","",""
"","179.46500005200505","stimulus-presentation","161","462775","0.0-17.0-1.23","SS1604513259197","<img src='images/complex/10.png' width ='500' height = '500' style='border:5px solid black'>","40","mixed_simple_deviant","images/complex/11.png","images/complex/10.png","images/simple/13.png,images/simple/2.png,images/simple/11.png,images/simple/15.png,images/simple/18.png,images/simple/3.png,images/simple/5.png","1","null","","200","379.46500005200505","","","","background","",""
"","null","html-keyboard-response","162","463967","0.0-17.0-0.24","SS1604513259197","","null","","","","","","","","","","","","<img src=images/blank.png width =""500"" height = ""500"" style=""border:5px solid black"">","","",""
"","1167.094999924302","stimulus-presentation","163","465343","0.0-17.0-1.24","SS1604513259197","<img src='images/complex/11.png' width ='500' height = '500' style='border:5px solid black'>","40","mixed_simple_deviant","images/complex/11.png","images/complex/10.png","images/simple/13.png,images/simple/2.png,images/simple/11.png,images/simple/15.png,images/simple/18.png,images/simple/3.png,images/simple/5.png","1","null","","200","1367.094999924302","yes","350.8849998470396","","target","",""
"","null","html-keyboard-response","164","466304","0.0-17.0-0.25","SS1604513259197","","null","","","","","","","","","","","","<img src=images/blank.png width =""500"" height = ""500"" style=""border:5px solid black"">","","",""
"","62.234999844804406","stimulus-presentation","165","466575","0.0-17.0-1.25","SS1604513259197","<img src='images/complex/10.png' width ='500' height = '500' style='border:5px solid black'>","40","mixed_simple_deviant","images/complex/11.png","images/complex/10.png","images/simple/13.png,images/simple/2.png,images/simple/11.png,images/simple/15.png,images/simple/18.png,images/simple/3.png,images/simple/5.png","1","null","","200","262.2349998448044","","","","background","",""
"","null","html-keyboard-response","166","467708","0.0-17.0-0.26","SS1604513259197","","null","","","","","","","","","","","","<img src=images/blank.png width =""500"" height = ""500"" style=""border:5px solid black"">","","",""
"","123.2249999884516","stimulus-presentation","167","468040","0.0-17.0-1.26","SS1604513259197","<img src='images/simple/5.png' width ='500' height = '500' style='border:5px solid black'>","40","mixed_simple_deviant","images/complex/11.png","images/complex/10.png","images/simple/13.png,images/simple/2.png,images/simple/11.png,images/simple/15.png,images/simple/18.png,images/simple/3.png,images/simple/5.png","1","null","","200","323.2249999884516","","","","deviant","",""
"","null","html-keyboard-response","168","468976","0.0-17.0-0.27","SS1604513259197","","null","","","","","","","","","","","","<img src=images/blank.png width =""500"" height = ""500"" style=""border:5px solid black"">","","",""
"","215.26500000618398","stimulus-presentation","169","469400","0.0-17.0-1.27","SS1604513259197","<img src='images/complex/10.png' width ='500' height = '500' style='border:5px solid black'>","40","mixed_simple_deviant","images/complex/11.png","images/complex/10.png","images/simple/13.png,images/simple/2.png,images/simple/11.png,images/simple/15.png,images/simple/18.png,images/simple/3.png,images/simple/5.png","1","null","","200","415.265000006184","","","","background","",""
"","null","html-keyboard-response","170","470478","0.0-17.0-0.28","SS1604513259197","","null","","","","","","","","","","","","<img src=images/blank.png width =""500"" height = ""500"" style=""border:5px solid black"">","","",""
"","95.74500005692244","stimulus-presentation","171","470783","0.0-17.0-1.28","SS1604513259197","<img src='images/complex/10.png' width ='500' height = '500' style='border:5px solid black'>","40","mixed_simple_deviant","images/complex/11.png","images/complex/10.png","images/simple/13.png,images/simple/2.png,images/simple/11.png,images/simple/15.png,images/simple/18.png,images/simple/3.png,images/simple/5.png","1","null","","200","295.74500005692244","","","","background","",""
"","null","html-keyboard-response","172","471757","0.0-17.0-0.29","SS1604513259197","","null","","","","","","","","","","","","<img src=images/blank.png width =""500"" height = ""500"" style=""border:5px solid black"">","","",""
"","216.8499999679625","stimulus-presentation","173","472183","0.0-17.0-1.29","SS1604513259197","<img src='images/complex/10.png' width ='500' height = '500' style='border:5px solid black'>","40","mixed_simple_deviant","images/complex/11.png","images/complex/10.png","images/simple/13.png,images/simple/2.png,images/simple/11.png,images/simple/15.png,images/simple/18.png,images/simple/3.png,images/simple/5.png","1","null","","200","416.8499999679625","","","","background","",""
"","null","html-keyboard-response","174","473318","0.0-17.0-0.30","SS1604513259197","","null","","","","","","","","","","","","<img src=images/blank.png width =""500"" height = ""500"" style=""border:5px solid black"">","","",""
"","359.15000014938414","stimulus-presentation","175","473886","0.0-17.0-1.30","SS1604513259197","<img src='images/simple/13.png' width ='500' height = '500' style='border:5px solid black'>","40","mixed_simple_deviant","images/complex/11.png","images/complex/10.png","images/simple/13.png,images/simple/2.png,images/simple/11.png,images/simple/15.png,images/simple/18.png,images/simple/3.png,images/simple/5.png","1","null","","200","559.1500001493841","","","","deviant","",""
"","null","html-keyboard-response","176","475023","0.0-17.0-0.31","SS1604513259197","","null","","","","","","","","","","","","<img src=images/blank.png width =""500"" height = ""500"" style=""border:5px solid black"">","","",""
"","135.29500016011298","stimulus-presentation","177","475367","0.0-17.0-1.31","SS1604513259197","<img src='images/complex/10.png' width ='500' height = '500' style='border:5px solid black'>","40","mixed_simple_deviant","images/complex/11.png","images/complex/10.png","images/simple/13.png,images/simple/2.png,images/simple/11.png,images/simple/15.png,images/simple/18.png,images/simple/3.png,images/simple/5.png","1","null","","200","335.295000160113","","","","background","",""
"","null","html-keyboard-response","178","476438","0.0-17.0-0.32","SS1604513259197","","null","","","","","","","","","","","","<img src=images/blank.png width =""500"" height = ""500"" style=""border:5px solid black"">","","",""
"","152.2150000091642","stimulus-presentation","179","476799","0.0-17.0-1.32","SS1604513259197","<img src='images/complex/10.png' width ='500' height = '500' style='border:5px solid black'>","40","mixed_simple_deviant","images/complex/11.png","images/complex/10.png","images/simple/13.png,images/simple/2.png,images/simple/11.png,images/simple/15.png,images/simple/18.png,images/simple/3.png,images/simple/5.png","1","null","","200","352.2150000091642","","","","background","",""
"","null","html-keyboard-response","180","477931","0.0-17.0-0.33","SS1604513259197","","null","","","","","","","","","","","","<img src=images/blank.png width =""500"" height = ""500"" style=""border:5px solid black"">","","",""
"","163.36499992758036","stimulus-presentation","181","478304","0.0-17.0-1.33","SS1604513259197","<img src='images/complex/10.png' width ='500' height = '500' style='border:5px solid black'>","40","mixed_simple_deviant","images/complex/11.png","images/complex/10.png","images/simple/13.png,images/simple/2.png,images/simple/11.png,images/simple/15.png,images/simple/18.png,images/simple/3.png,images/simple/5.png","1","null","","200","363.36499992758036","","","","background","",""
"","null","html-keyboard-response","182","479185","0.0-17.0-0.34","SS1604513259197","","null","","","","","","","","","","","","<img src=images/blank.png width =""500"" height = ""500"" style=""border:5px solid black"">","","",""
"","181.74499995075166","stimulus-presentation","183","479575","0.0-17.0-1.34","SS1604513259197","<img src='images/complex/10.png' width ='500' height = '500' style='border:5px solid black'>","40","mixed_simple_deviant","images/complex/11.png","images/complex/10.png","images/simple/13.png,images/simple/2.png,images/simple/11.png,images/simple/15.png,images/simple/18.png,images/simple/3.png,images/simple/5.png","1","null","","200","381.74499995075166","","","","background","",""
"","null","html-keyboard-response","184","480656","0.0-17.0-0.35","SS1604513259197","","null","","","","","","","","","","","","<img src=images/blank.png width =""500"" height = ""500"" style=""border:5px solid black"">","","",""
"","373.9599999971688","stimulus-presentation","185","481239","0.0-17.0-1.35","SS1604513259197","<img src='images/complex/10.png' width ='500' height = '500' style='border:5px solid black'>","40","mixed_simple_deviant","images/complex/11.png","images/complex/10.png","images/simple/13.png,images/simple/2.png,images/simple/11.png,images/simple/15.png,images/simple/18.png,images/simple/3.png,images/simple/5.png","1","null","","200","573.9599999971688","","","","background","",""
"","null","html-keyboard-response","186","482134","0.0-17.0-0.36","SS1604513259197","","null","","","","","","","","","","","","<img src=images/blank.png width =""500"" height = ""500"" style=""border:5px solid black"">","","",""
"","167.71499998867512","stimulus-presentation","187","482511","0.0-17.0-1.36","SS1604513259197","<img src='images/complex/10.png' width ='500' height = '500' style='border:5px solid black'>","40","mixed_simple_deviant","images/complex/11.png","images/complex/10.png","images/simple/13.png,images/simple/2.png,images/simple/11.png,images/simple/15.png,images/simple/18.png,images/simple/3.png,images/simple/5.png","1","null","","200","367.7149999886751","","","","background","",""
"","null","html-keyboard-response","188","483678","0.0-17.0-0.37","SS1604513259197","","null","","","","","","","","","","","","<img src=images/blank.png width =""500"" height = ""500"" style=""border:5px solid black"">","","",""
"","223.54999999515712","stimulus-presentation","189","484111","0.0-17.0-1.37","SS1604513259197","<img src='images/complex/10.png' width ='500' height = '500' style='border:5px solid black'>","40","mixed_simple_deviant","images/complex/11.png","images/complex/10.png","images/simple/13.png,images/simple/2.png,images/simple/11.png,images/simple/15.png,images/simple/18.png,images/simple/3.png,images/simple/5.png","1","null","","200","423.5499999951571","","","","background","",""
"","null","html-keyboard-response","190","484982","0.0-17.0-0.38","SS1604513259197","","null","","","","","","","","","","","","<img src=images/blank.png width =""500"" height = ""500"" style=""border:5px solid black"">","","",""
"","109.89500000141561","stimulus-presentation","191","485303","0.0-17.0-1.38","SS1604513259197","<img src='images/complex/10.png' width ='500' height = '500' style='border:5px solid black'>","40","mixed_simple_deviant","images/complex/11.png","images/complex/10.png","images/simple/13.png,images/simple/2.png,images/simple/11.png,images/simple/15.png,images/simple/18.png,images/simple/3.png,images/simple/5.png","1","null","","200","309.8950000014156","","","","background","",""
"","null","html-keyboard-response","192","486388","0.0-17.0-0.39","SS1604513259197","","null","","","","","","","","","","","","<img src=images/blank.png width =""500"" height = ""500"" style=""border:5px solid black"">","","",""
"","1433.1900000106543","stimulus-presentation","193","488031","0.0-17.0-1.39","SS1604513259197","<img src='images/complex/11.png' width ='500' height = '500' style='border:5px solid black'>","40","mixed_simple_deviant","images/complex/11.png","images/complex/10.png","images/simple/13.png,images/simple/2.png,images/simple/11.png,images/simple/15.png,images/simple/18.png,images/simple/3.png,images/simple/5.png","1","null","","200","1633.1900000106543","yes","312.80499999411404","","target","",""
"","null","html-keyboard-response","194","488970","0.0-17.0-0.40","SS1604513259197","","null","","","","","","","","","","","","<img src=images/blank.png width =""500"" height = ""500"" style=""border:5px solid black"">","","",""
"","177.29000002145767","stimulus-presentation","195","489359","0.0-17.0-1.40","SS1604513259197","<img src='images/complex/10.png' width ='500' height = '500' style='border:5px solid black'>","40","mixed_simple_deviant","images/complex/11.png","images/complex/10.png","images/simple/13.png,images/simple/2.png,images/simple/11.png,images/simple/15.png,images/simple/18.png,images/simple/3.png,images/simple/5.png","1","null","","200","377.2900000214577","","","","background","",""
"","null","html-keyboard-response","196","490385","0.0-17.0-0.41","SS1604513259197","","null","","","","","","","","","","","","<img src=images/blank.png width =""500"" height = ""500"" style=""border:5px solid black"">","","",""
"","188.30999988131225","stimulus-presentation","197","490783","0.0-17.0-1.41","SS1604513259197","<img src='images/complex/10.png' width ='500' height = '500' style='border:5px solid black'>","40","mixed_simple_deviant","images/complex/11.png","images/complex/10.png","images/simple/13.png,images/simple/2.png,images/simple/11.png,images/simple/15.png,images/simple/18.png,images/simple/3.png,images/simple/5.png","1","null","","200","388.30999988131225","","","","background","",""
"","null","html-keyboard-response","198","491724","0.0-17.0-0.42","SS1604513259197","","null","","","","","","","","","","","","<img src=images/blank.png width =""500"" height = ""500"" style=""border:5px solid black"">","","",""
"","130.37999998778105","stimulus-presentation","199","492063","0.0-17.0-1.42","SS1604513259197","<img src='images/complex/10.png' width ='500' height = '500' style='border:5px solid black'>","40","mixed_simple_deviant","images/complex/11.png","images/complex/10.png","images/simple/13.png,images/simple/2.png,images/simple/11.png,images/simple/15.png,images/simple/18.png,images/simple/3.png,images/simple/5.png","1","null","","200","330.37999998778105","","","","background","",""
"","null","html-keyboard-response","200","492985","0.0-17.0-0.43","SS1604513259197","","null","","","","","","","","","","","","<img src=images/blank.png width =""500"" height = ""500"" style=""border:5px solid black"">","","",""
"","124.07000013627112","stimulus-presentation","201","493319","0.0-17.0-1.43","SS1604513259197","<img src='images/complex/10.png' width ='500' height = '500' style='border:5px solid black'>","40","mixed_simple_deviant","images/complex/11.png","images/complex/10.png","images/simple/13.png,images/simple/2.png,images/simple/11.png,images/simple/15.png,images/simple/18.png,images/simple/3.png,images/simple/5.png","1","null","","200","324.0700001362711","","","","background","",""
"","null","html-keyboard-response","202","494579","0.0-17.0-0.44","SS1604513259197","","null","","","","","","","","","","","","<img src=images/blank.png width =""500"" height = ""500"" style=""border:5px solid black"">","","",""
"","441.58000010065734","stimulus-presentation","203","495231","0.0-17.0-1.44","SS1604513259197","<img src='images/simple/18.png' width ='500' height = '500' style='border:5px solid black'>","40","mixed_simple_deviant","images/complex/11.png","images/complex/10.png","images/simple/13.png,images/simple/2.png,images/simple/11.png,images/simple/15.png,images/simple/18.png,images/simple/3.png,images/simple/5.png","1","null","","200","641.5800001006573","","","","deviant","",""
"","null","html-keyboard-response","204","496475","0.0-17.0-0.45","SS1604513259197","","null","","","","","","","","","","","","<img src=images/blank.png width =""500"" height = ""500"" style=""border:5px solid black"">","","",""
"","193.78000008873641","stimulus-presentation","205","496879","0.0-17.0-1.45","SS1604513259197","<img src='images/complex/10.png' width ='500' height = '500' style='border:5px solid black'>","40","mixed_simple_deviant","images/complex/11.png","images/complex/10.png","images/simple/13.png,images/simple/2.png,images/simple/11.png,images/simple/15.png,images/simple/18.png,images/simple/3.png,images/simple/5.png","1","null","","200","393.7800000887364","","","","background","",""
"","null","html-keyboard-response","206","498078","0.0-17.0-0.46","SS1604513259197","","null","","","","","","","","","","","","<img src=images/blank.png width =""500"" height = ""500"" style=""border:5px solid black"">","","",""
"","110.49499991349876","stimulus-presentation","207","498399","0.0-17.0-1.46","SS1604513259197","<img src='images/complex/10.png' width ='500' height = '500' style='border:5px solid black'>","40","mixed_simple_deviant","images/complex/11.png","images/complex/10.png","images/simple/13.png,images/simple/2.png,images/simple/11.png,images/simple/15.png,images/simple/18.png,images/simple/3.png,images/simple/5.png","1","null","","200","310.49499991349876","","","","background","",""
"","null","html-keyboard-response","208","499574","0.0-17.0-0.47","SS1604513259197","","null","","","","","","","","","","","","<img src=images/blank.png width =""500"" height = ""500"" style=""border:5px solid black"">","","",""
"","143.1799998972565","stimulus-presentation","209","499927","0.0-17.0-1.47","SS1604513259197","<img src='images/complex/10.png' width ='500' height = '500' style='border:5px solid black'>","40","mixed_simple_deviant","images/complex/11.png","images/complex/10.png","images/simple/13.png,images/simple/2.png,images/simple/11.png,images/simple/15.png,images/simple/18.png,images/simple/3.png,images/simple/5.png","1","null","","200","343.1799998972565","","","","background","",""
"","null","html-keyboard-response","210","500906","0.0-17.0-0.48","SS1604513259197","","null","","","","","","","","","","","","<img src=images/blank.png width =""500"" height = ""500"" style=""border:5px solid black"">","","",""
"","170.14500009827316","stimulus-presentation","211","501287","0.0-17.0-1.48","SS1604513259197","<img src='images/complex/10.png' width ='500' height = '500' style='border:5px solid black'>","40","mixed_simple_deviant","images/complex/11.png","images/complex/10.png","images/simple/13.png,images/simple/2.png,images/simple/11.png,images/simple/15.png,images/simple/18.png,images/simple/3.png,images/simple/5.png","1","null","","200","370.14500009827316","","","","background","",""
"[{""page_index"":0,""viewing_time"":2738}]","2738","task-instructions","212","504035","0.0-18.0","SS1604513259197","","","","","","","","","","","","","","","","",""
"[{""page_index"":0,""viewing_time"":1204.6399998944253},{""page_index"":1,""viewing_time"":4459.01000010781},{""page_index"":2,""viewing_time"":3333.054999820888}]","8996.849999995902","instructions","213","513048","0.0-19.0","SS1604513259197","","","","","","","","","","","","","","","","",""
"","null","html-keyboard-response","214","514292","0.0-20.0-0.0","SS1604513259197","","null","","","","","","","","","","","","<img src=images/blank.png width =""500"" height = ""500"" style=""border:5px solid black"">","","",""
"","3967.2499999869615","stimulus-presentation","215","518470","0.0-20.0-1.0","SS1604513259197","<img src='images/simple/10.png' width ='500' height = '500' style='border:5px solid black'>","40","mixed_complex_deviant","images/simple/10.png","images/simple/4.png","images/complex/6.png,images/complex/8.png,images/complex/18.png,images/complex/7.png,images/complex/13.png,images/complex/9.png,images/complex/3.png","2","null","","200","4167.2499999869615","yes","1478.8450000341982","","target","",""
"","null","html-keyboard-response","216","519378","0.0-20.0-0.1","SS1604513259197","","null","","","","","","","","","","","","<img src=images/blank.png width =""500"" height = ""500"" style=""border:5px solid black"">","","",""
"","456.25499985180795","stimulus-presentation","217","520046","0.0-20.0-1.1","SS1604513259197","<img src='images/complex/7.png' width ='500' height = '500' style='border:5px solid black'>","40","mixed_complex_deviant","images/simple/10.png","images/simple/4.png","images/complex/6.png,images/complex/8.png,images/complex/18.png,images/complex/7.png,images/complex/13.png,images/complex/9.png,images/complex/3.png","2","null","","200","656.254999851808","","","","deviant","",""
"","null","html-keyboard-response","218","520994","0.0-20.0-0.2","SS1604513259197","","null","","","","","","","","","","","","<img src=images/blank.png width =""500"" height = ""500"" style=""border:5px solid black"">","","",""
"","167.4000001512468","stimulus-presentation","219","521375","0.0-20.0-1.2","SS1604513259197","<img src='images/simple/4.png' width ='500' height = '500' style='border:5px solid black'>","40","mixed_complex_deviant","images/simple/10.png","images/simple/4.png","images/complex/6.png,images/complex/8.png,images/complex/18.png,images/complex/7.png,images/complex/13.png,images/complex/9.png,images/complex/3.png","2","null","","200","367.4000001512468","","","","background","",""
"","null","html-keyboard-response","220","522197","0.0-20.0-0.3","SS1604513259197","","null","","","","","","","","","","","","<img src=images/blank.png width =""500"" height = ""500"" style=""border:5px solid black"">","","",""
"","1789.7649998776615","stimulus-presentation","221","524199","0.0-20.0-1.3","SS1604513259197","<img src='images/simple/10.png' width ='500' height = '500' style='border:5px solid black'>","40","mixed_complex_deviant","images/simple/10.png","images/simple/4.png","images/complex/6.png,images/complex/8.png,images/complex/18.png,images/complex/7.png,images/complex/13.png,images/complex/9.png,images/complex/3.png","2","null","","200","1989.7649998776615","yes","638.0749999079853","","target","",""
"","null","html-keyboard-response","222","525446","0.0-20.0-0.4","SS1604513259197","","null","","","","","","","","","","","","<img src=images/blank.png width =""500"" height = ""500"" style=""border:5px solid black"">","","",""
"","222.88999985903502","stimulus-presentation","223","525879","0.0-20.0-1.4","SS1604513259197","<img src='images/simple/4.png' width ='500' height = '500' style='border:5px solid black'>","40","mixed_complex_deviant","images/simple/10.png","images/simple/4.png","images/complex/6.png,images/complex/8.png,images/complex/18.png,images/complex/7.png,images/complex/13.png,images/complex/9.png,images/complex/3.png","2","null","","200","422.889999859035","","","","background","",""
"","null","html-keyboard-response","224","526831","0.0-20.0-0.5","SS1604513259197","","null","","","","","","","","","","","","<img src=images/blank.png width =""500"" height = ""500"" style=""border:5px solid black"">","","",""
"","85.69499989971519","stimulus-presentation","225","527127","0.0-20.0-1.5","SS1604513259197","<img src='images/simple/4.png' width ='500' height = '500' style='border:5px solid black'>","40","mixed_complex_deviant","images/simple/10.png","images/simple/4.png","images/complex/6.png,images/complex/8.png,images/complex/18.png,images/complex/7.png,images/complex/13.png,images/complex/9.png,images/complex/3.png","2","null","","200","285.6949998997152","","","","background","",""
"","null","html-keyboard-response","226","528433","0.0-20.0-0.6","SS1604513259197","","null","","","","","","","","","","","","<img src=images/blank.png width =""500"" height = ""500"" style=""border:5px solid black"">","","",""
"","75.09500021114945","stimulus-presentation","227","528719","0.0-20.0-1.6","SS1604513259197","<img src='images/simple/4.png' width ='500' height = '500' style='border:5px solid black'>","40","mixed_complex_deviant","images/simple/10.png","images/simple/4.png","images/complex/6.png,images/complex/8.png,images/complex/18.png,images/complex/7.png,images/complex/13.png,images/complex/9.png,images/complex/3.png","2","null","","200","275.09500021114945","","","","background","",""
"","null","html-keyboard-response","228","529600","0.0-20.0-0.7","SS1604513259197","","null","","","","","","","","","","","","<img src=images/blank.png width =""500"" height = ""500"" style=""border:5px solid black"">","","",""
"","196.51999999769032","stimulus-presentation","229","530007","0.0-20.0-1.7","SS1604513259197","<img src='images/simple/4.png' width ='500' height = '500' style='border:5px solid black'>","40","mixed_complex_deviant","images/simple/10.png","images/simple/4.png","images/complex/6.png,images/complex/8.png,images/complex/18.png,images/complex/7.png,images/complex/13.png,images/complex/9.png,images/complex/3.png","2","null","","200","396.5199999976903","","","","background","",""
"","null","html-keyboard-response","230","531216","0.0-20.0-0.8","SS1604513259197","","null","","","","","","","","","","","","<img src=images/blank.png width =""500"" height = ""500"" style=""border:5px solid black"">","","",""
"","92.33000013045967","stimulus-presentation","231","531519","0.0-20.0-1.8","SS1604513259197","<img src='images/complex/3.png' width ='500' height = '500' style='border:5px solid black'>","40","mixed_complex_deviant","images/simple/10.png","images/simple/4.png","images/complex/6.png,images/complex/8.png,images/complex/18.png,images/complex/7.png,images/complex/13.png,images/complex/9.png,images/complex/3.png","2","null","","200","292.33000013045967","","","","deviant","",""
"","null","html-keyboard-response","232","532608","0.0-20.0-0.9","SS1604513259197","","null","","","","","","","","","","","","<img src=images/blank.png width =""500"" height = ""500"" style=""border:5px solid black"">","","",""
"","203.7100000306964","stimulus-presentation","233","533023","0.0-20.0-1.9","SS1604513259197","<img src='images/simple/4.png' width ='500' height = '500' style='border:5px solid black'>","40","mixed_complex_deviant","images/simple/10.png","images/simple/4.png","images/complex/6.png,images/complex/8.png,images/complex/18.png,images/complex/7.png,images/complex/13.png,images/complex/9.png,images/complex/3.png","2","null","","200","403.7100000306964","","","","background","",""
"","null","html-keyboard-response","234","533843","0.0-20.0-0.10","SS1604513259197","","null","","","","","","","","","","","","<img src=images/blank.png width =""500"" height = ""500"" style=""border:5px solid black"">","","",""
"","130.0050001591444","stimulus-presentation","235","534183","0.0-20.0-1.10","SS1604513259197","<img src='images/simple/4.png' width ='500' height = '500' style='border:5px solid black'>","40","mixed_complex_deviant","images/simple/10.png","images/simple/4.png","images/complex/6.png,images/complex/8.png,images/complex/18.png,images/complex/7.png,images/complex/13.png,images/complex/9.png,images/complex/3.png","2","null","","200","330.0050001591444","","","","background","",""
"","null","html-keyboard-response","236","535182","0.0-20.0-0.11","SS1604513259197","","null","","","","","","","","","","","","<img src=images/blank.png width =""500"" height = ""500"" style=""border:5px solid black"">","","",""
"","1724.940000101924","stimulus-presentation","237","537118","0.0-20.0-1.11","SS1604513259197","<img src='images/simple/10.png' width ='500' height = '500' style='border:5px solid black'>","40","mixed_complex_deviant","images/simple/10.png","images/simple/4.png","images/complex/6.png,images/complex/8.png,images/complex/18.png,images/complex/7.png,images/complex/13.png,images/complex/9.png,images/complex/3.png","2","null","","200","1924.940000101924","yes","461.4399999845773","","target","",""
"","null","html-keyboard-response","238","538252","0.0-20.0-0.12","SS1604513259197","","null","","","","","","","","","","","","<img src=images/blank.png width =""500"" height = ""500"" style=""border:5px solid black"">","","",""
"","150.56999982334673","stimulus-presentation","239","538613","0.0-20.0-1.12","SS1604513259197","<img src='images/simple/4.png' width ='500' height = '500' style='border:5px solid black'>","40","mixed_complex_deviant","images/simple/10.png","images/simple/4.png","images/complex/6.png,images/complex/8.png,images/complex/18.png,images/complex/7.png,images/complex/13.png,images/complex/9.png,images/complex/3.png","2","null","","200","350.56999982334673","","","","background","",""
"","null","html-keyboard-response","240","539557","0.0-20.0-0.13","SS1604513259197","","null","","","","","","","","","","","","<img src=images/blank.png width =""500"" height = ""500"" style=""border:5px solid black"">","","",""
"","214.59500002674758","stimulus-presentation","241","539983","0.0-20.0-1.13","SS1604513259197","<img src='images/simple/4.png' width ='500' height = '500' style='border:5px solid black'>","40","mixed_complex_deviant","images/simple/10.png","images/simple/4.png","images/complex/6.png,images/complex/8.png,images/complex/18.png,images/complex/7.png,images/complex/13.png,images/complex/9.png,images/complex/3.png","2","null","","200","414.5950000267476","","","","background","",""
"","null","html-keyboard-response","242","541237","0.0-20.0-0.14","SS1604513259197","","null","","","","","","","","","","","","<img src=images/blank.png width =""500"" height = ""500"" style=""border:5px solid black"">","","",""
"","100.90499999932945","stimulus-presentation","243","541550","0.0-20.0-1.14","SS1604513259197","<img src='images/simple/4.png' width ='500' height = '500' style='border:5px solid black'>","40","mixed_complex_deviant","images/simple/10.png","images/simple/4.png","images/complex/6.png,images/complex/8.png,images/complex/18.png,images/complex/7.png,images/complex/13.png,images/complex/9.png,images/complex/3.png","2","null","","200","300.90499999932945","","","","background","",""
"","null","html-keyboard-response","244","542627","0.0-20.0-0.15","SS1604513259197","","null","","","","","","","","","","","","<img src=images/blank.png width =""500"" height = ""500"" style=""border:5px solid black"">","","",""
"","88.6599998921156","stimulus-presentation","245","542926","0.0-20.0-1.15","SS1604513259197","<img src='images/simple/4.png' width ='500' height = '500' style='border:5px solid black'>","40","mixed_complex_deviant","images/simple/10.png","images/simple/4.png","images/complex/6.png,images/complex/8.png,images/complex/18.png,images/complex/7.png,images/complex/13.png,images/complex/9.png,images/complex/3.png","2","null","","200","288.6599998921156","","","","background","",""
"","null","html-keyboard-response","246","544007","0.0-20.0-0.16","SS1604513259197","","null","","","","","","","","","","","","<img src=images/blank.png width =""500"" height = ""500"" style=""border:5px solid black"">","","",""
"","178.84499998763204","stimulus-presentation","247","544399","0.0-20.0-1.16","SS1604513259197","<img src='images/simple/4.png' width ='500' height = '500' style='border:5px solid black'>","40","mixed_complex_deviant","images/simple/10.png","images/simple/4.png","images/complex/6.png,images/complex/8.png,images/complex/18.png,images/complex/7.png,images/complex/13.png,images/complex/9.png,images/complex/3.png","2","null","","200","378.84499998763204","","","","background","",""
"","null","html-keyboard-response","248","545694","0.0-20.0-0.17","SS1604513259197","","null","","","","","","","","","","","","<img src=images/blank.png width =""500"" height = ""500"" style=""border:5px solid black"">","","",""
"","1933.1049998290837","stimulus-presentation","249","547839","0.0-20.0-1.17","SS1604513259197","<img src='images/simple/10.png' width ='500' height = '500' style='border:5px solid black'>","40","mixed_complex_deviant","images/simple/10.png","images/simple/4.png","images/complex/6.png,images/complex/8.png,images/complex/18.png,images/complex/7.png,images/complex/13.png,images/complex/9.png,images/complex/3.png","2","null","","200","2133.1049998290837","yes","396.27499994821846","","target","",""
"","null","html-keyboard-response","250","548989","0.0-20.0-0.18","SS1604513259197","","null","","","","","","","","","","","","<img src=images/blank.png width =""500"" height = ""500"" style=""border:5px solid black"">","","",""
"","102.23000007681549","stimulus-presentation","251","549302","0.0-20.0-1.18","SS1604513259197","<img src='images/simple/4.png' width ='500' height = '500' style='border:5px solid black'>","40","mixed_complex_deviant","images/simple/10.png","images/simple/4.png","images/complex/6.png,images/complex/8.png,images/complex/18.png,images/complex/7.png,images/complex/13.png,images/complex/9.png,images/complex/3.png","2","null","","200","302.2300000768155","","","","background","",""
"","null","html-keyboard-response","252","550535","0.0-20.0-0.19","SS1604513259197","","null","","","","","","","","","","","","<img src=images/blank.png width =""500"" height = ""500"" style=""border:5px solid black"">","","",""
"","251.05000007897615","stimulus-presentation","253","550998","0.0-20.0-1.19","SS1604513259197","<img src='images/simple/4.png' width ='500' height = '500' style='border:5px solid black'>","40","mixed_complex_deviant","images/simple/10.png","images/simple/4.png","images/complex/6.png,images/complex/8.png,images/complex/18.png,images/complex/7.png,images/complex/13.png,images/complex/9.png,images/complex/3.png","2","null","","200","451.05000007897615","","","","background","",""
"","null","html-keyboard-response","254","552074","0.0-20.0-0.20","SS1604513259197","","null","","","","","","","","","","","","<img src=images/blank.png width =""500"" height = ""500"" style=""border:5px solid black"">","","",""
"","314.59999992512167","stimulus-presentation","255","552607","0.0-20.0-1.20","SS1604513259197","<img src='images/complex/8.png' width ='500' height = '500' style='border:5px solid black'>","40","mixed_complex_deviant","images/simple/10.png","images/simple/4.png","images/complex/6.png,images/complex/8.png,images/complex/18.png,images/complex/7.png,images/complex/13.png,images/complex/9.png,images/complex/3.png","2","null","","200","514.5999999251217","","","","deviant","",""
"","null","html-keyboard-response","256","553672","0.0-20.0-0.21","SS1604513259197","","null","","","","","","","","","","","","<img src=images/blank.png width =""500"" height = ""500"" style=""border:5px solid black"">","","",""
"","250.00500003807247","stimulus-presentation","257","554134","0.0-20.0-1.21","SS1604513259197","<img src='images/simple/4.png' width ='500' height = '500' style='border:5px solid black'>","40","mixed_complex_deviant","images/simple/10.png","images/simple/4.png","images/complex/6.png,images/complex/8.png,images/complex/18.png,images/complex/7.png,images/complex/13.png,images/complex/9.png,images/complex/3.png","2","null","","200","450.00500003807247","","","","background","",""
"","null","html-keyboard-response","258","555208","0.0-20.0-0.22","SS1604513259197","","null","","","","","","","","","","","","<img src=images/blank.png width =""500"" height = ""500"" style=""border:5px solid black"">","","",""
"","2001.285000005737","stimulus-presentation","259","557422","0.0-20.0-1.22","SS1604513259197","<img src='images/simple/10.png' width ='500' height = '500' style='border:5px solid black'>","40","mixed_complex_deviant","images/simple/10.png","images/simple/4.png","images/complex/6.png,images/complex/8.png,images/complex/18.png,images/complex/7.png,images/complex/13.png,images/complex/9.png,images/complex/3.png","2","null","","200","2201.285000005737","yes","370.92500017024577","","target","",""
"","null","html-keyboard-response","260","558350","0.0-20.0-0.23","SS1604513259197","","null","","","","","","","","","","","","<img src=images/blank.png width =""500"" height = ""500"" style=""border:5px solid black"">","","",""
"","100.89499992318451","stimulus-presentation","261","558662","0.0-20.0-1.23","SS1604513259197","<img src='images/simple/10.png' width ='500' height = '500' style='border:5px solid black'>","40","mixed_complex_deviant","images/simple/10.png","images/simple/4.png","images/complex/6.png,images/complex/8.png,images/complex/18.png,images/complex/7.png,images/complex/13.png,images/complex/9.png,images/complex/3.png","2","null","","200","300.8949999231845","","","","target","",""
"","null","html-keyboard-response","262","559691","0.0-20.0-0.24","SS1604513259197","","null","","","","","","","","","","","","<img src=images/blank.png width =""500"" height = ""500"" style=""border:5px solid black"">","","",""
"","319.27999993786216","stimulus-presentation","263","560222","0.0-20.0-1.24","SS1604513259197","<img src='images/simple/4.png' width ='500' height = '500' style='border:5px solid black'>","40","mixed_complex_deviant","images/simple/10.png","images/simple/4.png","images/complex/6.png,images/complex/8.png,images/complex/18.png,images/complex/7.png,images/complex/13.png,images/complex/9.png,images/complex/3.png","2","null","","200","519.2799999378622","","","","background","",""
"","null","html-keyboard-response","264","561227","0.0-20.0-0.25","SS1604513259197","","null","","","","","","","","","","","","<img src=images/blank.png width =""500"" height = ""500"" style=""border:5px solid black"">","","",""
"","222.58500009775162","stimulus-presentation","265","561662","0.0-20.0-1.25","SS1604513259197","<img src='images/simple/4.png' width ='500' height = '500' style='border:5px solid black'>","40","mixed_complex_deviant","images/simple/10.png","images/simple/4.png","images/complex/6.png,images/complex/8.png,images/complex/18.png,images/complex/7.png,images/complex/13.png,images/complex/9.png,images/complex/3.png","2","null","","200","422.5850000977516","","","","background","",""
"","null","html-keyboard-response","266","562857","0.0-20.0-0.26","SS1604513259197","","null","","","","","","","","","","","","<img src=images/blank.png width =""500"" height = ""500"" style=""border:5px solid black"">","","",""
"","116.0249998793006","stimulus-presentation","267","563189","0.0-20.0-1.26","SS1604513259197","<img src='images/simple/4.png' width ='500' height = '500' style='border:5px solid black'>","40","mixed_complex_deviant","images/simple/10.png","images/simple/4.png","images/complex/6.png,images/complex/8.png,images/complex/18.png,images/complex/7.png,images/complex/13.png,images/complex/9.png,images/complex/3.png","2","null","","200","316.0249998793006","","","","background","",""
"","null","html-keyboard-response","268","564231","0.0-20.0-0.27","SS1604513259197","","null","","","","","","","","","","","","<img src=images/blank.png width =""500"" height = ""500"" style=""border:5px solid black"">","","",""
"","161.6199999116361","stimulus-presentation","269","564606","0.0-20.0-1.27","SS1604513259197","<img src='images/simple/4.png' width ='500' height = '500' style='border:5px solid black'>","40","mixed_complex_deviant","images/simple/10.png","images/simple/4.png","images/complex/6.png,images/complex/8.png,images/complex/18.png,images/complex/7.png,images/complex/13.png,images/complex/9.png,images/complex/3.png","2","null","","200","361.6199999116361","","","","background","",""
"","null","html-keyboard-response","270","565649","0.0-20.0-0.28","SS1604513259197","","null","","","","","","","","","","","","<img src=images/blank.png width =""500"" height = ""500"" style=""border:5px solid black"">","","",""
"","145.17500018700957","stimulus-presentation","271","566007","0.0-20.0-1.28","SS1604513259197","<img src='images/simple/4.png' width ='500' height = '500' style='border:5px solid black'>","40","mixed_complex_deviant","images/simple/10.png","images/simple/4.png","images/complex/6.png,images/complex/8.png,images/complex/18.png,images/complex/7.png,images/complex/13.png,images/complex/9.png,images/complex/3.png","2","null","","200","345.1750001870096","","","","background","",""
"","null","html-keyboard-response","272","567274","0.0-20.0-0.29","SS1604513259197","","null","","","","","","","","","","","","<img src=images/blank.png width =""500"" height = ""500"" style=""border:5px solid black"">","","",""
"","511.56000001356006","stimulus-presentation","273","567998","0.0-20.0-1.29","SS1604513259197","<img src='images/complex/13.png' width ='500' height = '500' style='border:5px solid black'>","40","mixed_complex_deviant","images/simple/10.png","images/simple/4.png","images/complex/6.png,images/complex/8.png,images/complex/18.png,images/complex/7.png,images/complex/13.png,images/complex/9.png,images/complex/3.png","2","null","","200","711.56000001356","","","","deviant","",""
"","null","html-keyboard-response","274","568996","0.0-20.0-0.30","SS1604513259197","","null","","","","","","","","","","","","<img src=images/blank.png width =""500"" height = ""500"" style=""border:5px solid black"">","","",""
"","1566.090000094846","stimulus-presentation","275","570774","0.0-20.0-1.30","SS1604513259197","<img src='images/simple/10.png' width ='500' height = '500' style='border:5px solid black'>","40","mixed_complex_deviant","images/simple/10.png","images/simple/4.png","images/complex/6.png,images/complex/8.png,images/complex/18.png,images/complex/7.png,images/complex/13.png,images/complex/9.png,images/complex/3.png","2","null","","200","1766.090000094846","yes","389.8100000806153","","target","",""
"","null","html-keyboard-response","276","571915","0.0-20.0-0.31","SS1604513259197","","null","","","","","","","","","","","","<img src=images/blank.png width =""500"" height = ""500"" style=""border:5px solid black"">","","",""
"","478.85499987751245","stimulus-presentation","277","572607","0.0-20.0-1.31","SS1604513259197","<img src='images/simple/4.png' width ='500' height = '500' style='border:5px solid black'>","40","mixed_complex_deviant","images/simple/10.png","images/simple/4.png","images/complex/6.png,images/complex/8.png,images/complex/18.png,images/complex/7.png,images/complex/13.png,images/complex/9.png,images/complex/3.png","2","null","","200","678.8549998775125","","","","background","",""
"","null","html-keyboard-response","278","573827","0.0-20.0-0.32","SS1604513259197","","null","","","","","","","","","","","","<img src=images/blank.png width =""500"" height = ""500"" style=""border:5px solid black"">","","",""
"","126.47000001743436","stimulus-presentation","279","574166","0.0-20.0-1.32","SS1604513259197","<img src='images/simple/4.png' width ='500' height = '500' style='border:5px solid black'>","40","mixed_complex_deviant","images/simple/10.png","images/simple/4.png","images/complex/6.png,images/complex/8.png,images/complex/18.png,images/complex/7.png,images/complex/13.png,images/complex/9.png,images/complex/3.png","2","null","","200","326.47000001743436","","","","background","",""
"","null","html-keyboard-response","280","575473","0.0-20.0-0.33","SS1604513259197","","null","","","","","","","","","","","","<img src=images/blank.png width =""500"" height = ""500"" style=""border:5px solid black"">","","",""
"","113.66000003181398","stimulus-presentation","281","575798","0.0-20.0-1.33","SS1604513259197","<img src='images/simple/4.png' width ='500' height = '500' style='border:5px solid black'>","40","mixed_complex_deviant","images/simple/10.png","images/simple/4.png","images/complex/6.png,images/complex/8.png,images/complex/18.png,images/complex/7.png,images/complex/13.png,images/complex/9.png,images/complex/3.png","2","null","","200","313.660000031814","","","","background","",""
"","null","html-keyboard-response","282","576887","0.0-20.0-0.34","SS1604513259197","","null","","","","","","","","","","","","<img src=images/blank.png width =""500"" height = ""500"" style=""border:5px solid black"">","","",""
