"view_history","rt","trial_type","trial_index","time_elapsed","internal_node_id","subject","trial_stimulus","key_press","task_type","task_target_stimulus","task_background_stimulus","task_deviant_stimuli","task_order_number","block_order_number","trial_order_number","minimum_viewing_duration","trial_looking_time","trial_pressed_space_bar","trial_space_bar_rt","stimulus","trial_stimulus_type","responses","question_order"
"[{""page_index"":0,""viewing_time"":1742.0799999963492}]","1742.435000021942","instructions","0","1766","0.0-0.0","SS1604514513800","","","","","","","","","","","","","","","","",""
"[{""page_index"":0,""viewing_time"":6582.255000015721},{""page_index"":1,""viewing_time"":7073.599999886937},{""page_index"":2,""viewing_time"":9648.85000011418},{""page_index"":3,""viewing_time"":7243.269999977201},{""page_index"":4,""viewing_time"":5114.300000015646},{""page_index"":5,""viewing_time"":8094.129999983124},{""page_index"":6,""viewing_time"":5523.730000015348},{""page_index"":7,""viewing_time"":10439.799999934621},{""page_index"":8,""viewing_time"":2746.045000036247}]","62466.305000009015","instructions","1","64237","0.0-1.0","SS1604514513800","","","","","","","","","","","","","","","","",""
"[{""page_index"":0,""viewing_time"":7965.985000017099},{""page_index"":1,""viewing_time"":14230.20499991253},{""page_index"":2,""viewing_time"":1718.9800000051036}]","23915.41999997571","instructions","2","88154","0.0-2.0","SS1604514513800","","","","","","","","","","","","","","","","",""
"","1719.7799999266863","practice-block","3","90077","0.0-3.0","SS1604514513800","<img src='images/practice/practice_background.jpeg' width ='500' height = '500' style='border:5px solid black'>","40","null","images/practice/practice_target.jpg","null","null","null","null","","200","1919.7799999266863","","","","","",""
"","null","html-keyboard-response","4","91204","0.0-4.0","SS1604514513800","","null","","","","","","","","","","","","<img src=images/blank.png width =""500"" height = ""500"" style=""border:5px solid black"">","","",""
"","707.4600000632927","practice-block","5","92116","0.0-5.0","SS1604514513800","<img src='images/practice/practice_background.jpeg' width ='500' height = '500' style='border:5px solid black'>","40","null","images/practice/practice_target.jpg","null","null","null","null","","200","907.4600000632927","","","","","",""
"","null","html-keyboard-response","6","92930","0.0-6.0","SS1604514513800","","null","","","","","","","","","","","","<img src=images/blank.png width =""500"" height = ""500"" style=""border:5px solid black"">","","",""
"","1632.2200000286102","practice-block","7","94764","0.0-7.0","SS1604514513800","<img src='images/practice/practice_deviant.jpeg' width ='500' height = '500' style='border:5px solid black'>","40","null","images/practice/practice_target.jpg","null","null","null","null","","200","1832.2200000286102","","","","","",""
"","null","html-keyboard-response","8","95892","0.0-8.0","SS1604514513800","","null","","","","","","","","","","","","<img src=images/blank.png width =""500"" height = ""500"" style=""border:5px solid black"">","","",""
"","4900.8900000480935","practice-block","9","100996","0.0-9.0-0.0","SS1604514513800","<img src='images/practice/practice_target.jpg' width ='500' height = '500' style='border:5px solid black'>","40","null","images/practice/practice_target.jpg","null","null","null","null","","200","5100.8900000480935","yes","556.8500000517815","","","",""
"","null","html-keyboard-response","10","101914","0.0-10.0","SS1604514513800","","null","","","","","","","","","","","","<img src=images/blank.png width =""500"" height = ""500"" style=""border:5px solid black"">","","",""
"","446.8699999852106","practice-block","11","102564","0.0-11.0","SS1604514513800","<img src='images/practice/practice_background.jpeg' width ='500' height = '500' style='border:5px solid black'>","40","null","images/practice/practice_target.jpg","null","null","null","null","","200","646.8699999852106","","","","","",""
"[{""page_index"":0,""viewing_time"":3028}]","3028","task-instructions","12","105594","0.0-12.0","SS1604514513800","","","","","","","","","","","","","","","","",""
"[{""page_index"":0,""viewing_time"":6389.095000107773},{""page_index"":1,""viewing_time"":11447.90499994997},{""page_index"":2,""viewing_time"":1928.070000023581}]","19765.32500004396","instructions","13","125363","0.0-13.0","SS1604514513800","","","","","","","","","","","","","","","","",""
"","null","html-keyboard-response","14","126292","0.0-14.0-0.0","SS1604514513800","","null","","","","","","","","","","","","<img src=images/blank.png width =""500"" height = ""500"" style=""border:5px solid black"">","","",""
"","1030.9000000124797","stimulus-presentation","15","127527","0.0-14.0-1.0","SS1604514513800","<img src='images/complex/11.png' width ='500' height = '500' style='border:5px solid black'>","40","mixed_simple_deviant","images/complex/6.png","images/complex/11.png","images/simple/2.png,images/simple/10.png,images/simple/1.png,images/simple/14.png,images/simple/7.png,images/simple/9.png,images/simple/6.png","0","null","","200","1230.9000000124797","","","","background","",""
"","null","html-keyboard-response","16","128490","0.0-14.0-0.1","SS1604514513800","","null","","","","","","","","","","","","<img src=images/blank.png width =""500"" height = ""500"" style=""border:5px solid black"">","","",""
"","3817.4550000112504","stimulus-presentation","17","132510","0.0-14.0-1.1","SS1604514513800","<img src='images/complex/6.png' width ='500' height = '500' style='border:5px solid black'>","40","mixed_simple_deviant","images/complex/6.png","images/complex/11.png","images/simple/2.png,images/simple/10.png,images/simple/1.png,images/simple/14.png,images/simple/7.png,images/simple/9.png,images/simple/6.png","0","null","","200","4017.4550000112504","yes","2473.564999992959","","target","",""
"","null","html-keyboard-response","18","133686","0.0-14.0-0.2","SS1604514513800","","null","","","","","","","","","","","","<img src=images/blank.png width =""500"" height = ""500"" style=""border:5px solid black"">","","",""
"","596.6049999697134","stimulus-presentation","19","134486","0.0-14.0-1.2","SS1604514513800","<img src='images/complex/11.png' width ='500' height = '500' style='border:5px solid black'>","40","mixed_simple_deviant","images/complex/6.png","images/complex/11.png","images/simple/2.png,images/simple/10.png,images/simple/1.png,images/simple/14.png,images/simple/7.png,images/simple/9.png,images/simple/6.png","0","null","","200","796.6049999697134","","","","background","",""
"","null","html-keyboard-response","20","135432","0.0-14.0-0.3","SS1604514513800","","null","","","","","","","","","","","","<img src=images/blank.png width =""500"" height = ""500"" style=""border:5px solid black"">","","",""
"","665.2349999640137","stimulus-presentation","21","136301","0.0-14.0-1.3","SS1604514513800","<img src='images/complex/11.png' width ='500' height = '500' style='border:5px solid black'>","40","mixed_simple_deviant","images/complex/6.png","images/complex/11.png","images/simple/2.png,images/simple/10.png,images/simple/1.png,images/simple/14.png,images/simple/7.png,images/simple/9.png,images/simple/6.png","0","null","","200","865.2349999640137","","","","background","",""
"","null","html-keyboard-response","22","137464","0.0-14.0-0.4","SS1604514513800","","null","","","","","","","","","","","","<img src=images/blank.png width =""500"" height = ""500"" style=""border:5px solid black"">","","",""
"","507.74999998975545","stimulus-presentation","23","138174","0.0-14.0-1.4","SS1604514513800","<img src='images/complex/11.png' width ='500' height = '500' style='border:5px solid black'>","40","mixed_simple_deviant","images/complex/6.png","images/complex/11.png","images/simple/2.png,images/simple/10.png,images/simple/1.png,images/simple/14.png,images/simple/7.png,images/simple/9.png,images/simple/6.png","0","null","","200","707.7499999897555","","","","background","",""
"","null","html-keyboard-response","24","139159","0.0-14.0-0.5","SS1604514513800","","null","","","","","","","","","","","","<img src=images/blank.png width =""500"" height = ""500"" style=""border:5px solid black"">","","",""
"","596.7800000216812","stimulus-presentation","25","139958","0.0-14.0-1.5","SS1604514513800","<img src='images/simple/7.png' width ='500' height = '500' style='border:5px solid black'>","40","mixed_simple_deviant","images/complex/6.png","images/complex/11.png","images/simple/2.png,images/simple/10.png,images/simple/1.png,images/simple/14.png,images/simple/7.png,images/simple/9.png,images/simple/6.png","0","null","","200","796.7800000216812","","","","deviant","",""
"","null","html-keyboard-response","26","140772","0.0-14.0-0.6","SS1604514513800","","null","","","","","","","","","","","","<img src=images/blank.png width =""500"" height = ""500"" style=""border:5px solid black"">","","",""
"","4302.685000002384","stimulus-presentation","27","145278","0.0-14.0-1.6","SS1604514513800","<img src='images/complex/6.png' width ='500' height = '500' style='border:5px solid black'>","40","mixed_simple_deviant","images/complex/6.png","images/complex/11.png","images/simple/2.png,images/simple/10.png,images/simple/1.png,images/simple/14.png,images/simple/7.png,images/simple/9.png,images/simple/6.png","0","null","","200","4502.685000002384","yes","470.78000009059906","","target","",""
"","null","html-keyboard-response","28","146348","0.0-14.0-0.7","SS1604514513800","","null","","","","","","","","","","","","<img src=images/blank.png width =""500"" height = ""500"" style=""border:5px solid black"">","","",""
"","511.18499995209277","stimulus-presentation","29","147063","0.0-14.0-1.7","SS1604514513800","<img src='images/complex/11.png' width ='500' height = '500' style='border:5px solid black'>","40","mixed_simple_deviant","images/complex/6.png","images/complex/11.png","images/simple/2.png,images/simple/10.png,images/simple/1.png,images/simple/14.png,images/simple/7.png,images/simple/9.png,images/simple/6.png","0","null","","200","711.1849999520928","","","","background","",""
"","null","html-keyboard-response","30","148294","0.0-14.0-0.8","SS1604514513800","","null","","","","","","","","","","","","<img src=images/blank.png width =""500"" height = ""500"" style=""border:5px solid black"">","","",""
"","356.72499996144325","stimulus-presentation","31","148854","0.0-14.0-1.8","SS1604514513800","<img src='images/complex/11.png' width ='500' height = '500' style='border:5px solid black'>","40","mixed_simple_deviant","images/complex/6.png","images/complex/11.png","images/simple/2.png,images/simple/10.png,images/simple/1.png,images/simple/14.png,images/simple/7.png,images/simple/9.png,images/simple/6.png","0","null","","200","556.7249999614432","","","","background","",""
"","null","html-keyboard-response","32","149988","0.0-14.0-0.9","SS1604514513800","","null","","","","","","","","","","","","<img src=images/blank.png width =""500"" height = ""500"" style=""border:5px solid black"">","","",""
"","390.5849999282509","stimulus-presentation","33","150582","0.0-14.0-1.9","SS1604514513800","<img src='images/complex/11.png' width ='500' height = '500' style='border:5px solid black'>","40","mixed_simple_deviant","images/complex/6.png","images/complex/11.png","images/simple/2.png,images/simple/10.png,images/simple/1.png,images/simple/14.png,images/simple/7.png,images/simple/9.png,images/simple/6.png","0","null","","200","590.5849999282509","","","","background","",""
"","null","html-keyboard-response","34","151480","0.0-14.0-0.10","SS1604514513800","","null","","","","","","","","","","","","<img src=images/blank.png width =""500"" height = ""500"" style=""border:5px solid black"">","","",""
"","410.3100000647828","stimulus-presentation","35","152094","0.0-14.0-1.10","SS1604514513800","<img src='images/complex/11.png' width ='500' height = '500' style='border:5px solid black'>","40","mixed_simple_deviant","images/complex/6.png","images/complex/11.png","images/simple/2.png,images/simple/10.png,images/simple/1.png,images/simple/14.png,images/simple/7.png,images/simple/9.png,images/simple/6.png","0","null","","200","610.3100000647828","","","","background","",""
"","null","html-keyboard-response","36","153350","0.0-14.0-0.11","SS1604514513800","","null","","","","","","","","","","","","<img src=images/blank.png width =""500"" height = ""500"" style=""border:5px solid black"">","","",""
"","629.7999999951571","stimulus-presentation","37","154182","0.0-14.0-1.11","SS1604514513800","<img src='images/complex/11.png' width ='500' height = '500' style='border:5px solid black'>","40","mixed_simple_deviant","images/complex/6.png","images/complex/11.png","images/simple/2.png,images/simple/10.png,images/simple/1.png,images/simple/14.png,images/simple/7.png,images/simple/9.png,images/simple/6.png","0","null","","200","829.7999999951571","","","","background","",""
"","null","html-keyboard-response","38","155447","0.0-14.0-0.12","SS1604514513800","","null","","","","","","","","","","","","<img src=images/blank.png width =""500"" height = ""500"" style=""border:5px solid black"">","","",""
"","1043.9300000434741","stimulus-presentation","39","156694","0.0-14.0-1.12","SS1604514513800","<img src='images/simple/2.png' width ='500' height = '500' style='border:5px solid black'>","40","mixed_simple_deviant","images/complex/6.png","images/complex/11.png","images/simple/2.png,images/simple/10.png,images/simple/1.png,images/simple/14.png,images/simple/7.png,images/simple/9.png,images/simple/6.png","0","null","","200","1243.9300000434741","","","","deviant","",""
"","null","html-keyboard-response","40","157537","0.0-14.0-0.13","SS1604514513800","","null","","","","","","","","","","","","<img src=images/blank.png width =""500"" height = ""500"" style=""border:5px solid black"">","","",""
"","361.98499996680766","stimulus-presentation","41","158102","0.0-14.0-1.13","SS1604514513800","<img src='images/complex/11.png' width ='500' height = '500' style='border:5px solid black'>","40","mixed_simple_deviant","images/complex/6.png","images/complex/11.png","images/simple/2.png,images/simple/10.png,images/simple/1.png,images/simple/14.png,images/simple/7.png,images/simple/9.png,images/simple/6.png","0","null","","200","561.9849999668077","","","","background","",""
"","null","html-keyboard-response","42","158990","0.0-14.0-0.14","SS1604514513800","","null","","","","","","","","","","","","<img src=images/blank.png width =""500"" height = ""500"" style=""border:5px solid black"">","","",""
"","2140.8799999626353","stimulus-presentation","43","161334","0.0-14.0-1.14","SS1604514513800","<img src='images/complex/6.png' width ='500' height = '500' style='border:5px solid black'>","40","mixed_simple_deviant","images/complex/6.png","images/complex/11.png","images/simple/2.png,images/simple/10.png,images/simple/1.png,images/simple/14.png,images/simple/7.png,images/simple/9.png,images/simple/6.png","0","null","","200","2340.8799999626353","yes","460.5250000022352","","target","",""
"","null","html-keyboard-response","44","162159","0.0-14.0-0.15","SS1604514513800","","null","","","","","","","","","","","","<img src=images/blank.png width =""500"" height = ""500"" style=""border:5px solid black"">","","",""
"","371.3399999542162","stimulus-presentation","45","162734","0.0-14.0-1.15","SS1604514513800","<img src='images/complex/11.png' width ='500' height = '500' style='border:5px solid black'>","40","mixed_simple_deviant","images/complex/6.png","images/complex/11.png","images/simple/2.png,images/simple/10.png,images/simple/1.png,images/simple/14.png,images/simple/7.png,images/simple/9.png,images/simple/6.png","0","null","","200","571.3399999542162","","","","background","",""
"","null","html-keyboard-response","46","163715","0.0-14.0-0.16","SS1604514513800","","null","","","","","","","","","","","","<img src=images/blank.png width =""500"" height = ""500"" style=""border:5px solid black"">","","",""
"","784.0200000209734","stimulus-presentation","47","164702","0.0-14.0-1.16","SS1604514513800","<img src='images/simple/14.png' width ='500' height = '500' style='border:5px solid black'>","40","mixed_simple_deviant","images/complex/6.png","images/complex/11.png","images/simple/2.png,images/simple/10.png,images/simple/1.png,images/simple/14.png,images/simple/7.png,images/simple/9.png,images/simple/6.png","0","null","","200","984.0200000209734","","","","deviant","",""
"","null","html-keyboard-response","48","165837","0.0-14.0-0.17","SS1604514513800","","null","","","","","","","","","","","","<img src=images/blank.png width =""500"" height = ""500"" style=""border:5px solid black"">","","",""
"","432.12999997194856","stimulus-presentation","49","166474","0.0-14.0-1.17","SS1604514513800","<img src='images/complex/11.png' width ='500' height = '500' style='border:5px solid black'>","40","mixed_simple_deviant","images/complex/6.png","images/complex/11.png","images/simple/2.png,images/simple/10.png,images/simple/1.png,images/simple/14.png,images/simple/7.png,images/simple/9.png,images/simple/6.png","0","null","","200","632.1299999719486","","","","background","",""
"","null","html-keyboard-response","50","167762","0.0-14.0-0.18","SS1604514513800","","null","","","","","","","","","","","","<img src=images/blank.png width =""500"" height = ""500"" style=""border:5px solid black"">","","",""
"","369.20999991707504","stimulus-presentation","51","168335","0.0-14.0-1.18","SS1604514513800","<img src='images/complex/11.png' width ='500' height = '500' style='border:5px solid black'>","40","mixed_simple_deviant","images/complex/6.png","images/complex/11.png","images/simple/2.png,images/simple/10.png,images/simple/1.png,images/simple/14.png,images/simple/7.png,images/simple/9.png,images/simple/6.png","0","null","","200","569.209999917075","","","","background","",""
"","null","html-keyboard-response","52","169535","0.0-14.0-0.19","SS1604514513800","","null","","","","","","","","","","","","<img src=images/blank.png width =""500"" height = ""500"" style=""border:5px solid black"">","","",""
"","379.5299999183044","stimulus-presentation","53","170118","0.0-14.0-1.19","SS1604514513800","<img src='images/complex/11.png' width ='500' height = '500' style='border:5px solid black'>","40","mixed_simple_deviant","images/complex/6.png","images/complex/11.png","images/simple/2.png,images/simple/10.png,images/simple/1.png,images/simple/14.png,images/simple/7.png,images/simple/9.png,images/simple/6.png","0","null","","200","579.5299999183044","","","","background","",""
"","null","html-keyboard-response","54","171121","0.0-14.0-0.20","SS1604514513800","","null","","","","","","","","","","","","<img src=images/blank.png width =""500"" height = ""500"" style=""border:5px solid black"">","","",""
"","953.635000041686","stimulus-presentation","55","172278","0.0-14.0-1.20","SS1604514513800","<img src='images/simple/10.png' width ='500' height = '500' style='border:5px solid black'>","40","mixed_simple_deviant","images/complex/6.png","images/complex/11.png","images/simple/2.png,images/simple/10.png,images/simple/1.png,images/simple/14.png,images/simple/7.png,images/simple/9.png,images/simple/6.png","0","null","","200","1153.635000041686","","","","deviant","",""
"","null","html-keyboard-response","56","173499","0.0-14.0-0.21","SS1604514513800","","null","","","","","","","","","","","","<img src=images/blank.png width =""500"" height = ""500"" style=""border:5px solid black"">","","",""
"","407.7250000555068","stimulus-presentation","57","174110","0.0-14.0-1.21","SS1604514513800","<img src='images/complex/11.png' width ='500' height = '500' style='border:5px solid black'>","40","mixed_simple_deviant","images/complex/6.png","images/complex/11.png","images/simple/2.png,images/simple/10.png,images/simple/1.png,images/simple/14.png,images/simple/7.png,images/simple/9.png,images/simple/6.png","0","null","","200","607.7250000555068","","","","background","",""
"","null","html-keyboard-response","58","175171","0.0-14.0-0.22","SS1604514513800","","null","","","","","","","","","","","","<img src=images/blank.png width =""500"" height = ""500"" style=""border:5px solid black"">","","",""
"","1062.6850000116974","stimulus-presentation","59","176438","0.0-14.0-1.22","SS1604514513800","<img src='images/complex/6.png' width ='500' height = '500' style='border:5px solid black'>","40","mixed_simple_deviant","images/complex/6.png","images/complex/11.png","images/simple/2.png,images/simple/10.png,images/simple/1.png,images/simple/14.png,images/simple/7.png,images/simple/9.png,images/simple/6.png","0","null","","200","1262.6850000116974","yes","366.00999999791384","","target","",""
"","null","html-keyboard-response","60","177364","0.0-14.0-0.23","SS1604514513800","","null","","","","","","","","","","","","<img src=images/blank.png width =""500"" height = ""500"" style=""border:5px solid black"">","","",""
"","1455.1100000971928","stimulus-presentation","61","179023","0.0-14.0-1.23","SS1604514513800","<img src='images/complex/6.png' width ='500' height = '500' style='border:5px solid black'>","40","mixed_simple_deviant","images/complex/6.png","images/complex/11.png","images/simple/2.png,images/simple/10.png,images/simple/1.png,images/simple/14.png,images/simple/7.png,images/simple/9.png,images/simple/6.png","0","null","","200","1655.1100000971928","yes","558.5850001079962","","target","",""
"","null","html-keyboard-response","62","179840","0.0-14.0-0.24","SS1604514513800","","null","","","","","","","","","","","","<img src=images/blank.png width =""500"" height = ""500"" style=""border:5px solid black"">","","",""
"","353.7149999756366","stimulus-presentation","63","180398","0.0-14.0-1.24","SS1604514513800","<img src='images/complex/11.png' width ='500' height = '500' style='border:5px solid black'>","40","mixed_simple_deviant","images/complex/6.png","images/complex/11.png","images/simple/2.png,images/simple/10.png,images/simple/1.png,images/simple/14.png,images/simple/7.png,images/simple/9.png,images/simple/6.png","0","null","","200","553.7149999756366","","","","background","",""
"","null","html-keyboard-response","64","181269","0.0-14.0-0.25","SS1604514513800","","null","","","","","","","","","","","","<img src=images/blank.png width =""500"" height = ""500"" style=""border:5px solid black"">","","",""
"","228.80999988410622","stimulus-presentation","65","181702","0.0-14.0-1.25","SS1604514513800","<img src='images/complex/11.png' width ='500' height = '500' style='border:5px solid black'>","40","mixed_simple_deviant","images/complex/6.png","images/complex/11.png","images/simple/2.png,images/simple/10.png,images/simple/1.png,images/simple/14.png,images/simple/7.png,images/simple/9.png,images/simple/6.png","0","null","","200","428.8099998841062","","","","background","",""
"","null","html-keyboard-response","66","182625","0.0-14.0-0.26","SS1604514513800","","null","","","","","","","","","","","","<img src=images/blank.png width =""500"" height = ""500"" style=""border:5px solid black"">","","",""
"","266.23000006657094","stimulus-presentation","67","183096","0.0-14.0-1.26","SS1604514513800","<img src='images/complex/11.png' width ='500' height = '500' style='border:5px solid black'>","40","mixed_simple_deviant","images/complex/6.png","images/complex/11.png","images/simple/2.png,images/simple/10.png,images/simple/1.png,images/simple/14.png,images/simple/7.png,images/simple/9.png,images/simple/6.png","0","null","","200","466.23000006657094","","","","background","",""
"","null","html-keyboard-response","68","184118","0.0-14.0-0.27","SS1604514513800","","null","","","","","","","","","","","","<img src=images/blank.png width =""500"" height = ""500"" style=""border:5px solid black"">","","",""
"","157.414999906905","stimulus-presentation","69","184481","0.0-14.0-1.27","SS1604514513800","<img src='images/complex/11.png' width ='500' height = '500' style='border:5px solid black'>","40","mixed_simple_deviant","images/complex/6.png","images/complex/11.png","images/simple/2.png,images/simple/10.png,images/simple/1.png,images/simple/14.png,images/simple/7.png,images/simple/9.png,images/simple/6.png","0","null","","200","357.414999906905","","","","background","",""
"","null","html-keyboard-response","70","185477","0.0-14.0-0.28","SS1604514513800","","null","","","","","","","","","","","","<img src=images/blank.png width =""500"" height = ""500"" style=""border:5px solid black"">","","",""
"","584.1449999716133","stimulus-presentation","71","186264","0.0-14.0-1.28","SS1604514513800","<img src='images/simple/6.png' width ='500' height = '500' style='border:5px solid black'>","40","mixed_simple_deviant","images/complex/6.png","images/complex/11.png","images/simple/2.png,images/simple/10.png,images/simple/1.png,images/simple/14.png,images/simple/7.png,images/simple/9.png,images/simple/6.png","0","null","","200","784.1449999716133","","","","deviant","",""
"","null","html-keyboard-response","72","187171","0.0-14.0-0.29","SS1604514513800","","null","","","","","","","","","","","","<img src=images/blank.png width =""500"" height = ""500"" style=""border:5px solid black"">","","",""
"","217.92500000447035","stimulus-presentation","73","187592","0.0-14.0-1.29","SS1604514513800","<img src='images/complex/11.png' width ='500' height = '500' style='border:5px solid black'>","40","mixed_simple_deviant","images/complex/6.png","images/complex/11.png","images/simple/2.png,images/simple/10.png,images/simple/1.png,images/simple/14.png,images/simple/7.png,images/simple/9.png,images/simple/6.png","0","null","","200","417.92500000447035","","","","background","",""
"","null","html-keyboard-response","74","188796","0.0-14.0-0.30","SS1604514513800","","null","","","","","","","","","","","","<img src=images/blank.png width =""500"" height = ""500"" style=""border:5px solid black"">","","",""
"","264.6599999861792","stimulus-presentation","75","189265","0.0-14.0-1.30","SS1604514513800","<img src='images/complex/11.png' width ='500' height = '500' style='border:5px solid black'>","40","mixed_simple_deviant","images/complex/6.png","images/complex/11.png","images/simple/2.png,images/simple/10.png,images/simple/1.png,images/simple/14.png,images/simple/7.png,images/simple/9.png,images/simple/6.png","0","null","","200","464.6599999861792","","","","background","",""
"","null","html-keyboard-response","76","190295","0.0-14.0-0.31","SS1604514513800","","null","","","","","","","","","","","","<img src=images/blank.png width =""500"" height = ""500"" style=""border:5px solid black"">","","",""
"","326.5849999152124","stimulus-presentation","77","190825","0.0-14.0-1.31","SS1604514513800","<img src='images/complex/11.png' width ='500' height = '500' style='border:5px solid black'>","40","mixed_simple_deviant","images/complex/6.png","images/complex/11.png","images/simple/2.png,images/simple/10.png,images/simple/1.png,images/simple/14.png,images/simple/7.png,images/simple/9.png,images/simple/6.png","0","null","","200","526.5849999152124","","","","background","",""
"","null","html-keyboard-response","78","191822","0.0-14.0-0.32","SS1604514513800","","null","","","","","","","","","","","","<img src=images/blank.png width =""500"" height = ""500"" style=""border:5px solid black"">","","",""
"","662.9699999466538","stimulus-presentation","79","192689","0.0-14.0-1.32","SS1604514513800","<img src='images/simple/9.png' width ='500' height = '500' style='border:5px solid black'>","40","mixed_simple_deviant","images/complex/6.png","images/complex/11.png","images/simple/2.png,images/simple/10.png,images/simple/1.png,images/simple/14.png,images/simple/7.png,images/simple/9.png,images/simple/6.png","0","null","","200","862.9699999466538","","","","deviant","",""
"","null","html-keyboard-response","80","193722","0.0-14.0-0.33","SS1604514513800","","null","","","","","","","","","","","","<img src=images/blank.png width =""500"" height = ""500"" style=""border:5px solid black"">","","",""
"","235.52999994717538","stimulus-presentation","81","194160","0.0-14.0-1.33","SS1604514513800","<img src='images/complex/11.png' width ='500' height = '500' style='border:5px solid black'>","40","mixed_simple_deviant","images/complex/6.png","images/complex/11.png","images/simple/2.png,images/simple/10.png,images/simple/1.png,images/simple/14.png,images/simple/7.png,images/simple/9.png,images/simple/6.png","0","null","","200","435.5299999471754","","","","background","",""
"","null","html-keyboard-response","82","195150","0.0-14.0-0.34","SS1604514513800","","null","","","","","","","","","","","","<img src=images/blank.png width =""500"" height = ""500"" style=""border:5px solid black"">","","",""
"","271.6549999313429","stimulus-presentation","83","195625","0.0-14.0-1.34","SS1604514513800","<img src='images/complex/11.png' width ='500' height = '500' style='border:5px solid black'>","40","mixed_simple_deviant","images/complex/6.png","images/complex/11.png","images/simple/2.png,images/simple/10.png,images/simple/1.png,images/simple/14.png,images/simple/7.png,images/simple/9.png,images/simple/6.png","0","null","","200","471.6549999313429","","","","background","",""
"","null","html-keyboard-response","84","196493","0.0-14.0-0.35","SS1604514513800","","null","","","","","","","","","","","","<img src=images/blank.png width =""500"" height = ""500"" style=""border:5px solid black"">","","",""
"","264.07999999355525","stimulus-presentation","85","196960","0.0-14.0-1.35","SS1604514513800","<img src='images/complex/11.png' width ='500' height = '500' style='border:5px solid black'>","40","mixed_simple_deviant","images/complex/6.png","images/complex/11.png","images/simple/2.png,images/simple/10.png,images/simple/1.png,images/simple/14.png,images/simple/7.png,images/simple/9.png,images/simple/6.png","0","null","","200","464.07999999355525","","","","background","",""
"","null","html-keyboard-response","86","197945","0.0-14.0-0.36","SS1604514513800","","null","","","","","","","","","","","","<img src=images/blank.png width =""500"" height = ""500"" style=""border:5px solid black"">","","",""
"","259.70000005327165","stimulus-presentation","87","198409","0.0-14.0-1.36","SS1604514513800","<img src='images/complex/11.png' width ='500' height = '500' style='border:5px solid black'>","40","mixed_simple_deviant","images/complex/6.png","images/complex/11.png","images/simple/2.png,images/simple/10.png,images/simple/1.png,images/simple/14.png,images/simple/7.png,images/simple/9.png,images/simple/6.png","0","null","","200","459.70000005327165","","","","background","",""
"","null","html-keyboard-response","88","199655","0.0-14.0-0.37","SS1604514513800","","null","","","","","","","","","","","","<img src=images/blank.png width =""500"" height = ""500"" style=""border:5px solid black"">","","",""
"","591.539999935776","stimulus-presentation","89","200449","0.0-14.0-1.37","SS1604514513800","<img src='images/simple/1.png' width ='500' height = '500' style='border:5px solid black'>","40","mixed_simple_deviant","images/complex/6.png","images/complex/11.png","images/simple/2.png,images/simple/10.png,images/simple/1.png,images/simple/14.png,images/simple/7.png,images/simple/9.png,images/simple/6.png","0","null","","200","791.539999935776","","","","deviant","",""
"","null","html-keyboard-response","90","201384","0.0-14.0-0.38","SS1604514513800","","null","","","","","","","","","","","","<img src=images/blank.png width =""500"" height = ""500"" style=""border:5px solid black"">","","",""
"","300.3399999579415","stimulus-presentation","91","201888","0.0-14.0-1.38","SS1604514513800","<img src='images/complex/11.png' width ='500' height = '500' style='border:5px solid black'>","40","mixed_simple_deviant","images/complex/6.png","images/complex/11.png","images/simple/2.png,images/simple/10.png,images/simple/1.png,images/simple/14.png,images/simple/7.png,images/simple/9.png,images/simple/6.png","0","null","","200","500.3399999579415","","","","background","",""
"","null","html-keyboard-response","92","203152","0.0-14.0-0.39","SS1604514513800","","null","","","","","","","","","","","","<img src=images/blank.png width =""500"" height = ""500"" style=""border:5px solid black"">","","",""
"","615.2550000697374","stimulus-presentation","93","203970","0.0-14.0-1.39","SS1604514513800","<img src='images/complex/11.png' width ='500' height = '500' style='border:5px solid black'>","40","mixed_simple_deviant","images/complex/6.png","images/complex/11.png","images/simple/2.png,images/simple/10.png,images/simple/1.png,images/simple/14.png,images/simple/7.png,images/simple/9.png,images/simple/6.png","0","null","","200","815.2550000697374","","","","background","",""
"","null","html-keyboard-response","94","205020","0.0-14.0-0.40","SS1604514513800","","null","","","","","","","","","","","","<img src=images/blank.png width =""500"" height = ""500"" style=""border:5px solid black"">","","",""
"","207.4799999827519","stimulus-presentation","95","205432","0.0-14.0-1.40","SS1604514513800","<img src='images/complex/11.png' width ='500' height = '500' style='border:5px solid black'>","40","mixed_simple_deviant","images/complex/6.png","images/complex/11.png","images/simple/2.png,images/simple/10.png,images/simple/1.png,images/simple/14.png,images/simple/7.png,images/simple/9.png,images/simple/6.png","0","null","","200","407.4799999827519","","","","background","",""
"","null","html-keyboard-response","96","206726","0.0-14.0-0.41","SS1604514513800","","null","","","","","","","","","","","","<img src=images/blank.png width =""500"" height = ""500"" style=""border:5px solid black"">","","",""
"","895.4000000376254","stimulus-presentation","97","207825","0.0-14.0-1.41","SS1604514513800","<img src='images/complex/6.png' width ='500' height = '500' style='border:5px solid black'>","40","mixed_simple_deviant","images/complex/6.png","images/complex/11.png","images/simple/2.png,images/simple/10.png,images/simple/1.png,images/simple/14.png,images/simple/7.png,images/simple/9.png,images/simple/6.png","0","null","","200","1095.4000000376254","yes","311.51500006671995","","target","",""
"","null","html-keyboard-response","98","209030","0.0-14.0-0.42","SS1604514513800","","null","","","","","","","","","","","","<img src=images/blank.png width =""500"" height = ""500"" style=""border:5px solid black"">","","",""
"","312.13500001467764","stimulus-presentation","99","209545","0.0-14.0-1.42","SS1604514513800","<img src='images/complex/11.png' width ='500' height = '500' style='border:5px solid black'>","40","mixed_simple_deviant","images/complex/6.png","images/complex/11.png","images/simple/2.png,images/simple/10.png,images/simple/1.png,images/simple/14.png,images/simple/7.png,images/simple/9.png,images/simple/6.png","0","null","","200","512.1350000146776","","","","background","",""
"","null","html-keyboard-response","100","210655","0.0-14.0-0.43","SS1604514513800","","null","","","","","","","","","","","","<img src=images/blank.png width =""500"" height = ""500"" style=""border:5px solid black"">","","",""
"","183.28500003553927","stimulus-presentation","101","211041","0.0-14.0-1.43","SS1604514513800","<img src='images/complex/11.png' width ='500' height = '500' style='border:5px solid black'>","40","mixed_simple_deviant","images/complex/6.png","images/complex/11.png","images/simple/2.png,images/simple/10.png,images/simple/1.png,images/simple/14.png,images/simple/7.png,images/simple/9.png,images/simple/6.png","0","null","","200","383.28500003553927","","","","background","",""
"","null","html-keyboard-response","102","211976","0.0-14.0-0.44","SS1604514513800","","null","","","","","","","","","","","","<img src=images/blank.png width =""500"" height = ""500"" style=""border:5px solid black"">","","",""
"","341.6549999965355","stimulus-presentation","103","212521","0.0-14.0-1.44","SS1604514513800","<img src='images/complex/11.png' width ='500' height = '500' style='border:5px solid black'>","40","mixed_simple_deviant","images/complex/6.png","images/complex/11.png","images/simple/2.png,images/simple/10.png,images/simple/1.png,images/simple/14.png,images/simple/7.png,images/simple/9.png,images/simple/6.png","0","null","","200","541.6549999965355","","","","background","",""
"","null","html-keyboard-response","104","213665","0.0-14.0-0.45","SS1604514513800","","null","","","","","","","","","","","","<img src=images/blank.png width =""500"" height = ""500"" style=""border:5px solid black"">","","",""
"","260.4949999367818","stimulus-presentation","105","214128","0.0-14.0-1.45","SS1604514513800","<img src='images/complex/11.png' width ='500' height = '500' style='border:5px solid black'>","40","mixed_simple_deviant","images/complex/6.png","images/complex/11.png","images/simple/2.png,images/simple/10.png,images/simple/1.png,images/simple/14.png,images/simple/7.png,images/simple/9.png,images/simple/6.png","0","null","","200","460.4949999367818","","","","background","",""
"","null","html-keyboard-response","106","215398","0.0-14.0-0.46","SS1604514513800","","null","","","","","","","","","","","","<img src=images/blank.png width =""500"" height = ""500"" style=""border:5px solid black"">","","",""
"","230.73499999009073","stimulus-presentation","107","215833","0.0-14.0-1.46","SS1604514513800","<img src='images/complex/11.png' width ='500' height = '500' style='border:5px solid black'>","40","mixed_simple_deviant","images/complex/6.png","images/complex/11.png","images/simple/2.png,images/simple/10.png,images/simple/1.png,images/simple/14.png,images/simple/7.png,images/simple/9.png,images/simple/6.png","0","null","","200","430.7349999900907","","","","background","",""
"","null","html-keyboard-response","108","216840","0.0-14.0-0.47","SS1604514513800","","null","","","","","","","","","","","","<img src=images/blank.png width =""500"" height = ""500"" style=""border:5px solid black"">","","",""
"","1069.734999909997","stimulus-presentation","109","218113","0.0-14.0-1.47","SS1604514513800","<img src='images/complex/6.png' width ='500' height = '500' style='border:5px solid black'>","40","mixed_simple_deviant","images/complex/6.png","images/complex/11.png","images/simple/2.png,images/simple/10.png,images/simple/1.png,images/simple/14.png,images/simple/7.png,images/simple/9.png,images/simple/6.png","0","null","","200","1269.734999909997","yes","549.7549999272451","","target","",""
"","null","html-keyboard-response","110","218985","0.0-14.0-0.48","SS1604514513800","","null","","","","","","","","","","","","<img src=images/blank.png width =""500"" height = ""500"" style=""border:5px solid black"">","","",""
"","579.4349999632686","stimulus-presentation","111","219768","0.0-14.0-1.48","SS1604514513800","<img src='images/complex/11.png' width ='500' height = '500' style='border:5px solid black'>","40","mixed_simple_deviant","images/complex/6.png","images/complex/11.png","images/simple/2.png,images/simple/10.png,images/simple/1.png,images/simple/14.png,images/simple/7.png,images/simple/9.png,images/simple/6.png","0","null","","200","779.4349999632686","","","","background","",""
"[{""page_index"":0,""viewing_time"":3363}]","3363","task-instructions","112","223134","0.0-15.0","SS1604514513800","","","","","","","","","","","","","","","","",""
"[{""page_index"":0,""viewing_time"":7155.6750000454485},{""page_index"":1,""viewing_time"":3209.649999975227},{""page_index"":2,""viewing_time"":2237.829999998212}]","12603.415000019595","instructions","113","235740","0.0-16.0","SS1604514513800","","","","","","","","","","","","","","","","",""
"","null","html-keyboard-response","114","236720","0.0-17.0-0.0","SS1604514513800","","null","","","","","","","","","","","","<img src=images/blank.png width =""500"" height = ""500"" style=""border:5px solid black"">","","",""
"","941.495000035502","stimulus-presentation","115","237864","0.0-17.0-1.0","SS1604514513800","<img src='images/simple/4.png' width ='500' height = '500' style='border:5px solid black'>","40","all_simple","images/simple/12.png","images/simple/4.png","images/simple/11.png,images/simple/16.png,images/simple/5.png,images/simple/8.png,images/simple/13.png,images/simple/3.png,images/simple/17.png","1","null","","200","1141.495000035502","","","","background","",""
"","null","html-keyboard-response","116","239008","0.0-17.0-0.1","SS1604514513800","","null","","","","","","","","","","","","<img src=images/blank.png width =""500"" height = ""500"" style=""border:5px solid black"">","","",""
"","610.2250000694767","stimulus-presentation","117","239822","0.0-17.0-1.1","SS1604514513800","<img src='images/simple/4.png' width ='500' height = '500' style='border:5px solid black'>","40","all_simple","images/simple/12.png","images/simple/4.png","images/simple/11.png,images/simple/16.png,images/simple/5.png,images/simple/8.png,images/simple/13.png,images/simple/3.png,images/simple/17.png","1","null","","200","810.2250000694767","","","","background","",""
"","null","html-keyboard-response","118","240929","0.0-17.0-0.2","SS1604514513800","","null","","","","","","","","","","","","<img src=images/blank.png width =""500"" height = ""500"" style=""border:5px solid black"">","","",""
"","458.17499991972","stimulus-presentation","119","241591","0.0-17.0-1.2","SS1604514513800","<img src='images/simple/17.png' width ='500' height = '500' style='border:5px solid black'>","40","all_simple","images/simple/12.png","images/simple/4.png","images/simple/11.png,images/simple/16.png,images/simple/5.png,images/simple/8.png,images/simple/13.png,images/simple/3.png,images/simple/17.png","1","null","","200","658.17499991972","","","","deviant","",""
"","null","html-keyboard-response","120","242489","0.0-17.0-0.3","SS1604514513800","","null","","","","","","","","","","","","<img src=images/blank.png width =""500"" height = ""500"" style=""border:5px solid black"">","","",""
"","339.4799999659881","stimulus-presentation","121","243034","0.0-17.0-1.3","SS1604514513800","<img src='images/simple/4.png' width ='500' height = '500' style='border:5px solid black'>","40","all_simple","images/simple/12.png","images/simple/4.png","images/simple/11.png,images/simple/16.png,images/simple/5.png,images/simple/8.png,images/simple/13.png,images/simple/3.png,images/simple/17.png","1","null","","200","539.4799999659881","","","","background","",""
"","null","html-keyboard-response","122","243994","0.0-17.0-0.4","SS1604514513800","","null","","","","","","","","","","","","<img src=images/blank.png width =""500"" height = ""500"" style=""border:5px solid black"">","","",""
"","1084.63500009384","stimulus-presentation","123","245282","0.0-17.0-1.4","SS1604514513800","<img src='images/simple/12.png' width ='500' height = '500' style='border:5px solid black'>","40","all_simple","images/simple/12.png","images/simple/4.png","images/simple/11.png,images/simple/16.png,images/simple/5.png,images/simple/8.png,images/simple/13.png,images/simple/3.png,images/simple/17.png","1","null","","200","1284.63500009384","yes","397.08500006236136","","target","",""
"","null","html-keyboard-response","124","246168","0.0-17.0-0.5","SS1604514513800","","null","","","","","","","","","","","","<img src=images/blank.png width =""500"" height = ""500"" style=""border:5px solid black"">","","",""
"","292.93500003404915","stimulus-presentation","125","246666","0.0-17.0-1.5","SS1604514513800","<img src='images/simple/4.png' width ='500' height = '500' style='border:5px solid black'>","40","all_simple","images/simple/12.png","images/simple/4.png","images/simple/11.png,images/simple/16.png,images/simple/5.png,images/simple/8.png,images/simple/13.png,images/simple/3.png,images/simple/17.png","1","null","","200","492.93500003404915","","","","background","",""
"","null","html-keyboard-response","126","247626","0.0-17.0-0.6","SS1604514513800","","null","","","","","","","","","","","","<img src=images/blank.png width =""500"" height = ""500"" style=""border:5px solid black"">","","",""
"","1028.7650000536814","stimulus-presentation","127","248859","0.0-17.0-1.6","SS1604514513800","<img src='images/simple/12.png' width ='500' height = '500' style='border:5px solid black'>","40","all_simple","images/simple/12.png","images/simple/4.png","images/simple/11.png,images/simple/16.png,images/simple/5.png,images/simple/8.png,images/simple/13.png,images/simple/3.png,images/simple/17.png","1","null","","200","1228.7650000536814","yes","380.48000005073845","","target","",""
"","null","html-keyboard-response","128","249897","0.0-17.0-0.7","SS1604514513800","","null","","","","","","","","","","","","<img src=images/blank.png width =""500"" height = ""500"" style=""border:5px solid black"">","","",""
"","1228.3950001001358","stimulus-presentation","129","251330","0.0-17.0-1.7","SS1604514513800","<img src='images/simple/12.png' width ='500' height = '500' style='border:5px solid black'>","40","all_simple","images/simple/12.png","images/simple/4.png","images/simple/11.png,images/simple/16.png,images/simple/5.png,images/simple/8.png,images/simple/13.png,images/simple/3.png,images/simple/17.png","1","null","","200","1428.3950001001358","yes","412.8550000023097","","target","",""
"","null","html-keyboard-response","130","252586","0.0-17.0-0.8","SS1604514513800","","null","","","","","","","","","","","","<img src=images/blank.png width =""500"" height = ""500"" style=""border:5px solid black"">","","",""
"","233.9800000190735","stimulus-presentation","131","253026","0.0-17.0-1.8","SS1604514513800","<img src='images/simple/4.png' width ='500' height = '500' style='border:5px solid black'>","40","all_simple","images/simple/12.png","images/simple/4.png","images/simple/11.png,images/simple/16.png,images/simple/5.png,images/simple/8.png,images/simple/13.png,images/simple/3.png,images/simple/17.png","1","null","","200","433.9800000190735","","","","background","",""
"","null","html-keyboard-response","132","254321","0.0-17.0-0.9","SS1604514513800","","null","","","","","","","","","","","","<img src=images/blank.png width =""500"" height = ""500"" style=""border:5px solid black"">","","",""
"","470.2650000108406","stimulus-presentation","133","254995","0.0-17.0-1.9","SS1604514513800","<img src='images/simple/11.png' width ='500' height = '500' style='border:5px solid black'>","40","all_simple","images/simple/12.png","images/simple/4.png","images/simple/11.png,images/simple/16.png,images/simple/5.png,images/simple/8.png,images/simple/13.png,images/simple/3.png,images/simple/17.png","1","null","","200","670.2650000108406","","","","deviant","",""
"","null","html-keyboard-response","134","256034","0.0-17.0-0.10","SS1604514513800","","null","","","","","","","","","","","","<img src=images/blank.png width =""500"" height = ""500"" style=""border:5px solid black"">","","",""
"","419.2399999592453","stimulus-presentation","135","256658","0.0-17.0-1.10","SS1604514513800","<img src='images/simple/4.png' width ='500' height = '500' style='border:5px solid black'>","40","all_simple","images/simple/12.png","images/simple/4.png","images/simple/11.png,images/simple/16.png,images/simple/5.png,images/simple/8.png,images/simple/13.png,images/simple/3.png,images/simple/17.png","1","null","","200","619.2399999592453","","","","background","",""
"","null","html-keyboard-response","136","257595","0.0-17.0-0.11","SS1604514513800","","null","","","","","","","","","","","","<img src=images/blank.png width =""500"" height = ""500"" style=""border:5px solid black"">","","",""
"","313.8499999186024","stimulus-presentation","137","258114","0.0-17.0-1.11","SS1604514513800","<img src='images/simple/4.png' width ='500' height = '500' style='border:5px solid black'>","40","all_simple","images/simple/12.png","images/simple/4.png","images/simple/11.png,images/simple/16.png,images/simple/5.png,images/simple/8.png,images/simple/13.png,images/simple/3.png,images/simple/17.png","1","null","","200","513.8499999186024","","","","background","",""
"","null","html-keyboard-response","138","259349","0.0-17.0-0.12","SS1604514513800","","null","","","","","","","","","","","","<img src=images/blank.png width =""500"" height = ""500"" style=""border:5px solid black"">","","",""
"","233.51499997079372","stimulus-presentation","139","259786","0.0-17.0-1.12","SS1604514513800","<img src='images/simple/4.png' width ='500' height = '500' style='border:5px solid black'>","40","all_simple","images/simple/12.png","images/simple/4.png","images/simple/11.png,images/simple/16.png,images/simple/5.png,images/simple/8.png,images/simple/13.png,images/simple/3.png,images/simple/17.png","1","null","","200","433.5149999707937","","","","background","",""
"","null","html-keyboard-response","140","260814","0.0-17.0-0.13","SS1604514513800","","null","","","","","","","","","","","","<img src=images/blank.png width =""500"" height = ""500"" style=""border:5px solid black"">","","",""
"","344.5850000716746","stimulus-presentation","141","261362","0.0-17.0-1.13","SS1604514513800","<img src='images/simple/4.png' width ='500' height = '500' style='border:5px solid black'>","40","all_simple","images/simple/12.png","images/simple/4.png","images/simple/11.png,images/simple/16.png,images/simple/5.png,images/simple/8.png,images/simple/13.png,images/simple/3.png,images/simple/17.png","1","null","","200","544.5850000716746","","","","background","",""
"","null","html-keyboard-response","142","262236","0.0-17.0-0.14","SS1604514513800","","null","","","","","","","","","","","","<img src=images/blank.png width =""500"" height = ""500"" style=""border:5px solid black"">","","",""
"","346.23999998439103","stimulus-presentation","143","262786","0.0-17.0-1.14","SS1604514513800","<img src='images/simple/4.png' width ='500' height = '500' style='border:5px solid black'>","40","all_simple","images/simple/12.png","images/simple/4.png","images/simple/11.png,images/simple/16.png,images/simple/5.png,images/simple/8.png,images/simple/13.png,images/simple/3.png,images/simple/17.png","1","null","","200","546.239999984391","","","","background","",""
"","null","html-keyboard-response","144","264040","0.0-17.0-0.15","SS1604514513800","","null","","","","","","","","","","","","<img src=images/blank.png width =""500"" height = ""500"" style=""border:5px solid black"">","","",""
"","813.9199999859557","stimulus-presentation","145","265059","0.0-17.0-1.15","SS1604514513800","<img src='images/simple/12.png' width ='500' height = '500' style='border:5px solid black'>","40","all_simple","images/simple/12.png","images/simple/4.png","images/simple/11.png,images/simple/16.png,images/simple/5.png,images/simple/8.png,images/simple/13.png,images/simple/3.png,images/simple/17.png","1","null","","200","1013.9199999859557","yes","413.3650000439957","","target","",""
"","null","html-keyboard-response","146","266164","0.0-17.0-0.16","SS1604514513800","","null","","","","","","","","","","","","<img src=images/blank.png width =""500"" height = ""500"" style=""border:5px solid black"">","","",""
"","727.0149999530986","stimulus-presentation","147","267097","0.0-17.0-1.16","SS1604514513800","<img src='images/simple/5.png' width ='500' height = '500' style='border:5px solid black'>","40","all_simple","images/simple/12.png","images/simple/4.png","images/simple/11.png,images/simple/16.png,images/simple/5.png,images/simple/8.png,images/simple/13.png,images/simple/3.png,images/simple/17.png","1","null","","200","927.0149999530986","","","","deviant","",""
"","null","html-keyboard-response","148","268051","0.0-17.0-0.17","SS1604514513800","","null","","","","","","","","","","","","<img src=images/blank.png width =""500"" height = ""500"" style=""border:5px solid black"">","","",""
"","674.6399999829009","stimulus-presentation","149","268930","0.0-17.0-1.17","SS1604514513800","<img src='images/simple/4.png' width ='500' height = '500' style='border:5px solid black'>","40","all_simple","images/simple/12.png","images/simple/4.png","images/simple/11.png,images/simple/16.png,images/simple/5.png,images/simple/8.png,images/simple/13.png,images/simple/3.png,images/simple/17.png","1","null","","200","874.6399999829009","","","","background","",""
"","null","html-keyboard-response","150","270130","0.0-17.0-0.18","SS1604514513800","","null","","","","","","","","","","","","<img src=images/blank.png width =""500"" height = ""500"" style=""border:5px solid black"">","","",""
"","204.13500000722706","stimulus-presentation","151","270538","0.0-17.0-1.18","SS1604514513800","<img src='images/simple/4.png' width ='500' height = '500' style='border:5px solid black'>","40","all_simple","images/simple/12.png","images/simple/4.png","images/simple/11.png,images/simple/16.png,images/simple/5.png,images/simple/8.png,images/simple/13.png,images/simple/3.png,images/simple/17.png","1","null","","200","404.13500000722706","","","","background","",""
"","null","html-keyboard-response","152","271649","0.0-17.0-0.19","SS1604514513800","","null","","","","","","","","","","","","<img src=images/blank.png width =""500"" height = ""500"" style=""border:5px solid black"">","","",""
"","733.2300000125542","stimulus-presentation","153","272586","0.0-17.0-1.19","SS1604514513800","<img src='images/simple/8.png' width ='500' height = '500' style='border:5px solid black'>","40","all_simple","images/simple/12.png","images/simple/4.png","images/simple/11.png,images/simple/16.png,images/simple/5.png,images/simple/8.png,images/simple/13.png,images/simple/3.png,images/simple/17.png","1","null","","200","933.2300000125542","","","","deviant","",""
"","null","html-keyboard-response","154","273538","0.0-17.0-0.20","SS1604514513800","","null","","","","","","","","","","","","<img src=images/blank.png width =""500"" height = ""500"" style=""border:5px solid black"">","","",""
"","468.1950000813231","stimulus-presentation","155","274212","0.0-17.0-1.20","SS1604514513800","<img src='images/simple/4.png' width ='500' height = '500' style='border:5px solid black'>","40","all_simple","images/simple/12.png","images/simple/4.png","images/simple/11.png,images/simple/16.png,images/simple/5.png,images/simple/8.png,images/simple/13.png,images/simple/3.png,images/simple/17.png","1","null","","200","668.1950000813231","","","","background","",""
"","null","html-keyboard-response","156","275480","0.0-17.0-0.21","SS1604514513800","","null","","","","","","","","","","","","<img src=images/blank.png width =""500"" height = ""500"" style=""border:5px solid black"">","","",""
"","327.2100000176579","stimulus-presentation","157","276011","0.0-17.0-1.21","SS1604514513800","<img src='images/simple/4.png' width ='500' height = '500' style='border:5px solid black'>","40","all_simple","images/simple/12.png","images/simple/4.png","images/simple/11.png,images/simple/16.png,images/simple/5.png,images/simple/8.png,images/simple/13.png,images/simple/3.png,images/simple/17.png","1","null","","200","527.2100000176579","","","","background","",""
"","null","html-keyboard-response","158","277062","0.0-17.0-0.22","SS1604514513800","","null","","","","","","","","","","","","<img src=images/blank.png width =""500"" height = ""500"" style=""border:5px solid black"">","","",""
"","264.56499996129423","stimulus-presentation","159","277530","0.0-17.0-1.22","SS1604514513800","<img src='images/simple/4.png' width ='500' height = '500' style='border:5px solid black'>","40","all_simple","images/simple/12.png","images/simple/4.png","images/simple/11.png,images/simple/16.png,images/simple/5.png,images/simple/8.png,images/simple/13.png,images/simple/3.png,images/simple/17.png","1","null","","200","464.56499996129423","","","","background","",""
"","null","html-keyboard-response","160","278623","0.0-17.0-0.23","SS1604514513800","","null","","","","","","","","","","","","<img src=images/blank.png width =""500"" height = ""500"" style=""border:5px solid black"">","","",""
"","320.0799999758601","stimulus-presentation","161","279147","0.0-17.0-1.23","SS1604514513800","<img src='images/simple/4.png' width ='500' height = '500' style='border:5px solid black'>","40","all_simple","images/simple/12.png","images/simple/4.png","images/simple/11.png,images/simple/16.png,images/simple/5.png,images/simple/8.png,images/simple/13.png,images/simple/3.png,images/simple/17.png","1","null","","200","520.0799999758601","","","","background","",""
"","null","html-keyboard-response","162","280143","0.0-17.0-0.24","SS1604514513800","","null","","","","","","","","","","","","<img src=images/blank.png width =""500"" height = ""500"" style=""border:5px solid black"">","","",""
"","581.679999944754","stimulus-presentation","163","280930","0.0-17.0-1.24","SS1604514513800","<img src='images/simple/16.png' width ='500' height = '500' style='border:5px solid black'>","40","all_simple","images/simple/12.png","images/simple/4.png","images/simple/11.png,images/simple/16.png,images/simple/5.png,images/simple/8.png,images/simple/13.png,images/simple/3.png,images/simple/17.png","1","null","","200","781.679999944754","","","","deviant","",""
"","null","html-keyboard-response","164","282062","0.0-17.0-0.25","SS1604514513800","","null","","","","","","","","","","","","<img src=images/blank.png width =""500"" height = ""500"" style=""border:5px solid black"">","","",""
"","296.54500004835427","stimulus-presentation","165","282562","0.0-17.0-1.25","SS1604514513800","<img src='images/simple/4.png' width ='500' height = '500' style='border:5px solid black'>","40","all_simple","images/simple/12.png","images/simple/4.png","images/simple/11.png,images/simple/16.png,images/simple/5.png,images/simple/8.png,images/simple/13.png,images/simple/3.png,images/simple/17.png","1","null","","200","496.54500004835427","","","","background","",""
"","null","html-keyboard-response","166","283519","0.0-17.0-0.26","SS1604514513800","","null","","","","","","","","","","","","<img src=images/blank.png width =""500"" height = ""500"" style=""border:5px solid black"">","","",""
"","231.50500003248453","stimulus-presentation","167","283954","0.0-17.0-1.26","SS1604514513800","<img src='images/simple/4.png' width ='500' height = '500' style='border:5px solid black'>","40","all_simple","images/simple/12.png","images/simple/4.png","images/simple/11.png,images/simple/16.png,images/simple/5.png,images/simple/8.png,images/simple/13.png,images/simple/3.png,images/simple/17.png","1","null","","200","431.50500003248453","","","","background","",""
"","null","html-keyboard-response","168","284855","0.0-17.0-0.27","SS1604514513800","","null","","","","","","","","","","","","<img src=images/blank.png width =""500"" height = ""500"" style=""border:5px solid black"">","","",""
"","263.7999999569729","stimulus-presentation","169","285325","0.0-17.0-1.27","SS1604514513800","<img src='images/simple/4.png' width ='500' height = '500' style='border:5px solid black'>","40","all_simple","images/simple/12.png","images/simple/4.png","images/simple/11.png,images/simple/16.png,images/simple/5.png,images/simple/8.png,images/simple/13.png,images/simple/3.png,images/simple/17.png","1","null","","200","463.7999999569729","","","","background","",""
"","null","html-keyboard-response","170","286339","0.0-17.0-0.28","SS1604514513800","","null","","","","","","","","","","","","<img src=images/blank.png width =""500"" height = ""500"" style=""border:5px solid black"">","","",""
"","689.4750000210479","stimulus-presentation","171","287234","0.0-17.0-1.28","SS1604514513800","<img src='images/simple/12.png' width ='500' height = '500' style='border:5px solid black'>","40","all_simple","images/simple/12.png","images/simple/4.png","images/simple/11.png,images/simple/16.png,images/simple/5.png,images/simple/8.png,images/simple/13.png,images/simple/3.png,images/simple/17.png","1","null","","200","889.4750000210479","yes","218.2800000300631","","target","",""
"","null","html-keyboard-response","172","288458","0.0-17.0-0.29","SS1604514513800","","null","","","","","","","","","","","","<img src=images/blank.png width =""500"" height = ""500"" style=""border:5px solid black"">","","",""
"","260.3599999565631","stimulus-presentation","173","288922","0.0-17.0-1.29","SS1604514513800","<img src='images/simple/4.png' width ='500' height = '500' style='border:5px solid black'>","40","all_simple","images/simple/12.png","images/simple/4.png","images/simple/11.png,images/simple/16.png,images/simple/5.png,images/simple/8.png,images/simple/13.png,images/simple/3.png,images/simple/17.png","1","null","","200","460.3599999565631","","","","background","",""
"","null","html-keyboard-response","174","289835","0.0-17.0-0.30","SS1604514513800","","null","","","","","","","","","","","","<img src=images/blank.png width =""500"" height = ""500"" style=""border:5px solid black"">","","",""
"","246.9099999871105","stimulus-presentation","175","290286","0.0-17.0-1.30","SS1604514513800","<img src='images/simple/4.png' width ='500' height = '500' style='border:5px solid black'>","40","all_simple","images/simple/12.png","images/simple/4.png","images/simple/11.png,images/simple/16.png,images/simple/5.png,images/simple/8.png,images/simple/13.png,images/simple/3.png,images/simple/17.png","1","null","","200","446.9099999871105","","","","background","",""
"","null","html-keyboard-response","176","291401","0.0-17.0-0.31","SS1604514513800","","null","","","","","","","","","","","","<img src=images/blank.png width =""500"" height = ""500"" style=""border:5px solid black"">","","",""
"","548.7100000027567","stimulus-presentation","177","292154","0.0-17.0-1.31","SS1604514513800","<img src='images/simple/13.png' width ='500' height = '500' style='border:5px solid black'>","40","all_simple","images/simple/12.png","images/simple/4.png","images/simple/11.png,images/simple/16.png,images/simple/5.png,images/simple/8.png,images/simple/13.png,images/simple/3.png,images/simple/17.png","1","null","","200","748.7100000027567","","","","deviant","",""
"","null","html-keyboard-response","178","293431","0.0-17.0-0.32","SS1604514513800","","null","","","","","","","","","","","","<img src=images/blank.png width =""500"" height = ""500"" style=""border:5px solid black"">","","",""
"","765.1749999495223","stimulus-presentation","179","294402","0.0-17.0-1.32","SS1604514513800","<img src='images/simple/12.png' width ='500' height = '500' style='border:5px solid black'>","40","all_simple","images/simple/12.png","images/simple/4.png","images/simple/11.png,images/simple/16.png,images/simple/5.png,images/simple/8.png,images/simple/13.png,images/simple/3.png,images/simple/17.png","1","null","","200","965.1749999495223","yes","317.3399999504909","","target","",""
"","null","html-keyboard-response","180","295466","0.0-17.0-0.33","SS1604514513800","","null","","","","","","","","","","","","<img src=images/blank.png width =""500"" height = ""500"" style=""border:5px solid black"">","","",""
"","387.5949999783188","stimulus-presentation","181","296058","0.0-17.0-1.33","SS1604514513800","<img src='images/simple/4.png' width ='500' height = '500' style='border:5px solid black'>","40","all_simple","images/simple/12.png","images/simple/4.png","images/simple/11.png,images/simple/16.png,images/simple/5.png,images/simple/8.png,images/simple/13.png,images/simple/3.png,images/simple/17.png","1","null","","200","587.5949999783188","","","","background","",""
"","null","html-keyboard-response","182","296873","0.0-17.0-0.34","SS1604514513800","","null","","","","","","","","","","","","<img src=images/blank.png width =""500"" height = ""500"" style=""border:5px solid black"">","","",""
"","308.5399999981746","stimulus-presentation","183","297387","0.0-17.0-1.34","SS1604514513800","<img src='images/simple/4.png' width ='500' height = '500' style='border:5px solid black'>","40","all_simple","images/simple/12.png","images/simple/4.png","images/simple/11.png,images/simple/16.png,images/simple/5.png,images/simple/8.png,images/simple/13.png,images/simple/3.png,images/simple/17.png","1","null","","200","508.5399999981746","","","","background","",""
"","null","html-keyboard-response","184","298659","0.0-17.0-0.35","SS1604514513800","","null","","","","","","","","","","","","<img src=images/blank.png width =""500"" height = ""500"" style=""border:5px solid black"">","","",""
"","330.59999998658895","stimulus-presentation","185","299194","0.0-17.0-1.35","SS1604514513800","<img src='images/simple/4.png' width ='500' height = '500' style='border:5px solid black'>","40","all_simple","images/simple/12.png","images/simple/4.png","images/simple/11.png,images/simple/16.png,images/simple/5.png,images/simple/8.png,images/simple/13.png,images/simple/3.png,images/simple/17.png","1","null","","200","530.599999986589","","","","background","",""
"","null","html-keyboard-response","186","300035","0.0-17.0-0.36","SS1604514513800","","null","","","","","","","","","","","","<img src=images/blank.png width =""500"" height = ""500"" style=""border:5px solid black"">","","",""
"","219.5799999171868","stimulus-presentation","187","300458","0.0-17.0-1.36","SS1604514513800","<img src='images/simple/4.png' width ='500' height = '500' style='border:5px solid black'>","40","all_simple","images/simple/12.png","images/simple/4.png","images/simple/11.png,images/simple/16.png,images/simple/5.png,images/simple/8.png,images/simple/13.png,images/simple/3.png,images/simple/17.png","1","null","","200","419.5799999171868","","","","background","",""
"","null","html-keyboard-response","188","301744","0.0-17.0-0.37","SS1604514513800","","null","","","","","","","","","","","","<img src=images/blank.png width =""500"" height = ""500"" style=""border:5px solid black"">","","",""
"","372.93499999213964","stimulus-presentation","189","302322","0.0-17.0-1.37","SS1604514513800","<img src='images/simple/4.png' width ='500' height = '500' style='border:5px solid black'>","40","all_simple","images/simple/12.png","images/simple/4.png","images/simple/11.png,images/simple/16.png,images/simple/5.png,images/simple/8.png,images/simple/13.png,images/simple/3.png,images/simple/17.png","1","null","","200","572.9349999921396","","","","background","",""
"","null","html-keyboard-response","190","303415","0.0-17.0-0.38","SS1604514513800","","null","","","","","","","","","","","","<img src=images/blank.png width =""500"" height = ""500"" style=""border:5px solid black"">","","",""
"","247.46500002220273","stimulus-presentation","191","303868","0.0-17.0-1.38","SS1604514513800","<img src='images/simple/4.png' width ='500' height = '500' style='border:5px solid black'>","40","all_simple","images/simple/12.png","images/simple/4.png","images/simple/11.png,images/simple/16.png,images/simple/5.png,images/simple/8.png,images/simple/13.png,images/simple/3.png,images/simple/17.png","1","null","","200","447.46500002220273","","","","background","",""
"","null","html-keyboard-response","192","305041","0.0-17.0-0.39","SS1604514513800","","null","","","","","","","","","","","","<img src=images/blank.png width =""500"" height = ""500"" style=""border:5px solid black"">","","",""
"","710.215000086464","stimulus-presentation","193","305956","0.0-17.0-1.39","SS1604514513800","<img src='images/simple/12.png' width ='500' height = '500' style='border:5px solid black'>","40","all_simple","images/simple/12.png","images/simple/4.png","images/simple/11.png,images/simple/16.png,images/simple/5.png,images/simple/8.png,images/simple/13.png,images/simple/3.png,images/simple/17.png","1","null","","200","910.215000086464","yes","310.13500003609806","","target","",""
"","null","html-keyboard-response","194","307144","0.0-17.0-0.40","SS1604514513800","","null","","","","","","","","","","","","<img src=images/blank.png width =""500"" height = ""500"" style=""border:5px solid black"">","","",""
"","214.84999998938292","stimulus-presentation","195","307565","0.0-17.0-1.40","SS1604514513800","<img src='images/simple/4.png' width ='500' height = '500' style='border:5px solid black'>","40","all_simple","images/simple/12.png","images/simple/4.png","images/simple/11.png,images/simple/16.png,images/simple/5.png,images/simple/8.png,images/simple/13.png,images/simple/3.png,images/simple/17.png","1","null","","200","414.8499999893829","","","","background","",""
"","null","html-keyboard-response","196","308554","0.0-17.0-0.41","SS1604514513800","","null","","","","","","","","","","","","<img src=images/blank.png width =""500"" height = ""500"" style=""border:5px solid black"">","","",""
"","292.52499993890524","stimulus-presentation","197","309052","0.0-17.0-1.41","SS1604514513800","<img src='images/simple/4.png' width ='500' height = '500' style='border:5px solid black'>","40","all_simple","images/simple/12.png","images/simple/4.png","images/simple/11.png,images/simple/16.png,images/simple/5.png,images/simple/8.png,images/simple/13.png,images/simple/3.png,images/simple/17.png","1","null","","200","492.52499993890524","","","","background","",""
"","null","html-keyboard-response","198","309948","0.0-17.0-0.42","SS1604514513800","","null","","","","","","","","","","","","<img src=images/blank.png width =""500"" height = ""500"" style=""border:5px solid black"">","","",""
"","562.5","stimulus-presentation","199","310716","0.0-17.0-1.42","SS1604514513800","<img src='images/simple/3.png' width ='500' height = '500' style='border:5px solid black'>","40","all_simple","images/simple/12.png","images/simple/4.png","images/simple/11.png,images/simple/16.png,images/simple/5.png,images/simple/8.png,images/simple/13.png,images/simple/3.png,images/simple/17.png","1","null","","200","762.5","","","","deviant","",""
"","null","html-keyboard-response","200","311635","0.0-17.0-0.43","SS1604514513800","","null","","","","","","","","","","","","<img src=images/blank.png width =""500"" height = ""500"" style=""border:5px solid black"">","","",""
"","2898.4349999809638","stimulus-presentation","201","314740","0.0-17.0-1.43","SS1604514513800","<img src='images/simple/4.png' width ='500' height = '500' style='border:5px solid black'>","40","all_simple","images/simple/12.png","images/simple/4.png","images/simple/11.png,images/simple/16.png,images/simple/5.png,images/simple/8.png,images/simple/13.png,images/simple/3.png,images/simple/17.png","1","null","","200","3098.4349999809638","","","","background","",""
"","null","html-keyboard-response","202","315874","0.0-17.0-0.44","SS1604514513800","","null","","","","","","","","","","","","<img src=images/blank.png width =""500"" height = ""500"" style=""border:5px solid black"">","","",""
"","269.5199999725446","stimulus-presentation","203","316348","0.0-17.0-1.44","SS1604514513800","<img src='images/simple/4.png' width ='500' height = '500' style='border:5px solid black'>","40","all_simple","images/simple/12.png","images/simple/4.png","images/simple/11.png,images/simple/16.png,images/simple/5.png,images/simple/8.png,images/simple/13.png,images/simple/3.png,images/simple/17.png","1","null","","200","469.5199999725446","","","","background","",""
"","null","html-keyboard-response","204","317188","0.0-17.0-0.45","SS1604514513800","","null","","","","","","","","","","","","<img src=images/blank.png width =""500"" height = ""500"" style=""border:5px solid black"">","","",""
"","290.71500001009554","stimulus-presentation","205","317684","0.0-17.0-1.45","SS1604514513800","<img src='images/simple/4.png' width ='500' height = '500' style='border:5px solid black'>","40","all_simple","images/simple/12.png","images/simple/4.png","images/simple/11.png,images/simple/16.png,images/simple/5.png,images/simple/8.png,images/simple/13.png,images/simple/3.png,images/simple/17.png","1","null","","200","490.71500001009554","","","","background","",""
"","null","html-keyboard-response","206","318866","0.0-17.0-0.46","SS1604514513800","","null","","","","","","","","","","","","<img src=images/blank.png width =""500"" height = ""500"" style=""border:5px solid black"">","","",""
"","203.30499997362494","stimulus-presentation","207","319276","0.0-17.0-1.46","SS1604514513800","<img src='images/simple/4.png' width ='500' height = '500' style='border:5px solid black'>","40","all_simple","images/simple/12.png","images/simple/4.png","images/simple/11.png,images/simple/16.png,images/simple/5.png,images/simple/8.png,images/simple/13.png,images/simple/3.png,images/simple/17.png","1","null","","200","403.30499997362494","","","","background","",""
"","null","html-keyboard-response","208","320169","0.0-17.0-0.47","SS1604514513800","","null","","","","","","","","","","","","<img src=images/blank.png width =""500"" height = ""500"" style=""border:5px solid black"">","","",""
"","230.4149999981746","stimulus-presentation","209","320604","0.0-17.0-1.47","SS1604514513800","<img src='images/simple/4.png' width ='500' height = '500' style='border:5px solid black'>","40","all_simple","images/simple/12.png","images/simple/4.png","images/simple/11.png,images/simple/16.png,images/simple/5.png,images/simple/8.png,images/simple/13.png,images/simple/3.png,images/simple/17.png","1","null","","200","430.4149999981746","","","","background","",""
"","null","html-keyboard-response","210","321658","0.0-17.0-0.48","SS1604514513800","","null","","","","","","","","","","","","<img src=images/blank.png width =""500"" height = ""500"" style=""border:5px solid black"">","","",""
"","181.51000002399087","stimulus-presentation","211","322044","0.0-17.0-1.48","SS1604514513800","<img src='images/simple/4.png' width ='500' height = '500' style='border:5px solid black'>","40","all_simple","images/simple/12.png","images/simple/4.png","images/simple/11.png,images/simple/16.png,images/simple/5.png,images/simple/8.png,images/simple/13.png,images/simple/3.png,images/simple/17.png","1","null","","200","381.51000002399087","","","","background","",""
"[{""page_index"":0,""viewing_time"":2752}]","2752","task-instructions","212","324800","0.0-18.0","SS1604514513800","","","","","","","","","","","","","","","","",""
"[{""page_index"":0,""viewing_time"":1585.510000004433},{""page_index"":1,""viewing_time"":2263.2800000719726},{""page_index"":2,""viewing_time"":1743.9000000013039}]","5592.969999997877","instructions","213","330398","0.0-19.0","SS1604514513800","","","","","","","","","","","","","","","","",""
"","null","html-keyboard-response","214","331523","0.0-20.0-0.0","SS1604514513800","","null","","","","","","","","","","","","<img src=images/blank.png width =""500"" height = ""500"" style=""border:5px solid black"">","","",""
"","460.33999999053776","stimulus-presentation","215","332188","0.0-20.0-1.0","SS1604514513800","<img src='images/complex/2.png' width ='500' height = '500' style='border:5px solid black'>","40","all_complex","images/complex/5.png","images/complex/7.png","images/complex/16.png,images/complex/2.png,images/complex/8.png,images/complex/10.png,images/complex/9.png,images/complex/1.png,images/complex/13.png","2","null","","200","660.3399999905378","","","","deviant","",""
"","null","html-keyboard-response","216","333089","0.0-20.0-0.1","SS1604514513800","","null","","","","","","","","","","","","<img src=images/blank.png width =""500"" height = ""500"" style=""border:5px solid black"">","","",""
"","460.2350000059232","stimulus-presentation","217","333756","0.0-20.0-1.1","SS1604514513800","<img src='images/complex/7.png' width ='500' height = '500' style='border:5px solid black'>","40","all_complex","images/complex/5.png","images/complex/7.png","images/complex/16.png,images/complex/2.png,images/complex/8.png,images/complex/10.png,images/complex/9.png,images/complex/1.png,images/complex/13.png","2","null","","200","660.2350000059232","","","","background","",""
"","null","html-keyboard-response","218","334837","0.0-20.0-0.2","SS1604514513800","","null","","","","","","","","","","","","<img src=images/blank.png width =""500"" height = ""500"" style=""border:5px solid black"">","","",""
"","401.3099999865517","stimulus-presentation","219","335444","0.0-20.0-1.2","SS1604514513800","<img src='images/complex/7.png' width ='500' height = '500' style='border:5px solid black'>","40","all_complex","images/complex/5.png","images/complex/7.png","images/complex/16.png,images/complex/2.png,images/complex/8.png,images/complex/10.png,images/complex/9.png,images/complex/1.png,images/complex/13.png","2","null","","200","601.3099999865517","","","","background","",""
"","null","html-keyboard-response","220","336726","0.0-20.0-0.3","SS1604514513800","","null","","","","","","","","","","","","<img src=images/blank.png width =""500"" height = ""500"" style=""border:5px solid black"">","","",""
"","791.8550000758842","stimulus-presentation","221","337724","0.0-20.0-1.3","SS1604514513800","<img src='images/complex/5.png' width ='500' height = '500' style='border:5px solid black'>","40","all_complex","images/complex/5.png","images/complex/7.png","images/complex/16.png,images/complex/2.png,images/complex/8.png,images/complex/10.png,images/complex/9.png,images/complex/1.png,images/complex/13.png","2","null","","200","991.8550000758842","yes","352.3000000277534","","target","",""
"","null","html-keyboard-response","222","338760","0.0-20.0-0.4","SS1604514513800","","null","","","","","","","","","","","","<img src=images/blank.png width =""500"" height = ""500"" style=""border:5px solid black"">","","",""
"","1327.3099999642","stimulus-presentation","223","340292","0.0-20.0-1.4","SS1604514513800","<img src='images/complex/7.png' width ='500' height = '500' style='border:5px solid black'>","40","all_complex","images/complex/5.png","images/complex/7.png","images/complex/16.png,images/complex/2.png,images/complex/8.png,images/complex/10.png,images/complex/9.png,images/complex/1.png,images/complex/13.png","2","null","","200","1527.3099999642","","","","background","",""
"","null","html-keyboard-response","224","341236","0.0-20.0-0.5","SS1604514513800","","null","","","","","","","","","","","","<img src=images/blank.png width =""500"" height = ""500"" style=""border:5px solid black"">","","",""
"","642.1100000152364","stimulus-presentation","225","342085","0.0-20.0-1.5","SS1604514513800","<img src='images/complex/9.png' width ='500' height = '500' style='border:5px solid black'>","40","all_complex","images/complex/5.png","images/complex/7.png","images/complex/16.png,images/complex/2.png,images/complex/8.png,images/complex/10.png,images/complex/9.png,images/complex/1.png,images/complex/13.png","2","null","","200","842.1100000152364","","","","deviant","",""
"","null","html-keyboard-response","226","343369","0.0-20.0-0.6","SS1604514513800","","null","","","","","","","","","","","","<img src=images/blank.png width =""500"" height = ""500"" style=""border:5px solid black"">","","",""
"","309.6199999563396","stimulus-presentation","227","343884","0.0-20.0-1.6","SS1604514513800","<img src='images/complex/7.png' width ='500' height = '500' style='border:5px solid black'>","40","all_complex","images/complex/5.png","images/complex/7.png","images/complex/16.png,images/complex/2.png,images/complex/8.png,images/complex/10.png,images/complex/9.png,images/complex/1.png,images/complex/13.png","2","null","","200","509.6199999563396","","","","background","",""
"","null","html-keyboard-response","228","344775","0.0-20.0-0.7","SS1604514513800","","null","","","","","","","","","","","","<img src=images/blank.png width =""500"" height = ""500"" style=""border:5px solid black"">","","",""
"","839.1750000882894","stimulus-presentation","229","345820","0.0-20.0-1.7","SS1604514513800","<img src='images/complex/5.png' width ='500' height = '500' style='border:5px solid black'>","40","all_complex","images/complex/5.png","images/complex/7.png","images/complex/16.png,images/complex/2.png,images/complex/8.png,images/complex/10.png,images/complex/9.png,images/complex/1.png,images/complex/13.png","2","null","","200","1039.1750000882894","yes","367.49000009149313","","target","",""
"","null","html-keyboard-response","230","347006","0.0-20.0-0.8","SS1604514513800","","null","","","","","","","","","","","","<img src=images/blank.png width =""500"" height = ""500"" style=""border:5px solid black"">","","",""
"","568.9949999796227","stimulus-presentation","231","347781","0.0-20.0-1.8","SS1604514513800","<img src='images/complex/7.png' width ='500' height = '500' style='border:5px solid black'>","40","all_complex","images/complex/5.png","images/complex/7.png","images/complex/16.png,images/complex/2.png,images/complex/8.png,images/complex/10.png,images/complex/9.png,images/complex/1.png,images/complex/13.png","2","null","","200","768.9949999796227","","","","background","",""
"","null","html-keyboard-response","232","348843","0.0-20.0-0.9","SS1604514513800","","null","","","","","","","","","","","","<img src=images/blank.png width =""500"" height = ""500"" style=""border:5px solid black"">","","",""
"","291.47000005468726","stimulus-presentation","233","349339","0.0-20.0-1.9","SS1604514513800","<img src='images/complex/7.png' width ='500' height = '500' style='border:5px solid black'>","40","all_complex","images/complex/5.png","images/complex/7.png","images/complex/16.png,images/complex/2.png,images/complex/8.png,images/complex/10.png,images/complex/9.png,images/complex/1.png,images/complex/13.png","2","null","","200","491.47000005468726","","","","background","",""
"","null","html-keyboard-response","234","350376","0.0-20.0-0.10","SS1604514513800","","null","","","","","","","","","","","","<img src=images/blank.png width =""500"" height = ""500"" style=""border:5px solid black"">","","",""
"","310.36000000312924","stimulus-presentation","235","350892","0.0-20.0-1.10","SS1604514513800","<img src='images/complex/7.png' width ='500' height = '500' style='border:5px solid black'>","40","all_complex","images/complex/5.png","images/complex/7.png","images/complex/16.png,images/complex/2.png,images/complex/8.png,images/complex/10.png,images/complex/9.png,images/complex/1.png,images/complex/13.png","2","null","","200","510.36000000312924","","","","background","",""
"","null","html-keyboard-response","236","352079","0.0-20.0-0.11","SS1604514513800","","null","","","","","","","","","","","","<img src=images/blank.png width =""500"" height = ""500"" style=""border:5px solid black"">","","",""
"","1760.039999964647","stimulus-presentation","237","354045","0.0-20.0-1.11","SS1604514513800","<img src='images/complex/10.png' width ='500' height = '500' style='border:5px solid black'>","40","all_complex","images/complex/5.png","images/complex/7.png","images/complex/16.png,images/complex/2.png,images/complex/8.png,images/complex/10.png,images/complex/9.png,images/complex/1.png,images/complex/13.png","2","null","","200","1960.039999964647","","","","deviant","",""
"","null","html-keyboard-response","238","355058","0.0-20.0-0.12","SS1604514513800","","null","","","","","","","","","","","","<img src=images/blank.png width =""500"" height = ""500"" style=""border:5px solid black"">","","",""
"","373.3749999664724","stimulus-presentation","239","355636","0.0-20.0-1.12","SS1604514513800","<img src='images/complex/7.png' width ='500' height = '500' style='border:5px solid black'>","40","all_complex","images/complex/5.png","images/complex/7.png","images/complex/16.png,images/complex/2.png,images/complex/8.png,images/complex/10.png,images/complex/9.png,images/complex/1.png,images/complex/13.png","2","null","","200","573.3749999664724","","","","background","",""
"","null","html-keyboard-response","240","356545","0.0-20.0-0.13","SS1604514513800","","null","","","","","","","","","","","","<img src=images/blank.png width =""500"" height = ""500"" style=""border:5px solid black"">","","",""
"","205.51500003784895","stimulus-presentation","241","356956","0.0-20.0-1.13","SS1604514513800","<img src='images/complex/7.png' width ='500' height = '500' style='border:5px solid black'>","40","all_complex","images/complex/5.png","images/complex/7.png","images/complex/16.png,images/complex/2.png,images/complex/8.png,images/complex/10.png,images/complex/9.png,images/complex/1.png,images/complex/13.png","2","null","","200","405.51500003784895","","","","background","",""
"","null","html-keyboard-response","242","358124","0.0-20.0-0.14","SS1604514513800","","null","","","","","","","","","","","","<img src=images/blank.png width =""500"" height = ""500"" style=""border:5px solid black"">","","",""
"","250.08999998681247","stimulus-presentation","243","358580","0.0-20.0-1.14","SS1604514513800","<img src='images/complex/7.png' width ='500' height = '500' style='border:5px solid black'>","40","all_complex","images/complex/5.png","images/complex/7.png","images/complex/16.png,images/complex/2.png,images/complex/8.png,images/complex/10.png,images/complex/9.png,images/complex/1.png,images/complex/13.png","2","null","","200","450.0899999868125","","","","background","",""
"","null","html-keyboard-response","244","359852","0.0-20.0-0.15","SS1604514513800","","null","","","","","","","","","","","","<img src=images/blank.png width =""500"" height = ""500"" style=""border:5px solid black"">","","",""
"","2867.4950000131503","stimulus-presentation","245","362924","0.0-20.0-1.15","SS1604514513800","<img src='images/complex/7.png' width ='500' height = '500' style='border:5px solid black'>","40","all_complex","images/complex/5.png","images/complex/7.png","images/complex/16.png,images/complex/2.png,images/complex/8.png,images/complex/10.png,images/complex/9.png,images/complex/1.png,images/complex/13.png","2","null","","200","3067.4950000131503","","","","background","",""
"","null","html-keyboard-response","246","364060","0.0-20.0-0.16","SS1604514513800","","null","","","","","","","","","","","","<img src=images/blank.png width =""500"" height = ""500"" style=""border:5px solid black"">","","",""
"","196.14000001456589","stimulus-presentation","247","364462","0.0-20.0-1.16","SS1604514513800","<img src='images/complex/7.png' width ='500' height = '500' style='border:5px solid black'>","40","all_complex","images/complex/5.png","images/complex/7.png","images/complex/16.png,images/complex/2.png,images/complex/8.png,images/complex/10.png,images/complex/9.png,images/complex/1.png,images/complex/13.png","2","null","","200","396.1400000145659","","","","background","",""
"","null","html-keyboard-response","248","365569","0.0-20.0-0.17","SS1604514513800","","null","","","","","","","","","","","","<img src=images/blank.png width =""500"" height = ""500"" style=""border:5px solid black"">","","",""
"","854.0250000078231","stimulus-presentation","249","366630","0.0-20.0-1.17","SS1604514513800","<img src='images/complex/5.png' width ='500' height = '500' style='border:5px solid black'>","40","all_complex","images/complex/5.png","images/complex/7.png","images/complex/16.png,images/complex/2.png,images/complex/8.png,images/complex/10.png,images/complex/9.png,images/complex/1.png,images/complex/13.png","2","null","","200","1054.025000007823","yes","486.18000000715256","","target","",""
"","null","html-keyboard-response","250","367611","0.0-20.0-0.18","SS1604514513800","","null","","","","","","","","","","","","<img src=images/blank.png width =""500"" height = ""500"" style=""border:5px solid black"">","","",""
"","572.4050001008436","stimulus-presentation","251","368390","0.0-20.0-1.18","SS1604514513800","<img src='images/complex/16.png' width ='500' height = '500' style='border:5px solid black'>","40","all_complex","images/complex/5.png","images/complex/7.png","images/complex/16.png,images/complex/2.png,images/complex/8.png,images/complex/10.png,images/complex/9.png,images/complex/1.png,images/complex/13.png","2","null","","200","772.4050001008436","","","","deviant","",""
"","null","html-keyboard-response","252","369210","0.0-20.0-0.19","SS1604514513800","","null","","","","","","","","","","","","<img src=images/blank.png width =""500"" height = ""500"" style=""border:5px solid black"">","","",""
"","326.3749999459833","stimulus-presentation","253","369742","0.0-20.0-1.19","SS1604514513800","<img src='images/complex/7.png' width ='500' height = '500' style='border:5px solid black'>","40","all_complex","images/complex/5.png","images/complex/7.png","images/complex/16.png,images/complex/2.png,images/complex/8.png,images/complex/10.png,images/complex/9.png,images/complex/1.png,images/complex/13.png","2","null","","200","526.3749999459833","","","","background","",""
"","null","html-keyboard-response","254","371041","0.0-20.0-0.20","SS1604514513800","","null","","","","","","","","","","","","<img src=images/blank.png width =""500"" height = ""500"" style=""border:5px solid black"">","","",""
"","1000.5799999926239","stimulus-presentation","255","372254","0.0-20.0-1.20","SS1604514513800","<img src='images/complex/5.png' width ='500' height = '500' style='border:5px solid black'>","40","all_complex","images/complex/5.png","images/complex/7.png","images/complex/16.png,images/complex/2.png,images/complex/8.png,images/complex/10.png,images/complex/9.png,images/complex/1.png,images/complex/13.png","2","null","","200","1200.579999992624","yes","550.3449999960139","","target","",""
"","null","html-keyboard-response","256","373541","0.0-20.0-0.21","SS1604514513800","","null","","","","","","","","","","","","<img src=images/blank.png width =""500"" height = ""500"" style=""border:5px solid black"">","","",""
"","474.80999992694706","stimulus-presentation","257","374221","0.0-20.0-1.21","SS1604514513800","<img src='images/complex/7.png' width ='500' height = '500' style='border:5px solid black'>","40","all_complex","images/complex/5.png","images/complex/7.png","images/complex/16.png,images/complex/2.png,images/complex/8.png,images/complex/10.png,images/complex/9.png,images/complex/1.png,images/complex/13.png","2","null","","200","674.8099999269471","","","","background","",""
"","null","html-keyboard-response","258","375194","0.0-20.0-0.22","SS1604514513800","","null","","","","","","","","","","","","<img src=images/blank.png width =""500"" height = ""500"" style=""border:5px solid black"">","","",""
"","197.3149999976158","stimulus-presentation","259","375598","0.0-20.0-1.22","SS1604514513800","<img src='images/complex/7.png' width ='500' height = '500' style='border:5px solid black'>","40","all_complex","images/complex/5.png","images/complex/7.png","images/complex/16.png,images/complex/2.png,images/complex/8.png,images/complex/10.png,images/complex/9.png,images/complex/1.png,images/complex/13.png","2","null","","200","397.3149999976158","","","","background","",""
"","null","html-keyboard-response","260","376738","0.0-20.0-0.23","SS1604514513800","","null","","","","","","","","","","","","<img src=images/blank.png width =""500"" height = ""500"" style=""border:5px solid black"">","","",""
"","190.54499990306795","stimulus-presentation","261","377134","0.0-20.0-1.23","SS1604514513800","<img src='images/complex/7.png' width ='500' height = '500' style='border:5px solid black'>","40","all_complex","images/complex/5.png","images/complex/7.png","images/complex/16.png,images/complex/2.png,images/complex/8.png,images/complex/10.png,images/complex/9.png,images/complex/1.png,images/complex/13.png","2","null","","200","390.54499990306795","","","","background","",""
"","null","html-keyboard-response","262","378248","0.0-20.0-0.24","SS1604514513800","","null","","","","","","","","","","","","<img src=images/blank.png width =""500"" height = ""500"" style=""border:5px solid black"">","","",""
"","873.0450000148267","stimulus-presentation","263","379326","0.0-20.0-1.24","SS1604514513800","<img src='images/complex/8.png' width ='500' height = '500' style='border:5px solid black'>","40","all_complex","images/complex/5.png","images/complex/7.png","images/complex/16.png,images/complex/2.png,images/complex/8.png,images/complex/10.png,images/complex/9.png,images/complex/1.png,images/complex/13.png","2","null","","200","1073.0450000148267","","","","deviant","",""
"","null","html-keyboard-response","264","380152","0.0-20.0-0.25","SS1604514513800","","null","","","","","","","","","","","","<img src=images/blank.png width =""500"" height = ""500"" style=""border:5px solid black"">","","",""
"","319.01999993715435","stimulus-presentation","265","380678","0.0-20.0-1.25","SS1604514513800","<img src='images/complex/7.png' width ='500' height = '500' style='border:5px solid black'>","40","all_complex","images/complex/5.png","images/complex/7.png","images/complex/16.png,images/complex/2.png,images/complex/8.png,images/complex/10.png,images/complex/9.png,images/complex/1.png,images/complex/13.png","2","null","","200","519.0199999371544","","","","background","",""
"","null","html-keyboard-response","266","381634","0.0-20.0-0.26","SS1604514513800","","null","","","","","","","","","","","","<img src=images/blank.png width =""500"" height = ""500"" style=""border:5px solid black"">","","",""
"","302.17999999877065","stimulus-presentation","267","382142","0.0-20.0-1.26","SS1604514513800","<img src='images/complex/7.png' width ='500' height = '500' style='border:5px solid black'>","40","all_complex","images/complex/5.png","images/complex/7.png","images/complex/16.png,images/complex/2.png,images/complex/8.png,images/complex/10.png,images/complex/9.png,images/complex/1.png,images/complex/13.png","2","null","","200","502.17999999877065","","","","background","",""
"","null","html-keyboard-response","268","383237","0.0-20.0-0.27","SS1604514513800","","null","","","","","","","","","","","","<img src=images/blank.png width =""500"" height = ""500"" style=""border:5px solid black"">","","",""
"","619.5649999426678","stimulus-presentation","269","384062","0.0-20.0-1.27","SS1604514513800","<img src='images/complex/5.png' width ='500' height = '500' style='border:5px solid black'>","40","all_complex","images/complex/5.png","images/complex/7.png","images/complex/16.png,images/complex/2.png,images/complex/8.png,images/complex/10.png,images/complex/9.png,images/complex/1.png,images/complex/13.png","2","null","","200","819.5649999426678","yes","235.19999999552965","","target","",""
"","null","html-keyboard-response","270","385319","0.0-20.0-0.28","SS1604514513800","","null","","","","","","","","","","","","<img src=images/blank.png width =""500"" height = ""500"" style=""border:5px solid black"">","","",""
"","336.4249999867752","stimulus-presentation","271","385862","0.0-20.0-1.28","SS1604514513800","<img src='images/complex/7.png' width ='500' height = '500' style='border:5px solid black'>","40","all_complex","images/complex/5.png","images/complex/7.png","images/complex/16.png,images/complex/2.png,images/complex/8.png,images/complex/10.png,images/complex/9.png,images/complex/1.png,images/complex/13.png","2","null","","200","536.4249999867752","","","","background","",""
"","null","html-keyboard-response","272","386996","0.0-20.0-0.29","SS1604514513800","","null","","","","","","","","","","","","<img src=images/blank.png width =""500"" height = ""500"" style=""border:5px solid black"">","","",""
"","844.1800000146031","stimulus-presentation","273","388046","0.0-20.0-1.29","SS1604514513800","<img src='images/complex/5.png' width ='500' height = '500' style='border:5px solid black'>","40","all_complex","images/complex/5.png","images/complex/7.png","images/complex/16.png,images/complex/2.png,images/complex/8.png,images/complex/10.png,images/complex/9.png,images/complex/1.png,images/complex/13.png","2","null","","200","1044.1800000146031","yes","435.7949999393895","","target","",""
"","null","html-keyboard-response","274","389086","0.0-20.0-0.30","SS1604514513800","","null","","","","","","","","","","","","<img src=images/blank.png width =""500"" height = ""500"" style=""border:5px solid black"">","","",""
"","356.2999999849126","stimulus-presentation","275","389647","0.0-20.0-1.30","SS1604514513800","<img src='images/complex/7.png' width ='500' height = '500' style='border:5px solid black'>","40","all_complex","images/complex/5.png","images/complex/7.png","images/complex/16.png,images/complex/2.png,images/complex/8.png,images/complex/10.png,images/complex/9.png,images/complex/1.png,images/complex/13.png","2","null","","200","556.2999999849126","","","","background","",""
"","null","html-keyboard-response","276","390696","0.0-20.0-0.31","SS1604514513800","","null","","","","","","","","","","","","<img src=images/blank.png width =""500"" height = ""500"" style=""border:5px solid black"">","","",""
"","232.44499997235835","stimulus-presentation","277","391133","0.0-20.0-1.31","SS1604514513800","<img src='images/complex/7.png' width ='500' height = '500' style='border:5px solid black'>","40","all_complex","images/complex/5.png","images/complex/7.png","images/complex/16.png,images/complex/2.png,images/complex/8.png,images/complex/10.png,images/complex/9.png,images/complex/1.png,images/complex/13.png","2","null","","200","432.44499997235835","","","","background","",""
"","null","html-keyboard-response","278","392234","0.0-20.0-0.32","SS1604514513800","","null","","","","","","","","","","","","<img src=images/blank.png width =""500"" height = ""500"" style=""border:5px solid black"">","","",""
"","206.05999999679625","stimulus-presentation","279","392646","0.0-20.0-1.32","SS1604514513800","<img src='images/complex/7.png' width ='500' height = '500' style='border:5px solid black'>","40","all_complex","images/complex/5.png","images/complex/7.png","images/complex/16.png,images/complex/2.png,images/complex/8.png,images/complex/10.png,images/complex/9.png,images/complex/1.png,images/complex/13.png","2","null","","200","406.05999999679625","","","","background","",""
"","null","html-keyboard-response","280","393933","0.0-20.0-0.33","SS1604514513800","","null","","","","","","","","","","","","<img src=images/blank.png width =""500"" height = ""500"" style=""border:5px solid black"">","","",""
"","746.9350000610575","stimulus-presentation","281","394886","0.0-20.0-1.33","SS1604514513800","<img src='images/complex/5.png' width ='500' height = '500' style='border:5px solid black'>","40","all_complex","images/complex/5.png","images/complex/7.png","images/complex/16.png,images/complex/2.png,images/complex/8.png,images/complex/10.png,images/complex/9.png,images/complex/1.png,images/complex/13.png","2","null","","200","946.9350000610575","yes","378.6199999740347","","target","",""
"","null","html-keyboard-response","282","395964","0.0-20.0-0.34","SS1604514513800","","null","","","","","","","","","","","","<img src=images/blank.png width =""500"" height = ""500"" style=""border:5px solid black"">","","",""
"","242.14499990921468","stimulus-presentation","283","396414","0.0-20.0-1.34","SS1604514513800","<img src='images/complex/7.png' width ='500' height = '500' style='border:5px solid black'>","40","all_complex","images/complex/5.png","images/complex/7.png","images/complex/16.png,images/complex/2.png,images/complex/8.png,images/complex/10.png,images/complex/9.png,images/complex/1.png,images/complex/13.png","2","null","","200","442.1449999092147","","","","background","",""
"","null","html-keyboard-response","284","397673","0.0-20.0-0.35","SS1604514513800","","null","","","","","","","","","","","","<img src=images/blank.png width =""500"" height = ""500"" style=""border:5px solid black"">","","",""
