"view_history","rt","trial_type","trial_index","time_elapsed","internal_node_id","subject","trial_stimulus","key_press","task_type","task_target_stimulus","task_background_stimulus","task_deviant_stimuli","task_order_number","block_order_number","trial_order_number","minimum_viewing_duration","trial_looking_time","trial_pressed_space_bar","trial_space_bar_rt","stimulus","trial_stimulus_type","responses","question_order"
"[{""page_index"":0,""viewing_time"":2416.4750000927597}]","2416.7200000956655","instructions","0","2432","0.0-0.0","SS1604515119749","","","","","","","","","","","","","","","","",""
"[{""page_index"":0,""viewing_time"":3405.314999865368},{""page_index"":1,""viewing_time"":4631.9450000301},{""page_index"":2,""viewing_time"":3816.025000065565},{""page_index"":3,""viewing_time"":4951.954999938607},{""page_index"":4,""viewing_time"":2632.0299999788404},{""page_index"":5,""viewing_time"":24.119999958202243},{""page_index"":6,""viewing_time"":47.74000006727874},{""page_index"":7,""viewing_time"":1063.9899999368936},{""page_index"":6,""viewing_time"":1760.1650001015514},{""page_index"":7,""viewing_time"":3336.265000049025},{""page_index"":8,""viewing_time"":1287.769999820739}]","26957.664999878034","instructions","1","29392","0.0-1.0","SS1604515119749","","","","","","","","","","","","","","","","",""
"[{""page_index"":0,""viewing_time"":3702.4100001435727},{""page_index"":1,""viewing_time"":7039.769999915734},{""page_index"":2,""viewing_time"":1240.1300000492483}]","11982.645000098273","instructions","2","41376","0.0-2.0","SS1604515119749","","","","","","","","","","","","","","","","",""
"","1132.9749999567866","practice-block","3","42712","0.0-3.0","SS1604515119749","<img src='images/practice/practice_background.jpeg' width ='500' height = '500' style='border:5px solid black'>","40","null","images/practice/practice_target.jpg","null","null","null","null","","200","1332.9749999567866","","","","","",""
"","null","html-keyboard-response","4","43602","0.0-4.0","SS1604515119749","","null","","","","","","","","","","","","<img src=images/blank.png width =""500"" height = ""500"" style=""border:5px solid black"">","","",""
"","538.219999987632","practice-block","5","44344","0.0-5.0","SS1604515119749","<img src='images/practice/practice_background.jpeg' width ='500' height = '500' style='border:5px solid black'>","40","null","images/practice/practice_target.jpg","null","null","null","null","","200","738.219999987632","","","","","",""
"","null","html-keyboard-response","6","45234","0.0-6.0","SS1604515119749","","null","","","","","","","","","","","","<img src=images/blank.png width =""500"" height = ""500"" style=""border:5px solid black"">","","",""
"","354.12000003270805","practice-block","7","45792","0.0-7.0","SS1604515119749","<img src='images/practice/practice_deviant.jpeg' width ='500' height = '500' style='border:5px solid black'>","40","null","images/practice/practice_target.jpg","null","null","null","null","","200","554.120000032708","","","","","",""
"","null","html-keyboard-response","8","46825","0.0-8.0","SS1604515119749","","null","","","","","","","","","","","","<img src=images/blank.png width =""500"" height = ""500"" style=""border:5px solid black"">","","",""
"","3716.135000111535","practice-block","9","50745","0.0-9.0-0.0","SS1604515119749","<img src='images/practice/practice_target.jpg' width ='500' height = '500' style='border:5px solid black'>","40","null","images/practice/practice_target.jpg","null","null","null","null","","200","3916.135000111535","yes","275.36500012502074","","","",""
"","null","html-keyboard-response","10","51955","0.0-10.0","SS1604515119749","","null","","","","","","","","","","","","<img src=images/blank.png width =""500"" height = ""500"" style=""border:5px solid black"">","","",""
"","265.224999981001","practice-block","11","52424","0.0-11.0","SS1604515119749","<img src='images/practice/practice_background.jpeg' width ='500' height = '500' style='border:5px solid black'>","40","null","images/practice/practice_target.jpg","null","null","null","null","","200","465.224999981001","","","","","",""
"[{""page_index"":0,""viewing_time"":2327}]","2327","task-instructions","12","54752","0.0-12.0","SS1604515119749","","","","","","","","","","","","","","","","",""
"[{""page_index"":0,""viewing_time"":2469.224999891594},{""page_index"":1,""viewing_time"":3760.454999981448},{""page_index"":2,""viewing_time"":1592.2400001436472}]","7822.214999934658","instructions","13","62577","0.0-13.0","SS1604515119749","","","","","","","","","","","","","","","","",""
"","null","html-keyboard-response","14","63502","0.0-14.0-0.0","SS1604515119749","","null","","","","","","","","","","","","<img src=images/blank.png width =""500"" height = ""500"" style=""border:5px solid black"">","","",""
"","1342.8799998946488","stimulus-presentation","15","65049","0.0-14.0-1.0","SS1604515119749","<img src='images/complex/18.png' width ='500' height = '500' style='border:5px solid black'>","40","mixed_complex_deviant","images/simple/3.png","images/simple/2.png","images/complex/10.png,images/complex/14.png,images/complex/5.png,images/complex/18.png,images/complex/8.png,images/complex/7.png,images/complex/11.png","0","null","","200","1542.8799998946488","","","","deviant","",""
"","null","html-keyboard-response","16","65863","0.0-14.0-0.1","SS1604515119749","","null","","","","","","","","","","","","<img src=images/blank.png width =""500"" height = ""500"" style=""border:5px solid black"">","","",""
"","470.6349999178201","stimulus-presentation","17","66537","0.0-14.0-1.1","SS1604515119749","<img src='images/simple/2.png' width ='500' height = '500' style='border:5px solid black'>","40","mixed_complex_deviant","images/simple/3.png","images/simple/2.png","images/complex/10.png,images/complex/14.png,images/complex/5.png,images/complex/18.png,images/complex/8.png,images/complex/7.png,images/complex/11.png","0","null","","200","670.6349999178201","","","","background","",""
"","null","html-keyboard-response","18","67474","0.0-14.0-0.2","SS1604515119749","","null","","","","","","","","","","","","<img src=images/blank.png width =""500"" height = ""500"" style=""border:5px solid black"">","","",""
"","370.34500017762184","stimulus-presentation","19","68048","0.0-14.0-1.2","SS1604515119749","<img src='images/simple/2.png' width ='500' height = '500' style='border:5px solid black'>","40","mixed_complex_deviant","images/simple/3.png","images/simple/2.png","images/complex/10.png,images/complex/14.png,images/complex/5.png,images/complex/18.png,images/complex/8.png,images/complex/7.png,images/complex/11.png","0","null","","200","570.3450001776218","","","","background","",""
"","null","html-keyboard-response","20","68926","0.0-14.0-0.3","SS1604515119749","","null","","","","","","","","","","","","<img src=images/blank.png width =""500"" height = ""500"" style=""border:5px solid black"">","","",""
"","391.9050002004951","stimulus-presentation","21","69520","0.0-14.0-1.3","SS1604515119749","<img src='images/simple/2.png' width ='500' height = '500' style='border:5px solid black'>","40","mixed_complex_deviant","images/simple/3.png","images/simple/2.png","images/complex/10.png,images/complex/14.png,images/complex/5.png,images/complex/18.png,images/complex/8.png,images/complex/7.png,images/complex/11.png","0","null","","200","591.9050002004951","","","","background","",""
"","null","html-keyboard-response","22","70814","0.0-14.0-0.4","SS1604515119749","","null","","","","","","","","","","","","<img src=images/blank.png width =""500"" height = ""500"" style=""border:5px solid black"">","","",""
"","229.76500005461276","stimulus-presentation","23","71249","0.0-14.0-1.4","SS1604515119749","<img src='images/simple/2.png' width ='500' height = '500' style='border:5px solid black'>","40","mixed_complex_deviant","images/simple/3.png","images/simple/2.png","images/complex/10.png,images/complex/14.png,images/complex/5.png,images/complex/18.png,images/complex/8.png,images/complex/7.png,images/complex/11.png","0","null","","200","429.76500005461276","","","","background","",""
"","null","html-keyboard-response","24","72430","0.0-14.0-0.5","SS1604515119749","","null","","","","","","","","","","","","<img src=images/blank.png width =""500"" height = ""500"" style=""border:5px solid black"">","","",""
"","208.16000015474856","stimulus-presentation","25","72840","0.0-14.0-1.5","SS1604515119749","<img src='images/simple/2.png' width ='500' height = '500' style='border:5px solid black'>","40","mixed_complex_deviant","images/simple/3.png","images/simple/2.png","images/complex/10.png,images/complex/14.png,images/complex/5.png,images/complex/18.png,images/complex/8.png,images/complex/7.png,images/complex/11.png","0","null","","200","408.16000015474856","","","","background","",""
"","null","html-keyboard-response","26","74028","0.0-14.0-0.6","SS1604515119749","","null","","","","","","","","","","","","<img src=images/blank.png width =""500"" height = ""500"" style=""border:5px solid black"">","","",""
"","257.2749999817461","stimulus-presentation","27","74488","0.0-14.0-1.6","SS1604515119749","<img src='images/complex/10.png' width ='500' height = '500' style='border:5px solid black'>","40","mixed_complex_deviant","images/simple/3.png","images/simple/2.png","images/complex/10.png,images/complex/14.png,images/complex/5.png,images/complex/18.png,images/complex/8.png,images/complex/7.png,images/complex/11.png","0","null","","200","457.2749999817461","","","","deviant","",""
"","null","html-keyboard-response","28","75455","0.0-14.0-0.7","SS1604515119749","","null","","","","","","","","","","","","<img src=images/blank.png width =""500"" height = ""500"" style=""border:5px solid black"">","","",""
"","334.31500010192394","stimulus-presentation","29","75992","0.0-14.0-1.7","SS1604515119749","<img src='images/simple/2.png' width ='500' height = '500' style='border:5px solid black'>","40","mixed_complex_deviant","images/simple/3.png","images/simple/2.png","images/complex/10.png,images/complex/14.png,images/complex/5.png,images/complex/18.png,images/complex/8.png,images/complex/7.png,images/complex/11.png","0","null","","200","534.3150001019239","","","","background","",""
"","null","html-keyboard-response","30","76799","0.0-14.0-0.8","SS1604515119749","","null","","","","","","","","","","","","<img src=images/blank.png width =""500"" height = ""500"" style=""border:5px solid black"">","","",""
"","423.01000002771616","stimulus-presentation","31","77424","0.0-14.0-1.8","SS1604515119749","<img src='images/complex/5.png' width ='500' height = '500' style='border:5px solid black'>","40","mixed_complex_deviant","images/simple/3.png","images/simple/2.png","images/complex/10.png,images/complex/14.png,images/complex/5.png,images/complex/18.png,images/complex/8.png,images/complex/7.png,images/complex/11.png","0","null","","200","623.0100000277162","","","","deviant","",""
"","null","html-keyboard-response","32","78477","0.0-14.0-0.9","SS1604515119749","","null","","","","","","","","","","","","<img src=images/blank.png width =""500"" height = ""500"" style=""border:5px solid black"">","","",""
"","257.1049998514354","stimulus-presentation","33","78937","0.0-14.0-1.9","SS1604515119749","<img src='images/simple/2.png' width ='500' height = '500' style='border:5px solid black'>","40","mixed_complex_deviant","images/simple/3.png","images/simple/2.png","images/complex/10.png,images/complex/14.png,images/complex/5.png,images/complex/18.png,images/complex/8.png,images/complex/7.png,images/complex/11.png","0","null","","200","457.1049998514354","","","","background","",""
"","null","html-keyboard-response","34","79865","0.0-14.0-0.10","SS1604515119749","","null","","","","","","","","","","","","<img src=images/blank.png width =""500"" height = ""500"" style=""border:5px solid black"">","","",""
"","244.81000006198883","stimulus-presentation","35","80312","0.0-14.0-1.10","SS1604515119749","<img src='images/simple/2.png' width ='500' height = '500' style='border:5px solid black'>","40","mixed_complex_deviant","images/simple/3.png","images/simple/2.png","images/complex/10.png,images/complex/14.png,images/complex/5.png,images/complex/18.png,images/complex/8.png,images/complex/7.png,images/complex/11.png","0","null","","200","444.81000006198883","","","","background","",""
"","null","html-keyboard-response","36","81138","0.0-14.0-0.11","SS1604515119749","","null","","","","","","","","","","","","<img src=images/blank.png width =""500"" height = ""500"" style=""border:5px solid black"">","","",""
"","235.53499998524785","stimulus-presentation","37","81577","0.0-14.0-1.11","SS1604515119749","<img src='images/simple/2.png' width ='500' height = '500' style='border:5px solid black'>","40","mixed_complex_deviant","images/simple/3.png","images/simple/2.png","images/complex/10.png,images/complex/14.png,images/complex/5.png,images/complex/18.png,images/complex/8.png,images/complex/7.png,images/complex/11.png","0","null","","200","435.53499998524785","","","","background","",""
"","null","html-keyboard-response","38","82748","0.0-14.0-0.12","SS1604515119749","","null","","","","","","","","","","","","<img src=images/blank.png width =""500"" height = ""500"" style=""border:5px solid black"">","","",""
"","273.7650000490248","stimulus-presentation","39","83224","0.0-14.0-1.12","SS1604515119749","<img src='images/complex/7.png' width ='500' height = '500' style='border:5px solid black'>","40","mixed_complex_deviant","images/simple/3.png","images/simple/2.png","images/complex/10.png,images/complex/14.png,images/complex/5.png,images/complex/18.png,images/complex/8.png,images/complex/7.png,images/complex/11.png","0","null","","200","473.7650000490248","","","","deviant","",""
"","null","html-keyboard-response","40","84219","0.0-14.0-0.13","SS1604515119749","","null","","","","","","","","","","","","<img src=images/blank.png width =""500"" height = ""500"" style=""border:5px solid black"">","","",""
"","233.77000004984438","stimulus-presentation","41","84656","0.0-14.0-1.13","SS1604515119749","<img src='images/simple/2.png' width ='500' height = '500' style='border:5px solid black'>","40","mixed_complex_deviant","images/simple/3.png","images/simple/2.png","images/complex/10.png,images/complex/14.png,images/complex/5.png,images/complex/18.png,images/complex/8.png,images/complex/7.png,images/complex/11.png","0","null","","200","433.7700000498444","","","","background","",""
"","null","html-keyboard-response","42","85703","0.0-14.0-0.14","SS1604515119749","","null","","","","","","","","","","","","<img src=images/blank.png width =""500"" height = ""500"" style=""border:5px solid black"">","","",""
"","166.37999983504415","stimulus-presentation","43","86072","0.0-14.0-1.14","SS1604515119749","<img src='images/simple/2.png' width ='500' height = '500' style='border:5px solid black'>","40","mixed_complex_deviant","images/simple/3.png","images/simple/2.png","images/complex/10.png,images/complex/14.png,images/complex/5.png,images/complex/18.png,images/complex/8.png,images/complex/7.png,images/complex/11.png","0","null","","200","366.37999983504415","","","","background","",""
"","null","html-keyboard-response","44","87105","0.0-14.0-0.15","SS1604515119749","","null","","","","","","","","","","","","<img src=images/blank.png width =""500"" height = ""500"" style=""border:5px solid black"">","","",""
"","187.55999999120831","stimulus-presentation","45","87496","0.0-14.0-1.15","SS1604515119749","<img src='images/simple/2.png' width ='500' height = '500' style='border:5px solid black'>","40","mixed_complex_deviant","images/simple/3.png","images/simple/2.png","images/complex/10.png,images/complex/14.png,images/complex/5.png,images/complex/18.png,images/complex/8.png,images/complex/7.png,images/complex/11.png","0","null","","200","387.5599999912083","","","","background","",""
"","null","html-keyboard-response","46","88330","0.0-14.0-0.16","SS1604515119749","","null","","","","","","","","","","","","<img src=images/blank.png width =""500"" height = ""500"" style=""border:5px solid black"">","","",""
"","292.37499996088445","stimulus-presentation","47","88824","0.0-14.0-1.16","SS1604515119749","<img src='images/simple/2.png' width ='500' height = '500' style='border:5px solid black'>","40","mixed_complex_deviant","images/simple/3.png","images/simple/2.png","images/complex/10.png,images/complex/14.png,images/complex/5.png,images/complex/18.png,images/complex/8.png,images/complex/7.png,images/complex/11.png","0","null","","200","492.37499996088445","","","","background","",""
"","null","html-keyboard-response","48","89801","0.0-14.0-0.17","SS1604515119749","","null","","","","","","","","","","","","<img src=images/blank.png width =""500"" height = ""500"" style=""border:5px solid black"">","","",""
"","363.6100001167506","stimulus-presentation","49","90368","0.0-14.0-1.17","SS1604515119749","<img src='images/simple/2.png' width ='500' height = '500' style='border:5px solid black'>","40","mixed_complex_deviant","images/simple/3.png","images/simple/2.png","images/complex/10.png,images/complex/14.png,images/complex/5.png,images/complex/18.png,images/complex/8.png,images/complex/7.png,images/complex/11.png","0","null","","200","563.6100001167506","","","","background","",""
"","null","html-keyboard-response","50","91667","0.0-14.0-0.18","SS1604515119749","","null","","","","","","","","","","","","<img src=images/blank.png width =""500"" height = ""500"" style=""border:5px solid black"">","","",""
"","4361.455000005662","stimulus-presentation","51","96232","0.0-14.0-1.18","SS1604515119749","<img src='images/simple/3.png' width ='500' height = '500' style='border:5px solid black'>","40","mixed_complex_deviant","images/simple/3.png","images/simple/2.png","images/complex/10.png,images/complex/14.png,images/complex/5.png,images/complex/18.png,images/complex/8.png,images/complex/7.png,images/complex/11.png","0","null","","200","4561.455000005662","yes","2585.26000007987","","target","",""
"","null","html-keyboard-response","52","97035","0.0-14.0-0.19","SS1604515119749","","null","","","","","","","","","","","","<img src=images/blank.png width =""500"" height = ""500"" style=""border:5px solid black"">","","",""
"","402.37500006332994","stimulus-presentation","53","97640","0.0-14.0-1.19","SS1604515119749","<img src='images/simple/2.png' width ='500' height = '500' style='border:5px solid black'>","40","mixed_complex_deviant","images/simple/3.png","images/simple/2.png","images/complex/10.png,images/complex/14.png,images/complex/5.png,images/complex/18.png,images/complex/8.png,images/complex/7.png,images/complex/11.png","0","null","","200","602.3750000633299","","","","background","",""
"","null","html-keyboard-response","54","98484","0.0-14.0-0.20","SS1604515119749","","null","","","","","","","","","","","","<img src=images/blank.png width =""500"" height = ""500"" style=""border:5px solid black"">","","",""
"","208.41500000096858","stimulus-presentation","55","98896","0.0-14.0-1.20","SS1604515119749","<img src='images/simple/2.png' width ='500' height = '500' style='border:5px solid black'>","40","mixed_complex_deviant","images/simple/3.png","images/simple/2.png","images/complex/10.png,images/complex/14.png,images/complex/5.png,images/complex/18.png,images/complex/8.png,images/complex/7.png,images/complex/11.png","0","null","","200","408.4150000009686","","","","background","",""
"","null","html-keyboard-response","56","99977","0.0-14.0-0.21","SS1604515119749","","null","","","","","","","","","","","","<img src=images/blank.png width =""500"" height = ""500"" style=""border:5px solid black"">","","",""
"","948.1999999843538","stimulus-presentation","57","101128","0.0-14.0-1.21","SS1604515119749","<img src='images/simple/3.png' width ='500' height = '500' style='border:5px solid black'>","40","mixed_complex_deviant","images/simple/3.png","images/simple/2.png","images/complex/10.png,images/complex/14.png,images/complex/5.png,images/complex/18.png,images/complex/8.png,images/complex/7.png,images/complex/11.png","0","null","","200","1148.1999999843538","yes","292.35000000335276","","target","",""
"","null","html-keyboard-response","58","102315","0.0-14.0-0.22","SS1604515119749","","null","","","","","","","","","","","","<img src=images/blank.png width =""500"" height = ""500"" style=""border:5px solid black"">","","",""
"","137.9949999973178","stimulus-presentation","59","102656","0.0-14.0-1.22","SS1604515119749","<img src='images/simple/2.png' width ='500' height = '500' style='border:5px solid black'>","40","mixed_complex_deviant","images/simple/3.png","images/simple/2.png","images/complex/10.png,images/complex/14.png,images/complex/5.png,images/complex/18.png,images/complex/8.png,images/complex/7.png,images/complex/11.png","0","null","","200","337.9949999973178","","","","background","",""
"","null","html-keyboard-response","60","103617","0.0-14.0-0.23","SS1604515119749","","null","","","","","","","","","","","","<img src=images/blank.png width =""500"" height = ""500"" style=""border:5px solid black"">","","",""
"","140.2499999385327","stimulus-presentation","61","103960","0.0-14.0-1.23","SS1604515119749","<img src='images/simple/2.png' width ='500' height = '500' style='border:5px solid black'>","40","mixed_complex_deviant","images/simple/3.png","images/simple/2.png","images/complex/10.png,images/complex/14.png,images/complex/5.png,images/complex/18.png,images/complex/8.png,images/complex/7.png,images/complex/11.png","0","null","","200","340.2499999385327","","","","background","",""
"","null","html-keyboard-response","62","105237","0.0-14.0-0.24","SS1604515119749","","null","","","","","","","","","","","","<img src=images/blank.png width =""500"" height = ""500"" style=""border:5px solid black"">","","",""
"","119.8849999345839","stimulus-presentation","63","105560","0.0-14.0-1.24","SS1604515119749","<img src='images/simple/2.png' width ='500' height = '500' style='border:5px solid black'>","40","mixed_complex_deviant","images/simple/3.png","images/simple/2.png","images/complex/10.png,images/complex/14.png,images/complex/5.png,images/complex/18.png,images/complex/8.png,images/complex/7.png,images/complex/11.png","0","null","","200","319.8849999345839","","","","background","",""
"","null","html-keyboard-response","64","106681","0.0-14.0-0.25","SS1604515119749","","null","","","","","","","","","","","","<img src=images/blank.png width =""500"" height = ""500"" style=""border:5px solid black"">","","",""
"","132.4500001501292","stimulus-presentation","65","107017","0.0-14.0-1.25","SS1604515119749","<img src='images/simple/2.png' width ='500' height = '500' style='border:5px solid black'>","40","mixed_complex_deviant","images/simple/3.png","images/simple/2.png","images/complex/10.png,images/complex/14.png,images/complex/5.png,images/complex/18.png,images/complex/8.png,images/complex/7.png,images/complex/11.png","0","null","","200","332.4500001501292","","","","background","",""
"","null","html-keyboard-response","66","107965","0.0-14.0-0.26","SS1604515119749","","null","","","","","","","","","","","","<img src=images/blank.png width =""500"" height = ""500"" style=""border:5px solid black"">","","",""
"","120.75000000186265","stimulus-presentation","67","108288","0.0-14.0-1.26","SS1604515119749","<img src='images/simple/2.png' width ='500' height = '500' style='border:5px solid black'>","40","mixed_complex_deviant","images/simple/3.png","images/simple/2.png","images/complex/10.png,images/complex/14.png,images/complex/5.png,images/complex/18.png,images/complex/8.png,images/complex/7.png,images/complex/11.png","0","null","","200","320.75000000186265","","","","background","",""
"","null","html-keyboard-response","68","109202","0.0-14.0-0.27","SS1604515119749","","null","","","","","","","","","","","","<img src=images/blank.png width =""500"" height = ""500"" style=""border:5px solid black"">","","",""
"","328.33500020205975","stimulus-presentation","69","109736","0.0-14.0-1.27","SS1604515119749","<img src='images/complex/8.png' width ='500' height = '500' style='border:5px solid black'>","40","mixed_complex_deviant","images/simple/3.png","images/simple/2.png","images/complex/10.png,images/complex/14.png,images/complex/5.png,images/complex/18.png,images/complex/8.png,images/complex/7.png,images/complex/11.png","0","null","","200","528.3350002020597","","","","deviant","",""
"","null","html-keyboard-response","70","110610","0.0-14.0-0.28","SS1604515119749","","null","","","","","","","","","","","","<img src=images/blank.png width =""500"" height = ""500"" style=""border:5px solid black"">","","",""
"","163.77499978989363","stimulus-presentation","71","110976","0.0-14.0-1.28","SS1604515119749","<img src='images/simple/2.png' width ='500' height = '500' style='border:5px solid black'>","40","mixed_complex_deviant","images/simple/3.png","images/simple/2.png","images/complex/10.png,images/complex/14.png,images/complex/5.png,images/complex/18.png,images/complex/8.png,images/complex/7.png,images/complex/11.png","0","null","","200","363.7749997898936","","","","background","",""
"","null","html-keyboard-response","72","112242","0.0-14.0-0.29","SS1604515119749","","null","","","","","","","","","","","","<img src=images/blank.png width =""500"" height = ""500"" style=""border:5px solid black"">","","",""
"","1435.0000000558794","stimulus-presentation","73","113880","0.0-14.0-1.29","SS1604515119749","<img src='images/simple/3.png' width ='500' height = '500' style='border:5px solid black'>","40","mixed_complex_deviant","images/simple/3.png","images/simple/2.png","images/complex/10.png,images/complex/14.png,images/complex/5.png,images/complex/18.png,images/complex/8.png,images/complex/7.png,images/complex/11.png","0","null","","200","1635.0000000558794","yes","538.7450000271201","","target","",""
"","null","html-keyboard-response","74","114981","0.0-14.0-0.30","SS1604515119749","","null","","","","","","","","","","","","<img src=images/blank.png width =""500"" height = ""500"" style=""border:5px solid black"">","","",""
"","894.0149999689311","stimulus-presentation","75","116080","0.0-14.0-1.30","SS1604515119749","<img src='images/simple/3.png' width ='500' height = '500' style='border:5px solid black'>","40","mixed_complex_deviant","images/simple/3.png","images/simple/2.png","images/complex/10.png,images/complex/14.png,images/complex/5.png,images/complex/18.png,images/complex/8.png,images/complex/7.png,images/complex/11.png","0","null","","200","1094.014999968931","yes","295.0249998830259","","target","",""
"","null","html-keyboard-response","76","117312","0.0-14.0-0.31","SS1604515119749","","null","","","","","","","","","","","","<img src=images/blank.png width =""500"" height = ""500"" style=""border:5px solid black"">","","",""
"","444.4099999964237","stimulus-presentation","77","117960","0.0-14.0-1.31","SS1604515119749","<img src='images/complex/11.png' width ='500' height = '500' style='border:5px solid black'>","40","mixed_complex_deviant","images/simple/3.png","images/simple/2.png","images/complex/10.png,images/complex/14.png,images/complex/5.png,images/complex/18.png,images/complex/8.png,images/complex/7.png,images/complex/11.png","0","null","","200","644.4099999964237","","","","deviant","",""
"","null","html-keyboard-response","78","118897","0.0-14.0-0.32","SS1604515119749","","null","","","","","","","","","","","","<img src=images/blank.png width =""500"" height = ""500"" style=""border:5px solid black"">","","",""
"","387.2400000691414","stimulus-presentation","79","119488","0.0-14.0-1.32","SS1604515119749","<img src='images/simple/2.png' width ='500' height = '500' style='border:5px solid black'>","40","mixed_complex_deviant","images/simple/3.png","images/simple/2.png","images/complex/10.png,images/complex/14.png,images/complex/5.png,images/complex/18.png,images/complex/8.png,images/complex/7.png,images/complex/11.png","0","null","","200","587.2400000691414","","","","background","",""
"","null","html-keyboard-response","80","120421","0.0-14.0-0.33","SS1604515119749","","null","","","","","","","","","","","","<img src=images/blank.png width =""500"" height = ""500"" style=""border:5px solid black"">","","",""
"","192.24500004202127","stimulus-presentation","81","120817","0.0-14.0-1.33","SS1604515119749","<img src='images/simple/2.png' width ='500' height = '500' style='border:5px solid black'>","40","mixed_complex_deviant","images/simple/3.png","images/simple/2.png","images/complex/10.png,images/complex/14.png,images/complex/5.png,images/complex/18.png,images/complex/8.png,images/complex/7.png,images/complex/11.png","0","null","","200","392.2450000420213","","","","background","",""
"","null","html-keyboard-response","82","122042","0.0-14.0-0.34","SS1604515119749","","null","","","","","","","","","","","","<img src=images/blank.png width =""500"" height = ""500"" style=""border:5px solid black"">","","",""
"","145.77499986626208","stimulus-presentation","83","122392","0.0-14.0-1.34","SS1604515119749","<img src='images/simple/2.png' width ='500' height = '500' style='border:5px solid black'>","40","mixed_complex_deviant","images/simple/3.png","images/simple/2.png","images/complex/10.png,images/complex/14.png,images/complex/5.png,images/complex/18.png,images/complex/8.png,images/complex/7.png,images/complex/11.png","0","null","","200","345.7749998662621","","","","background","",""
"","null","html-keyboard-response","84","123216","0.0-14.0-0.35","SS1604515119749","","null","","","","","","","","","","","","<img src=images/blank.png width =""500"" height = ""500"" style=""border:5px solid black"">","","",""
"","221.7399999499321","stimulus-presentation","85","123640","0.0-14.0-1.35","SS1604515119749","<img src='images/simple/2.png' width ='500' height = '500' style='border:5px solid black'>","40","mixed_complex_deviant","images/simple/3.png","images/simple/2.png","images/complex/10.png,images/complex/14.png,images/complex/5.png,images/complex/18.png,images/complex/8.png,images/complex/7.png,images/complex/11.png","0","null","","200","421.7399999499321","","","","background","",""
"","null","html-keyboard-response","86","124826","0.0-14.0-0.36","SS1604515119749","","null","","","","","","","","","","","","<img src=images/blank.png width =""500"" height = ""500"" style=""border:5px solid black"">","","",""
"","217.78499986976385","stimulus-presentation","87","125248","0.0-14.0-1.36","SS1604515119749","<img src='images/simple/2.png' width ='500' height = '500' style='border:5px solid black'>","40","mixed_complex_deviant","images/simple/3.png","images/simple/2.png","images/complex/10.png,images/complex/14.png,images/complex/5.png,images/complex/18.png,images/complex/8.png,images/complex/7.png,images/complex/11.png","0","null","","200","417.78499986976385","","","","background","",""
"","null","html-keyboard-response","88","126254","0.0-14.0-0.37","SS1604515119749","","null","","","","","","","","","","","","<img src=images/blank.png width =""500"" height = ""500"" style=""border:5px solid black"">","","",""
"","934.5899999607354","stimulus-presentation","89","127392","0.0-14.0-1.37","SS1604515119749","<img src='images/simple/3.png' width ='500' height = '500' style='border:5px solid black'>","40","mixed_complex_deviant","images/simple/3.png","images/simple/2.png","images/complex/10.png,images/complex/14.png,images/complex/5.png,images/complex/18.png,images/complex/8.png,images/complex/7.png,images/complex/11.png","0","null","","200","1134.5899999607354","yes","295.1599999796599","","target","",""
"","null","html-keyboard-response","90","128202","0.0-14.0-0.38","SS1604515119749","","null","","","","","","","","","","","","<img src=images/blank.png width =""500"" height = ""500"" style=""border:5px solid black"">","","",""
"","251.32000003941357","stimulus-presentation","91","128656","0.0-14.0-1.38","SS1604515119749","<img src='images/simple/2.png' width ='500' height = '500' style='border:5px solid black'>","40","mixed_complex_deviant","images/simple/3.png","images/simple/2.png","images/complex/10.png,images/complex/14.png,images/complex/5.png,images/complex/18.png,images/complex/8.png,images/complex/7.png,images/complex/11.png","0","null","","200","451.32000003941357","","","","background","",""
"","null","html-keyboard-response","92","129496","0.0-14.0-0.39","SS1604515119749","","null","","","","","","","","","","","","<img src=images/blank.png width =""500"" height = ""500"" style=""border:5px solid black"">","","",""
"","188.10499995015562","stimulus-presentation","93","129888","0.0-14.0-1.39","SS1604515119749","<img src='images/simple/2.png' width ='500' height = '500' style='border:5px solid black'>","40","mixed_complex_deviant","images/simple/3.png","images/simple/2.png","images/complex/10.png,images/complex/14.png,images/complex/5.png,images/complex/18.png,images/complex/8.png,images/complex/7.png,images/complex/11.png","0","null","","200","388.1049999501556","","","","background","",""
"","null","html-keyboard-response","94","131078","0.0-14.0-0.40","SS1604515119749","","null","","","","","","","","","","","","<img src=images/blank.png width =""500"" height = ""500"" style=""border:5px solid black"">","","",""
"","142.16499985195696","stimulus-presentation","95","131424","0.0-14.0-1.40","SS1604515119749","<img src='images/simple/2.png' width ='500' height = '500' style='border:5px solid black'>","40","mixed_complex_deviant","images/simple/3.png","images/simple/2.png","images/complex/10.png,images/complex/14.png,images/complex/5.png,images/complex/18.png,images/complex/8.png,images/complex/7.png,images/complex/11.png","0","null","","200","342.16499985195696","","","","background","",""
"","null","html-keyboard-response","96","132675","0.0-14.0-0.41","SS1604515119749","","null","","","","","","","","","","","","<img src=images/blank.png width =""500"" height = ""500"" style=""border:5px solid black"">","","",""
"","122.31000000610948","stimulus-presentation","97","133000","0.0-14.0-1.41","SS1604515119749","<img src='images/simple/2.png' width ='500' height = '500' style='border:5px solid black'>","40","mixed_complex_deviant","images/simple/3.png","images/simple/2.png","images/complex/10.png,images/complex/14.png,images/complex/5.png,images/complex/18.png,images/complex/8.png,images/complex/7.png,images/complex/11.png","0","null","","200","322.3100000061095","","","","background","",""
"","null","html-keyboard-response","98","133969","0.0-14.0-0.42","SS1604515119749","","null","","","","","","","","","","","","<img src=images/blank.png width =""500"" height = ""500"" style=""border:5px solid black"">","","",""
"","978.7649998907","stimulus-presentation","99","135152","0.0-14.0-1.42","SS1604515119749","<img src='images/simple/3.png' width ='500' height = '500' style='border:5px solid black'>","40","mixed_complex_deviant","images/simple/3.png","images/simple/2.png","images/complex/10.png,images/complex/14.png,images/complex/5.png,images/complex/18.png,images/complex/8.png,images/complex/7.png,images/complex/11.png","0","null","","200","1178.7649998907","yes","331.0650000348687","","target","",""
"","null","html-keyboard-response","100","136167","0.0-14.0-0.43","SS1604515119749","","null","","","","","","","","","","","","<img src=images/blank.png width =""500"" height = ""500"" style=""border:5px solid black"">","","",""
"","342.1000000089407","stimulus-presentation","101","136712","0.0-14.0-1.43","SS1604515119749","<img src='images/complex/14.png' width ='500' height = '500' style='border:5px solid black'>","40","mixed_complex_deviant","images/simple/3.png","images/simple/2.png","images/complex/10.png,images/complex/14.png,images/complex/5.png,images/complex/18.png,images/complex/8.png,images/complex/7.png,images/complex/11.png","0","null","","200","542.1000000089407","","","","deviant","",""
"","null","html-keyboard-response","102","137991","0.0-14.0-0.44","SS1604515119749","","null","","","","","","","","","","","","<img src=images/blank.png width =""500"" height = ""500"" style=""border:5px solid black"">","","",""
"","175.29500019736588","stimulus-presentation","103","138369","0.0-14.0-1.44","SS1604515119749","<img src='images/simple/2.png' width ='500' height = '500' style='border:5px solid black'>","40","mixed_complex_deviant","images/simple/3.png","images/simple/2.png","images/complex/10.png,images/complex/14.png,images/complex/5.png,images/complex/18.png,images/complex/8.png,images/complex/7.png,images/complex/11.png","0","null","","200","375.2950001973659","","","","background","",""
"","null","html-keyboard-response","104","139668","0.0-14.0-0.45","SS1604515119749","","null","","","","","","","","","","","","<img src=images/blank.png width =""500"" height = ""500"" style=""border:5px solid black"">","","",""
"","88.93000008538365","stimulus-presentation","105","139960","0.0-14.0-1.45","SS1604515119749","<img src='images/simple/2.png' width ='500' height = '500' style='border:5px solid black'>","40","mixed_complex_deviant","images/simple/3.png","images/simple/2.png","images/complex/10.png,images/complex/14.png,images/complex/5.png,images/complex/18.png,images/complex/8.png,images/complex/7.png,images/complex/11.png","0","null","","200","288.93000008538365","","","","background","",""
"","null","html-keyboard-response","106","140992","0.0-14.0-0.46","SS1604515119749","","null","","","","","","","","","","","","<img src=images/blank.png width =""500"" height = ""500"" style=""border:5px solid black"">","","",""
"","196.0800001397729","stimulus-presentation","107","141392","0.0-14.0-1.46","SS1604515119749","<img src='images/simple/2.png' width ='500' height = '500' style='border:5px solid black'>","40","mixed_complex_deviant","images/simple/3.png","images/simple/2.png","images/complex/10.png,images/complex/14.png,images/complex/5.png,images/complex/18.png,images/complex/8.png,images/complex/7.png,images/complex/11.png","0","null","","200","396.0800001397729","","","","background","",""
"","null","html-keyboard-response","108","142655","0.0-14.0-0.47","SS1604515119749","","null","","","","","","","","","","","","<img src=images/blank.png width =""500"" height = ""500"" style=""border:5px solid black"">","","",""
"","837.3199999332428","stimulus-presentation","109","143696","0.0-14.0-1.47","SS1604515119749","<img src='images/simple/3.png' width ='500' height = '500' style='border:5px solid black'>","40","mixed_complex_deviant","images/simple/3.png","images/simple/2.png","images/complex/10.png,images/complex/14.png,images/complex/5.png,images/complex/18.png,images/complex/8.png,images/complex/7.png,images/complex/11.png","0","null","","200","1037.3199999332428","yes","269.1900001373142","","target","",""
"","null","html-keyboard-response","110","144848","0.0-14.0-0.48","SS1604515119749","","null","","","","","","","","","","","","<img src=images/blank.png width =""500"" height = ""500"" style=""border:5px solid black"">","","",""
"","244.7999999858439","stimulus-presentation","111","145296","0.0-14.0-1.48","SS1604515119749","<img src='images/simple/2.png' width ='500' height = '500' style='border:5px solid black'>","40","mixed_complex_deviant","images/simple/3.png","images/simple/2.png","images/complex/10.png,images/complex/14.png,images/complex/5.png,images/complex/18.png,images/complex/8.png,images/complex/7.png,images/complex/11.png","0","null","","200","444.7999999858439","","","","background","",""
"[{""page_index"":0,""viewing_time"":37733}]","37733","task-instructions","112","183032","0.0-15.0","SS1604515119749","","","","","","","","","","","","","","","","",""
"[{""page_index"":0,""viewing_time"":1262.7350001130253},{""page_index"":1,""viewing_time"":2830.5299999192357},{""page_index"":2,""viewing_time"":1679.7499998938292}]","5773.340000072494","instructions","113","188808","0.0-16.0","SS1604515119749","","","","","","","","","","","","","","","","",""
"","null","html-keyboard-response","114","189920","0.0-17.0-0.0","SS1604515119749","","null","","","","","","","","","","","","<img src=images/blank.png width =""500"" height = ""500"" style=""border:5px solid black"">","","",""
"","972.8749999776483","stimulus-presentation","115","191096","0.0-17.0-1.0","SS1604515119749","<img src='images/complex/6.png' width ='500' height = '500' style='border:5px solid black'>","40","all_complex","images/complex/16.png","images/complex/13.png","images/complex/9.png,images/complex/3.png,images/complex/4.png,images/complex/1.png,images/complex/6.png,images/complex/12.png,images/complex/2.png","1","null","","200","1172.8749999776483","","","","deviant","",""
"","null","html-keyboard-response","116","192046","0.0-17.0-0.1","SS1604515119749","","null","","","","","","","","","","","","<img src=images/blank.png width =""500"" height = ""500"" style=""border:5px solid black"">","","",""
"","406.2850000336766","stimulus-presentation","117","192657","0.0-17.0-1.1","SS1604515119749","<img src='images/complex/13.png' width ='500' height = '500' style='border:5px solid black'>","40","all_complex","images/complex/16.png","images/complex/13.png","images/complex/9.png,images/complex/3.png,images/complex/4.png,images/complex/1.png,images/complex/6.png,images/complex/12.png,images/complex/2.png","1","null","","200","606.2850000336766","","","","background","",""
"","null","html-keyboard-response","118","193764","0.0-17.0-0.2","SS1604515119749","","null","","","","","","","","","","","","<img src=images/blank.png width =""500"" height = ""500"" style=""border:5px solid black"">","","",""
"","514.0899999532849","stimulus-presentation","119","194481","0.0-17.0-1.2","SS1604515119749","<img src='images/complex/13.png' width ='500' height = '500' style='border:5px solid black'>","40","all_complex","images/complex/16.png","images/complex/13.png","images/complex/9.png,images/complex/3.png,images/complex/4.png,images/complex/1.png,images/complex/6.png,images/complex/12.png,images/complex/2.png","1","null","","200","714.0899999532849","","","","background","",""
"","null","html-keyboard-response","120","195426","0.0-17.0-0.3","SS1604515119749","","null","","","","","","","","","","","","<img src=images/blank.png width =""500"" height = ""500"" style=""border:5px solid black"">","","",""
"","427.6449999306351","stimulus-presentation","121","196057","0.0-17.0-1.3","SS1604515119749","<img src='images/complex/13.png' width ='500' height = '500' style='border:5px solid black'>","40","all_complex","images/complex/16.png","images/complex/13.png","images/complex/9.png,images/complex/3.png,images/complex/4.png,images/complex/1.png,images/complex/6.png,images/complex/12.png,images/complex/2.png","1","null","","200","627.6449999306351","","","","background","",""
"","null","html-keyboard-response","122","197009","0.0-17.0-0.4","SS1604515119749","","null","","","","","","","","","","","","<img src=images/blank.png width =""500"" height = ""500"" style=""border:5px solid black"">","","",""
"","122.90499988012016","stimulus-presentation","123","197336","0.0-17.0-1.4","SS1604515119749","<img src='images/complex/13.png' width ='500' height = '500' style='border:5px solid black'>","40","all_complex","images/complex/16.png","images/complex/13.png","images/complex/9.png,images/complex/3.png,images/complex/4.png,images/complex/1.png,images/complex/6.png,images/complex/12.png,images/complex/2.png","1","null","","200","322.90499988012016","","","","background","",""
"","null","html-keyboard-response","124","198361","0.0-17.0-0.5","SS1604515119749","","null","","","","","","","","","","","","<img src=images/blank.png width =""500"" height = ""500"" style=""border:5px solid black"">","","",""
"","115.81500014290214","stimulus-presentation","125","198680","0.0-17.0-1.5","SS1604515119749","<img src='images/complex/13.png' width ='500' height = '500' style='border:5px solid black'>","40","all_complex","images/complex/16.png","images/complex/13.png","images/complex/9.png,images/complex/3.png,images/complex/4.png,images/complex/1.png,images/complex/6.png,images/complex/12.png,images/complex/2.png","1","null","","200","315.81500014290214","","","","background","",""
"","null","html-keyboard-response","126","199804","0.0-17.0-0.6","SS1604515119749","","null","","","","","","","","","","","","<img src=images/blank.png width =""500"" height = ""500"" style=""border:5px solid black"">","","",""
"","113.02000004798174","stimulus-presentation","127","200120","0.0-17.0-1.6","SS1604515119749","<img src='images/complex/13.png' width ='500' height = '500' style='border:5px solid black'>","40","all_complex","images/complex/16.png","images/complex/13.png","images/complex/9.png,images/complex/3.png,images/complex/4.png,images/complex/1.png,images/complex/6.png,images/complex/12.png,images/complex/2.png","1","null","","200","313.02000004798174","","","","background","",""
"","null","html-keyboard-response","128","201367","0.0-17.0-0.7","SS1604515119749","","null","","","","","","","","","","","","<img src=images/blank.png width =""500"" height = ""500"" style=""border:5px solid black"">","","",""
"","292.9400000721216","stimulus-presentation","129","201864","0.0-17.0-1.7","SS1604515119749","<img src='images/complex/16.png' width ='500' height = '500' style='border:5px solid black'>","40","all_complex","images/complex/16.png","images/complex/13.png","images/complex/9.png,images/complex/3.png,images/complex/4.png,images/complex/1.png,images/complex/6.png,images/complex/12.png,images/complex/2.png","1","null","","200","492.9400000721216","","","","target","",""
"","null","html-keyboard-response","130","203043","0.0-17.0-0.8","SS1604515119749","","null","","","","","","","","","","","","<img src=images/blank.png width =""500"" height = ""500"" style=""border:5px solid black"">","","",""
"","336.42999990843236","stimulus-presentation","131","203584","0.0-17.0-1.8","SS1604515119749","<img src='images/complex/13.png' width ='500' height = '500' style='border:5px solid black'>","40","all_complex","images/complex/16.png","images/complex/13.png","images/complex/9.png,images/complex/3.png,images/complex/4.png,images/complex/1.png,images/complex/6.png,images/complex/12.png,images/complex/2.png","1","null","","200","536.4299999084324","","","","background","",""
"","null","html-keyboard-response","132","204449","0.0-17.0-0.9","SS1604515119749","","null","","","","","","","","","","","","<img src=images/blank.png width =""500"" height = ""500"" style=""border:5px solid black"">","","",""
"","235.31499993987381","stimulus-presentation","133","204888","0.0-17.0-1.9","SS1604515119749","<img src='images/complex/13.png' width ='500' height = '500' style='border:5px solid black'>","40","all_complex","images/complex/16.png","images/complex/13.png","images/complex/9.png,images/complex/3.png,images/complex/4.png,images/complex/1.png,images/complex/6.png,images/complex/12.png,images/complex/2.png","1","null","","200","435.3149999398738","","","","background","",""
"","null","html-keyboard-response","134","205916","0.0-17.0-0.10","SS1604515119749","","null","","","","","","","","","","","","<img src=images/blank.png width =""500"" height = ""500"" style=""border:5px solid black"">","","",""
"","174.80999999679625","stimulus-presentation","135","206297","0.0-17.0-1.10","SS1604515119749","<img src='images/complex/13.png' width ='500' height = '500' style='border:5px solid black'>","40","all_complex","images/complex/16.png","images/complex/13.png","images/complex/9.png,images/complex/3.png,images/complex/4.png,images/complex/1.png,images/complex/6.png,images/complex/12.png,images/complex/2.png","1","null","","200","374.80999999679625","","","","background","",""
"","null","html-keyboard-response","136","207264","0.0-17.0-0.11","SS1604515119749","","null","","","","","","","","","","","","<img src=images/blank.png width =""500"" height = ""500"" style=""border:5px solid black"">","","",""
"","156.27999999560416","stimulus-presentation","137","207624","0.0-17.0-1.11","SS1604515119749","<img src='images/complex/13.png' width ='500' height = '500' style='border:5px solid black'>","40","all_complex","images/complex/16.png","images/complex/13.png","images/complex/9.png,images/complex/3.png,images/complex/4.png,images/complex/1.png,images/complex/6.png,images/complex/12.png,images/complex/2.png","1","null","","200","356.27999999560416","","","","background","",""
"","null","html-keyboard-response","138","208837","0.0-17.0-0.12","SS1604515119749","","null","","","","","","","","","","","","<img src=images/blank.png width =""500"" height = ""500"" style=""border:5px solid black"">","","",""
"","159.04499986208975","stimulus-presentation","139","209200","0.0-17.0-1.12","SS1604515119749","<img src='images/complex/13.png' width ='500' height = '500' style='border:5px solid black'>","40","all_complex","images/complex/16.png","images/complex/13.png","images/complex/9.png,images/complex/3.png,images/complex/4.png,images/complex/1.png,images/complex/6.png,images/complex/12.png,images/complex/2.png","1","null","","200","359.04499986208975","","","","background","",""
"","null","html-keyboard-response","140","210077","0.0-17.0-0.13","SS1604515119749","","null","","","","","","","","","","","","<img src=images/blank.png width =""500"" height = ""500"" style=""border:5px solid black"">","","",""
"","511.03000016883016","stimulus-presentation","141","210792","0.0-17.0-1.13","SS1604515119749","<img src='images/complex/9.png' width ='500' height = '500' style='border:5px solid black'>","40","all_complex","images/complex/16.png","images/complex/13.png","images/complex/9.png,images/complex/3.png,images/complex/4.png,images/complex/1.png,images/complex/6.png,images/complex/12.png,images/complex/2.png","1","null","","200","711.0300001688302","","","","deviant","",""
"","null","html-keyboard-response","142","212012","0.0-17.0-0.14","SS1604515119749","","null","","","","","","","","","","","","<img src=images/blank.png width =""500"" height = ""500"" style=""border:5px solid black"">","","",""
"","271.6950001195073","stimulus-presentation","143","212488","0.0-17.0-1.14","SS1604515119749","<img src='images/complex/13.png' width ='500' height = '500' style='border:5px solid black'>","40","all_complex","images/complex/16.png","images/complex/13.png","images/complex/9.png,images/complex/3.png,images/complex/4.png,images/complex/1.png,images/complex/6.png,images/complex/12.png,images/complex/2.png","1","null","","200","471.6950001195073","","","","background","",""
"","null","html-keyboard-response","144","213303","0.0-17.0-0.15","SS1604515119749","","null","","","","","","","","","","","","<img src=images/blank.png width =""500"" height = ""500"" style=""border:5px solid black"">","","",""
"","173.29499986954033","stimulus-presentation","145","213680","0.0-17.0-1.15","SS1604515119749","<img src='images/complex/13.png' width ='500' height = '500' style='border:5px solid black'>","40","all_complex","images/complex/16.png","images/complex/13.png","images/complex/9.png,images/complex/3.png,images/complex/4.png,images/complex/1.png,images/complex/6.png,images/complex/12.png,images/complex/2.png","1","null","","200","373.29499986954033","","","","background","",""
"","null","html-keyboard-response","146","214597","0.0-17.0-0.16","SS1604515119749","","null","","","","","","","","","","","","<img src=images/blank.png width =""500"" height = ""500"" style=""border:5px solid black"">","","",""
"","111.4000000525266","stimulus-presentation","147","214913","0.0-17.0-1.16","SS1604515119749","<img src='images/complex/13.png' width ='500' height = '500' style='border:5px solid black'>","40","all_complex","images/complex/16.png","images/complex/13.png","images/complex/9.png,images/complex/3.png,images/complex/4.png,images/complex/1.png,images/complex/6.png,images/complex/12.png,images/complex/2.png","1","null","","200","311.4000000525266","","","","background","",""
"","null","html-keyboard-response","148","215905","0.0-17.0-0.17","SS1604515119749","","null","","","","","","","","","","","","<img src=images/blank.png width =""500"" height = ""500"" style=""border:5px solid black"">","","",""
"","395.4999998677522","stimulus-presentation","149","216504","0.0-17.0-1.17","SS1604515119749","<img src='images/complex/1.png' width ='500' height = '500' style='border:5px solid black'>","40","all_complex","images/complex/16.png","images/complex/13.png","images/complex/9.png,images/complex/3.png,images/complex/4.png,images/complex/1.png,images/complex/6.png,images/complex/12.png,images/complex/2.png","1","null","","200","595.4999998677522","","","","deviant","",""
"","null","html-keyboard-response","150","217715","0.0-17.0-0.18","SS1604515119749","","null","","","","","","","","","","","","<img src=images/blank.png width =""500"" height = ""500"" style=""border:5px solid black"">","","",""
"","1009.5150000415742","stimulus-presentation","151","218928","0.0-17.0-1.18","SS1604515119749","<img src='images/complex/16.png' width ='500' height = '500' style='border:5px solid black'>","40","all_complex","images/complex/16.png","images/complex/13.png","images/complex/9.png,images/complex/3.png,images/complex/4.png,images/complex/1.png,images/complex/6.png,images/complex/12.png,images/complex/2.png","1","null","","200","1209.5150000415742","yes","321.4849999640137","","target","",""
"","null","html-keyboard-response","152","220109","0.0-17.0-0.19","SS1604515119749","","null","","","","","","","","","","","","<img src=images/blank.png width =""500"" height = ""500"" style=""border:5px solid black"">","","",""
"","278.6799999885261","stimulus-presentation","153","220592","0.0-17.0-1.19","SS1604515119749","<img src='images/complex/13.png' width ='500' height = '500' style='border:5px solid black'>","40","all_complex","images/complex/16.png","images/complex/13.png","images/complex/9.png,images/complex/3.png,images/complex/4.png,images/complex/1.png,images/complex/6.png,images/complex/12.png,images/complex/2.png","1","null","","200","478.6799999885261","","","","background","",""
"","null","html-keyboard-response","154","221641","0.0-17.0-0.20","SS1604515119749","","null","","","","","","","","","","","","<img src=images/blank.png width =""500"" height = ""500"" style=""border:5px solid black"">","","",""
"","177.3349998984486","stimulus-presentation","155","222024","0.0-17.0-1.20","SS1604515119749","<img src='images/complex/3.png' width ='500' height = '500' style='border:5px solid black'>","40","all_complex","images/complex/16.png","images/complex/13.png","images/complex/9.png,images/complex/3.png,images/complex/4.png,images/complex/1.png,images/complex/6.png,images/complex/12.png,images/complex/2.png","1","null","","200","377.3349998984486","","","","deviant","",""
"","null","html-keyboard-response","156","222848","0.0-17.0-0.21","SS1604515119749","","null","","","","","","","","","","","","<img src=images/blank.png width =""500"" height = ""500"" style=""border:5px solid black"">","","",""
"","972.499999916181","stimulus-presentation","157","224024","0.0-17.0-1.21","SS1604515119749","<img src='images/complex/16.png' width ='500' height = '500' style='border:5px solid black'>","40","all_complex","images/complex/16.png","images/complex/13.png","images/complex/9.png,images/complex/3.png,images/complex/4.png,images/complex/1.png,images/complex/6.png,images/complex/12.png,images/complex/2.png","1","null","","200","1172.499999916181","yes","316.5299999527633","","target","",""
"","null","html-keyboard-response","158","225118","0.0-17.0-0.22","SS1604515119749","","null","","","","","","","","","","","","<img src=images/blank.png width =""500"" height = ""500"" style=""border:5px solid black"">","","",""
"","261.7750000208616","stimulus-presentation","159","225585","0.0-17.0-1.22","SS1604515119749","<img src='images/complex/13.png' width ='500' height = '500' style='border:5px solid black'>","40","all_complex","images/complex/16.png","images/complex/13.png","images/complex/9.png,images/complex/3.png,images/complex/4.png,images/complex/1.png,images/complex/6.png,images/complex/12.png,images/complex/2.png","1","null","","200","461.7750000208616","","","","background","",""
"","null","html-keyboard-response","160","226574","0.0-17.0-0.23","SS1604515119749","","null","","","","","","","","","","","","<img src=images/blank.png width =""500"" height = ""500"" style=""border:5px solid black"">","","",""
"","229.65500014834106","stimulus-presentation","161","227008","0.0-17.0-1.23","SS1604515119749","<img src='images/complex/13.png' width ='500' height = '500' style='border:5px solid black'>","40","all_complex","images/complex/16.png","images/complex/13.png","images/complex/9.png,images/complex/3.png,images/complex/4.png,images/complex/1.png,images/complex/6.png,images/complex/12.png,images/complex/2.png","1","null","","200","429.65500014834106","","","","background","",""
"","null","html-keyboard-response","162","227998","0.0-17.0-0.24","SS1604515119749","","null","","","","","","","","","","","","<img src=images/blank.png width =""500"" height = ""500"" style=""border:5px solid black"">","","",""
"","125.60499995015562","stimulus-presentation","163","228328","0.0-17.0-1.24","SS1604515119749","<img src='images/complex/13.png' width ='500' height = '500' style='border:5px solid black'>","40","all_complex","images/complex/16.png","images/complex/13.png","images/complex/9.png,images/complex/3.png,images/complex/4.png,images/complex/1.png,images/complex/6.png,images/complex/12.png,images/complex/2.png","1","null","","200","325.6049999501556","","","","background","",""
"","null","html-keyboard-response","164","229375","0.0-17.0-0.25","SS1604515119749","","null","","","","","","","","","","","","<img src=images/blank.png width =""500"" height = ""500"" style=""border:5px solid black"">","","",""
"","149.049999890849","stimulus-presentation","165","229728","0.0-17.0-1.25","SS1604515119749","<img src='images/complex/13.png' width ='500' height = '500' style='border:5px solid black'>","40","all_complex","images/complex/16.png","images/complex/13.png","images/complex/9.png,images/complex/3.png,images/complex/4.png,images/complex/1.png,images/complex/6.png,images/complex/12.png,images/complex/2.png","1","null","","200","349.049999890849","","","","background","",""
"","null","html-keyboard-response","166","230616","0.0-17.0-0.26","SS1604515119749","","null","","","","","","","","","","","","<img src=images/blank.png width =""500"" height = ""500"" style=""border:5px solid black"">","","",""
"","332.179999910295","stimulus-presentation","167","231152","0.0-17.0-1.26","SS1604515119749","<img src='images/complex/4.png' width ='500' height = '500' style='border:5px solid black'>","40","all_complex","images/complex/16.png","images/complex/13.png","images/complex/9.png,images/complex/3.png,images/complex/4.png,images/complex/1.png,images/complex/6.png,images/complex/12.png,images/complex/2.png","1","null","","200","532.179999910295","","","","deviant","",""
"","null","html-keyboard-response","168","232129","0.0-17.0-0.27","SS1604515119749","","null","","","","","","","","","","","","<img src=images/blank.png width =""500"" height = ""500"" style=""border:5px solid black"">","","",""
"","298.6099999397993","stimulus-presentation","169","232632","0.0-17.0-1.27","SS1604515119749","<img src='images/complex/13.png' width ='500' height = '500' style='border:5px solid black'>","40","all_complex","images/complex/16.png","images/complex/13.png","images/complex/9.png,images/complex/3.png,images/complex/4.png,images/complex/1.png,images/complex/6.png,images/complex/12.png,images/complex/2.png","1","null","","200","498.6099999397993","","","","background","",""
"","null","html-keyboard-response","170","233585","0.0-17.0-0.28","SS1604515119749","","null","","","","","","","","","","","","<img src=images/blank.png width =""500"" height = ""500"" style=""border:5px solid black"">","","",""
"","169.5399999152869","stimulus-presentation","171","233960","0.0-17.0-1.28","SS1604515119749","<img src='images/complex/13.png' width ='500' height = '500' style='border:5px solid black'>","40","all_complex","images/complex/16.png","images/complex/13.png","images/complex/9.png,images/complex/3.png,images/complex/4.png,images/complex/1.png,images/complex/6.png,images/complex/12.png,images/complex/2.png","1","null","","200","369.5399999152869","","","","background","",""
"","null","html-keyboard-response","172","235074","0.0-17.0-0.29","SS1604515119749","","null","","","","","","","","","","","","<img src=images/blank.png width =""500"" height = ""500"" style=""border:5px solid black"">","","",""
"","130.39999990724027","stimulus-presentation","173","235408","0.0-17.0-1.29","SS1604515119749","<img src='images/complex/13.png' width ='500' height = '500' style='border:5px solid black'>","40","all_complex","images/complex/16.png","images/complex/13.png","images/complex/9.png,images/complex/3.png,images/complex/4.png,images/complex/1.png,images/complex/6.png,images/complex/12.png,images/complex/2.png","1","null","","200","330.39999990724027","","","","background","",""
"","null","html-keyboard-response","174","236515","0.0-17.0-0.30","SS1604515119749","","null","","","","","","","","","","","","<img src=images/blank.png width =""500"" height = ""500"" style=""border:5px solid black"">","","",""
"","137.95000012032688","stimulus-presentation","175","236856","0.0-17.0-1.30","SS1604515119749","<img src='images/complex/13.png' width ='500' height = '500' style='border:5px solid black'>","40","all_complex","images/complex/16.png","images/complex/13.png","images/complex/9.png,images/complex/3.png,images/complex/4.png,images/complex/1.png,images/complex/6.png,images/complex/12.png,images/complex/2.png","1","null","","200","337.9500001203269","","","","background","",""
"","null","html-keyboard-response","176","237683","0.0-17.0-0.31","SS1604515119749","","null","","","","","","","","","","","","<img src=images/blank.png width =""500"" height = ""500"" style=""border:5px solid black"">","","",""
"","184.65499999001622","stimulus-presentation","177","238072","0.0-17.0-1.31","SS1604515119749","<img src='images/complex/13.png' width ='500' height = '500' style='border:5px solid black'>","40","all_complex","images/complex/16.png","images/complex/13.png","images/complex/9.png,images/complex/3.png,images/complex/4.png,images/complex/1.png,images/complex/6.png,images/complex/12.png,images/complex/2.png","1","null","","200","384.6549999900162","","","","background","",""
"","null","html-keyboard-response","178","239312","0.0-17.0-0.32","SS1604515119749","","null","","","","","","","","","","","","<img src=images/blank.png width =""500"" height = ""500"" style=""border:5px solid black"">","","",""
"","1171.7649998608977","stimulus-presentation","179","240688","0.0-17.0-1.32","SS1604515119749","<img src='images/complex/16.png' width ='500' height = '500' style='border:5px solid black'>","40","all_complex","images/complex/16.png","images/complex/13.png","images/complex/9.png,images/complex/3.png,images/complex/4.png,images/complex/1.png,images/complex/6.png,images/complex/12.png,images/complex/2.png","1","null","","200","1371.7649998608977","yes","380.65499998629093","","target","",""
"","null","html-keyboard-response","180","241967","0.0-17.0-0.33","SS1604515119749","","null","","","","","","","","","","","","<img src=images/blank.png width =""500"" height = ""500"" style=""border:5px solid black"">","","",""
"","1035.48499988392","stimulus-presentation","181","243207","0.0-17.0-1.33","SS1604515119749","<img src='images/complex/16.png' width ='500' height = '500' style='border:5px solid black'>","40","all_complex","images/complex/16.png","images/complex/13.png","images/complex/9.png,images/complex/3.png,images/complex/4.png,images/complex/1.png,images/complex/6.png,images/complex/12.png,images/complex/2.png","1","null","","200","1235.48499988392","yes","324.33500001206994","","target","",""
"","null","html-keyboard-response","182","244155","0.0-17.0-0.34","SS1604515119749","","null","","","","","","","","","","","","<img src=images/blank.png width =""500"" height = ""500"" style=""border:5px solid black"">","","",""
"","664.735000114888","stimulus-presentation","183","245024","0.0-17.0-1.34","SS1604515119749","<img src='images/complex/2.png' width ='500' height = '500' style='border:5px solid black'>","40","all_complex","images/complex/16.png","images/complex/13.png","images/complex/9.png,images/complex/3.png,images/complex/4.png,images/complex/1.png,images/complex/6.png,images/complex/12.png,images/complex/2.png","1","null","","200","864.735000114888","","","","deviant","",""
"","null","html-keyboard-response","184","245934","0.0-17.0-0.35","SS1604515119749","","null","","","","","","","","","","","","<img src=images/blank.png width =""500"" height = ""500"" style=""border:5px solid black"">","","",""
"","292.08499984815717","stimulus-presentation","185","246431","0.0-17.0-1.35","SS1604515119749","<img src='images/complex/13.png' width ='500' height = '500' style='border:5px solid black'>","40","all_complex","images/complex/16.png","images/complex/13.png","images/complex/9.png,images/complex/3.png,images/complex/4.png,images/complex/1.png,images/complex/6.png,images/complex/12.png,images/complex/2.png","1","null","","200","492.08499984815717","","","","background","",""
"","null","html-keyboard-response","186","247624","0.0-17.0-0.36","SS1604515119749","","null","","","","","","","","","","","","<img src=images/blank.png width =""500"" height = ""500"" style=""border:5px solid black"">","","",""
"","131.49500009603798","stimulus-presentation","187","247960","0.0-17.0-1.36","SS1604515119749","<img src='images/complex/13.png' width ='500' height = '500' style='border:5px solid black'>","40","all_complex","images/complex/16.png","images/complex/13.png","images/complex/9.png,images/complex/3.png,images/complex/4.png,images/complex/1.png,images/complex/6.png,images/complex/12.png,images/complex/2.png","1","null","","200","331.495000096038","","","","background","",""
"","null","html-keyboard-response","188","249196","0.0-17.0-0.37","SS1604515119749","","null","","","","","","","","","","","","<img src=images/blank.png width =""500"" height = ""500"" style=""border:5px solid black"">","","",""
"","103.1000001821667","stimulus-presentation","189","249503","0.0-17.0-1.37","SS1604515119749","<img src='images/complex/13.png' width ='500' height = '500' style='border:5px solid black'>","40","all_complex","images/complex/16.png","images/complex/13.png","images/complex/9.png,images/complex/3.png,images/complex/4.png,images/complex/1.png,images/complex/6.png,images/complex/12.png,images/complex/2.png","1","null","","200","303.1000001821667","","","","background","",""
"","null","html-keyboard-response","190","250382","0.0-17.0-0.38","SS1604515119749","","null","","","","","","","","","","","","<img src=images/blank.png width =""500"" height = ""500"" style=""border:5px solid black"">","","",""
"","164.9449998512864","stimulus-presentation","191","250751","0.0-17.0-1.38","SS1604515119749","<img src='images/complex/13.png' width ='500' height = '500' style='border:5px solid black'>","40","all_complex","images/complex/16.png","images/complex/13.png","images/complex/9.png,images/complex/3.png,images/complex/4.png,images/complex/1.png,images/complex/6.png,images/complex/12.png,images/complex/2.png","1","null","","200","364.9449998512864","","","","background","",""
"","null","html-keyboard-response","192","251874","0.0-17.0-0.39","SS1604515119749","","null","","","","","","","","","","","","<img src=images/blank.png width =""500"" height = ""500"" style=""border:5px solid black"">","","",""
"","97.32999978587031","stimulus-presentation","193","252176","0.0-17.0-1.39","SS1604515119749","<img src='images/complex/13.png' width ='500' height = '500' style='border:5px solid black'>","40","all_complex","images/complex/16.png","images/complex/13.png","images/complex/9.png,images/complex/3.png,images/complex/4.png,images/complex/1.png,images/complex/6.png,images/complex/12.png,images/complex/2.png","1","null","","200","297.3299997858703","","","","background","",""
"","null","html-keyboard-response","194","253445","0.0-17.0-0.40","SS1604515119749","","null","","","","","","","","","","","","<img src=images/blank.png width =""500"" height = ""500"" style=""border:5px solid black"">","","",""
"","973.9800000097603","stimulus-presentation","195","254623","0.0-17.0-1.40","SS1604515119749","<img src='images/complex/16.png' width ='500' height = '500' style='border:5px solid black'>","40","all_complex","images/complex/16.png","images/complex/13.png","images/complex/9.png,images/complex/3.png,images/complex/4.png,images/complex/1.png,images/complex/6.png,images/complex/12.png,images/complex/2.png","1","null","","200","1173.9800000097603","yes","278.1599999871105","","target","",""
"","null","html-keyboard-response","196","255528","0.0-17.0-0.41","SS1604515119749","","null","","","","","","","","","","","","<img src=images/blank.png width =""500"" height = ""500"" style=""border:5px solid black"">","","",""
"","170.83499999716878","stimulus-presentation","197","255903","0.0-17.0-1.41","SS1604515119749","<img src='images/complex/13.png' width ='500' height = '500' style='border:5px solid black'>","40","all_complex","images/complex/16.png","images/complex/13.png","images/complex/9.png,images/complex/3.png,images/complex/4.png,images/complex/1.png,images/complex/6.png,images/complex/12.png,images/complex/2.png","1","null","","200","370.8349999971688","","","","background","",""
"","null","html-keyboard-response","198","257022","0.0-17.0-0.42","SS1604515119749","","null","","","","","","","","","","","","<img src=images/blank.png width =""500"" height = ""500"" style=""border:5px solid black"">","","",""
"","115.83500006236136","stimulus-presentation","199","257344","0.0-17.0-1.42","SS1604515119749","<img src='images/complex/13.png' width ='500' height = '500' style='border:5px solid black'>","40","all_complex","images/complex/16.png","images/complex/13.png","images/complex/9.png,images/complex/3.png,images/complex/4.png,images/complex/1.png,images/complex/6.png,images/complex/12.png,images/complex/2.png","1","null","","200","315.83500006236136","","","","background","",""
"","null","html-keyboard-response","200","258461","0.0-17.0-0.43","SS1604515119749","","null","","","","","","","","","","","","<img src=images/blank.png width =""500"" height = ""500"" style=""border:5px solid black"">","","",""
"","134.62500018067658","stimulus-presentation","201","258800","0.0-17.0-1.43","SS1604515119749","<img src='images/complex/13.png' width ='500' height = '500' style='border:5px solid black'>","40","all_complex","images/complex/16.png","images/complex/13.png","images/complex/9.png,images/complex/3.png,images/complex/4.png,images/complex/1.png,images/complex/6.png,images/complex/12.png,images/complex/2.png","1","null","","200","334.6250001806766","","","","background","",""
"","null","html-keyboard-response","202","259744","0.0-17.0-0.44","SS1604515119749","","null","","","","","","","","","","","","<img src=images/blank.png width =""500"" height = ""500"" style=""border:5px solid black"">","","",""
"","178.97000000812113","stimulus-presentation","203","260128","0.0-17.0-1.44","SS1604515119749","<img src='images/complex/13.png' width ='500' height = '500' style='border:5px solid black'>","40","all_complex","images/complex/16.png","images/complex/13.png","images/complex/9.png,images/complex/3.png,images/complex/4.png,images/complex/1.png,images/complex/6.png,images/complex/12.png,images/complex/2.png","1","null","","200","378.97000000812113","","","","background","",""
"","null","html-keyboard-response","204","261223","0.0-17.0-0.45","SS1604515119749","","null","","","","","","","","","","","","<img src=images/blank.png width =""500"" height = ""500"" style=""border:5px solid black"">","","",""
"","2067.4550000112504","stimulus-presentation","205","263495","0.0-17.0-1.45","SS1604515119749","<img src='images/complex/12.png' width ='500' height = '500' style='border:5px solid black'>","40","all_complex","images/complex/16.png","images/complex/13.png","images/complex/9.png,images/complex/3.png,images/complex/4.png,images/complex/1.png,images/complex/6.png,images/complex/12.png,images/complex/2.png","1","null","","200","2267.4550000112504","","","","deviant","",""
"","null","html-keyboard-response","206","264490","0.0-17.0-0.46","SS1604515119749","","null","","","","","","","","","","","","<img src=images/blank.png width =""500"" height = ""500"" style=""border:5px solid black"">","","",""
"","680.6050001177937","stimulus-presentation","207","265375","0.0-17.0-1.46","SS1604515119749","<img src='images/complex/13.png' width ='500' height = '500' style='border:5px solid black'>","40","all_complex","images/complex/16.png","images/complex/13.png","images/complex/9.png,images/complex/3.png,images/complex/4.png,images/complex/1.png,images/complex/6.png,images/complex/12.png,images/complex/2.png","1","null","","200","880.6050001177937","","","","background","",""
"","null","html-keyboard-response","208","266587","0.0-17.0-0.47","SS1604515119749","","null","","","","","","","","","","","","<img src=images/blank.png width =""500"" height = ""500"" style=""border:5px solid black"">","","",""
"","925.3050000406802","stimulus-presentation","209","267719","0.0-17.0-1.47","SS1604515119749","<img src='images/complex/16.png' width ='500' height = '500' style='border:5px solid black'>","40","all_complex","images/complex/16.png","images/complex/13.png","images/complex/9.png,images/complex/3.png,images/complex/4.png,images/complex/1.png,images/complex/6.png,images/complex/12.png,images/complex/2.png","1","null","","200","1125.3050000406802","yes","189.3900001887232","","target","",""
"","null","html-keyboard-response","210","269013","0.0-17.0-0.48","SS1604515119749","","null","","","","","","","","","","","","<img src=images/blank.png width =""500"" height = ""500"" style=""border:5px solid black"">","","",""
"","149.77500005625188","stimulus-presentation","211","269368","0.0-17.0-1.48","SS1604515119749","<img src='images/complex/13.png' width ='500' height = '500' style='border:5px solid black'>","40","all_complex","images/complex/16.png","images/complex/13.png","images/complex/9.png,images/complex/3.png,images/complex/4.png,images/complex/1.png,images/complex/6.png,images/complex/12.png,images/complex/2.png","1","null","","200","349.7750000562519","","","","background","",""
"[{""page_index"":0,""viewing_time"":16955}]","16956","task-instructions","212","286328","0.0-18.0","SS1604515119749","","","","","","","","","","","","","","","","",""
"[{""page_index"":0,""viewing_time"":1076.0800000280142},{""page_index"":1,""viewing_time"":2679.7200001310557},{""page_index"":2,""viewing_time"":903.7150000222027}]","4659.695000154898","instructions","213","290991","0.0-19.0","SS1604515119749","","","","","","","","","","","","","","","","",""
"","null","html-keyboard-response","214","292144","0.0-20.0-0.0","SS1604515119749","","null","","","","","","","","","","","","<img src=images/blank.png width =""500"" height = ""500"" style=""border:5px solid black"">","","",""
"","954.230000032112","stimulus-presentation","215","293303","0.0-20.0-1.0","SS1604515119749","<img src='images/complex/17.png' width ='500' height = '500' style='border:5px solid black'>","40","mixed_simple_deviant","images/complex/15.png","images/complex/17.png","images/simple/12.png,images/simple/5.png,images/simple/16.png,images/simple/8.png,images/simple/13.png,images/simple/7.png,images/simple/17.png","2","null","","200","1154.230000032112","","","","background","",""
"","null","html-keyboard-response","216","294176","0.0-20.0-0.1","SS1604515119749","","null","","","","","","","","","","","","<img src=images/blank.png width =""500"" height = ""500"" style=""border:5px solid black"">","","",""
"","969.7400000877678","stimulus-presentation","217","295352","0.0-20.0-1.1","SS1604515119749","<img src='images/complex/15.png' width ='500' height = '500' style='border:5px solid black'>","40","mixed_simple_deviant","images/complex/15.png","images/complex/17.png","images/simple/12.png,images/simple/5.png,images/simple/16.png,images/simple/8.png,images/simple/13.png,images/simple/7.png,images/simple/17.png","2","null","","200","1169.7400000877678","yes","377.5700000114739","","target","",""
"","null","html-keyboard-response","218","296563","0.0-20.0-0.2","SS1604515119749","","null","","","","","","","","","","","","<img src=images/blank.png width =""500"" height = ""500"" style=""border:5px solid black"">","","",""
"","678.2500001136214","stimulus-presentation","219","297448","0.0-20.0-1.2","SS1604515119749","<img src='images/simple/12.png' width ='500' height = '500' style='border:5px solid black'>","40","mixed_simple_deviant","images/complex/15.png","images/complex/17.png","images/simple/12.png,images/simple/5.png,images/simple/16.png,images/simple/8.png,images/simple/13.png,images/simple/7.png,images/simple/17.png","2","null","","200","878.2500001136214","","","","deviant","",""
"","null","html-keyboard-response","220","298689","0.0-20.0-0.3","SS1604515119749","","null","","","","","","","","","","","","<img src=images/blank.png width =""500"" height = ""500"" style=""border:5px solid black"">","","",""
"","288.76499994657934","stimulus-presentation","221","299183","0.0-20.0-1.3","SS1604515119749","<img src='images/complex/17.png' width ='500' height = '500' style='border:5px solid black'>","40","mixed_simple_deviant","images/complex/15.png","images/complex/17.png","images/simple/12.png,images/simple/5.png,images/simple/16.png,images/simple/8.png,images/simple/13.png,images/simple/7.png,images/simple/17.png","2","null","","200","488.76499994657934","","","","background","",""
"","null","html-keyboard-response","222","300054","0.0-20.0-0.4","SS1604515119749","","null","","","","","","","","","","","","<img src=images/blank.png width =""500"" height = ""500"" style=""border:5px solid black"">","","",""
"","284.9699999205768","stimulus-presentation","223","300544","0.0-20.0-1.4","SS1604515119749","<img src='images/complex/17.png' width ='500' height = '500' style='border:5px solid black'>","40","mixed_simple_deviant","images/complex/15.png","images/complex/17.png","images/simple/12.png,images/simple/5.png,images/simple/16.png,images/simple/8.png,images/simple/13.png,images/simple/7.png,images/simple/17.png","2","null","","200","484.9699999205768","","","","background","",""
"","null","html-keyboard-response","224","301380","0.0-20.0-0.5","SS1604515119749","","null","","","","","","","","","","","","<img src=images/blank.png width =""500"" height = ""500"" style=""border:5px solid black"">","","",""
"","192.2899999190122","stimulus-presentation","225","301776","0.0-20.0-1.5","SS1604515119749","<img src='images/complex/17.png' width ='500' height = '500' style='border:5px solid black'>","40","mixed_simple_deviant","images/complex/15.png","images/complex/17.png","images/simple/12.png,images/simple/5.png,images/simple/16.png,images/simple/8.png,images/simple/13.png,images/simple/7.png,images/simple/17.png","2","null","","200","392.2899999190122","","","","background","",""
"","null","html-keyboard-response","226","302735","0.0-20.0-0.6","SS1604515119749","","null","","","","","","","","","","","","<img src=images/blank.png width =""500"" height = ""500"" style=""border:5px solid black"">","","",""
"","948.7250000238419","stimulus-presentation","227","303888","0.0-20.0-1.6","SS1604515119749","<img src='images/complex/15.png' width ='500' height = '500' style='border:5px solid black'>","40","mixed_simple_deviant","images/complex/15.png","images/complex/17.png","images/simple/12.png,images/simple/5.png,images/simple/16.png,images/simple/8.png,images/simple/13.png,images/simple/7.png,images/simple/17.png","2","null","","200","1148.7250000238419","yes","316.7399999219924","","target","",""
"","null","html-keyboard-response","228","304761","0.0-20.0-0.7","SS1604515119749","","null","","","","","","","","","","","","<img src=images/blank.png width =""500"" height = ""500"" style=""border:5px solid black"">","","",""
"","169.68499985523522","stimulus-presentation","229","305137","0.0-20.0-1.7","SS1604515119749","<img src='images/complex/17.png' width ='500' height = '500' style='border:5px solid black'>","40","mixed_simple_deviant","images/complex/15.png","images/complex/17.png","images/simple/12.png,images/simple/5.png,images/simple/16.png,images/simple/8.png,images/simple/13.png,images/simple/7.png,images/simple/17.png","2","null","","200","369.6849998552352","","","","background","",""
"","null","html-keyboard-response","230","306212","0.0-20.0-0.8","SS1604515119749","","null","","","","","","","","","","","","<img src=images/blank.png width =""500"" height = ""500"" style=""border:5px solid black"">","","",""
"","191.31999998353422","stimulus-presentation","231","306608","0.0-20.0-1.8","SS1604515119749","<img src='images/complex/17.png' width ='500' height = '500' style='border:5px solid black'>","40","mixed_simple_deviant","images/complex/15.png","images/complex/17.png","images/simple/12.png,images/simple/5.png,images/simple/16.png,images/simple/8.png,images/simple/13.png,images/simple/7.png,images/simple/17.png","2","null","","200","391.3199999835342","","","","background","",""
"","null","html-keyboard-response","232","307599","0.0-20.0-0.9","SS1604515119749","","null","","","","","","","","","","","","<img src=images/blank.png width =""500"" height = ""500"" style=""border:5px solid black"">","","",""
"","964.51500011608","stimulus-presentation","233","308768","0.0-20.0-1.9","SS1604515119749","<img src='images/complex/15.png' width ='500' height = '500' style='border:5px solid black'>","40","mixed_simple_deviant","images/complex/15.png","images/complex/17.png","images/simple/12.png,images/simple/5.png,images/simple/16.png,images/simple/8.png,images/simple/13.png,images/simple/7.png,images/simple/17.png","2","null","","200","1164.51500011608","yes","316.79000006988645","","target","",""
"","null","html-keyboard-response","234","309619","0.0-20.0-0.10","SS1604515119749","","null","","","","","","","","","","","","<img src=images/blank.png width =""500"" height = ""500"" style=""border:5px solid black"">","","",""
"","144.49999993667006","stimulus-presentation","235","309968","0.0-20.0-1.10","SS1604515119749","<img src='images/complex/17.png' width ='500' height = '500' style='border:5px solid black'>","40","mixed_simple_deviant","images/complex/15.png","images/complex/17.png","images/simple/12.png,images/simple/5.png,images/simple/16.png,images/simple/8.png,images/simple/13.png,images/simple/7.png,images/simple/17.png","2","null","","200","344.49999993667006","","","","background","",""
"","null","html-keyboard-response","236","311134","0.0-20.0-0.11","SS1604515119749","","null","","","","","","","","","","","","<img src=images/blank.png width =""500"" height = ""500"" style=""border:5px solid black"">","","",""
"","134.1099999845028","stimulus-presentation","237","311473","0.0-20.0-1.11","SS1604515119749","<img src='images/complex/17.png' width ='500' height = '500' style='border:5px solid black'>","40","mixed_simple_deviant","images/complex/15.png","images/complex/17.png","images/simple/12.png,images/simple/5.png,images/simple/16.png,images/simple/8.png,images/simple/13.png,images/simple/7.png,images/simple/17.png","2","null","","200","334.1099999845028","","","","background","",""
"","null","html-keyboard-response","238","312643","0.0-20.0-0.12","SS1604515119749","","null","","","","","","","","","","","","<img src=images/blank.png width =""500"" height = ""500"" style=""border:5px solid black"">","","",""
"","152.87000010721385","stimulus-presentation","239","313000","0.0-20.0-1.12","SS1604515119749","<img src='images/complex/17.png' width ='500' height = '500' style='border:5px solid black'>","40","mixed_simple_deviant","images/complex/15.png","images/complex/17.png","images/simple/12.png,images/simple/5.png,images/simple/16.png,images/simple/8.png,images/simple/13.png,images/simple/7.png,images/simple/17.png","2","null","","200","352.87000010721385","","","","background","",""
"","null","html-keyboard-response","240","313933","0.0-20.0-0.13","SS1604515119749","","null","","","","","","","","","","","","<img src=images/blank.png width =""500"" height = ""500"" style=""border:5px solid black"">","","",""
"","406.69500012882054","stimulus-presentation","241","314544","0.0-20.0-1.13","SS1604515119749","<img src='images/simple/7.png' width ='500' height = '500' style='border:5px solid black'>","40","mixed_simple_deviant","images/complex/15.png","images/complex/17.png","images/simple/12.png,images/simple/5.png,images/simple/16.png,images/simple/8.png,images/simple/13.png,images/simple/7.png,images/simple/17.png","2","null","","200","606.6950001288205","","","","deviant","",""
"","null","html-keyboard-response","242","315848","0.0-20.0-0.14","SS1604515119749","","null","","","","","","","","","","","","<img src=images/blank.png width =""500"" height = ""500"" style=""border:5px solid black"">","","",""
"","171.4300001040101","stimulus-presentation","243","316224","0.0-20.0-1.14","SS1604515119749","<img src='images/complex/17.png' width ='500' height = '500' style='border:5px solid black'>","40","mixed_simple_deviant","images/complex/15.png","images/complex/17.png","images/simple/12.png,images/simple/5.png,images/simple/16.png,images/simple/8.png,images/simple/13.png,images/simple/7.png,images/simple/17.png","2","null","","200","371.4300001040101","","","","background","",""
"","null","html-keyboard-response","244","317202","0.0-20.0-0.15","SS1604515119749","","null","","","","","","","","","","","","<img src=images/blank.png width =""500"" height = ""500"" style=""border:5px solid black"">","","",""
"","137.33499986119568","stimulus-presentation","245","317544","0.0-20.0-1.15","SS1604515119749","<img src='images/complex/17.png' width ='500' height = '500' style='border:5px solid black'>","40","mixed_simple_deviant","images/complex/15.png","images/complex/17.png","images/simple/12.png,images/simple/5.png,images/simple/16.png,images/simple/8.png,images/simple/13.png,images/simple/7.png,images/simple/17.png","2","null","","200","337.3349998611957","","","","background","",""
"","null","html-keyboard-response","246","318708","0.0-20.0-0.16","SS1604515119749","","null","","","","","","","","","","","","<img src=images/blank.png width =""500"" height = ""500"" style=""border:5px solid black"">","","",""
"","167.69999987445772","stimulus-presentation","247","319080","0.0-20.0-1.16","SS1604515119749","<img src='images/simple/17.png' width ='500' height = '500' style='border:5px solid black'>","40","mixed_simple_deviant","images/complex/15.png","images/complex/17.png","images/simple/12.png,images/simple/5.png,images/simple/16.png,images/simple/8.png,images/simple/13.png,images/simple/7.png,images/simple/17.png","2","null","","200","367.6999998744577","","","","deviant","",""
"","null","html-keyboard-response","248","320143","0.0-20.0-0.17","SS1604515119749","","null","","","","","","","","","","","","<img src=images/blank.png width =""500"" height = ""500"" style=""border:5px solid black"">","","",""
"","957.1350000333041","stimulus-presentation","249","321305","0.0-20.0-1.17","SS1604515119749","<img src='images/complex/15.png' width ='500' height = '500' style='border:5px solid black'>","40","mixed_simple_deviant","images/complex/15.png","images/complex/17.png","images/simple/12.png,images/simple/5.png,images/simple/16.png,images/simple/8.png,images/simple/13.png,images/simple/7.png,images/simple/17.png","2","null","","200","1157.135000033304","yes","324.93999996222556","","target","",""
"","null","html-keyboard-response","250","322607","0.0-20.0-0.18","SS1604515119749","","null","","","","","","","","","","","","<img src=images/blank.png width =""500"" height = ""500"" style=""border:5px solid black"">","","",""
"","172.55500005558133","stimulus-presentation","251","322985","0.0-20.0-1.18","SS1604515119749","<img src='images/complex/17.png' width ='500' height = '500' style='border:5px solid black'>","40","mixed_simple_deviant","images/complex/15.png","images/complex/17.png","images/simple/12.png,images/simple/5.png,images/simple/16.png,images/simple/8.png,images/simple/13.png,images/simple/7.png,images/simple/17.png","2","null","","200","372.55500005558133","","","","background","",""
"","null","html-keyboard-response","252","324253","0.0-20.0-0.19","SS1604515119749","","null","","","","","","","","","","","","<img src=images/blank.png width =""500"" height = ""500"" style=""border:5px solid black"">","","",""
"","135.3150000795722","stimulus-presentation","253","324593","0.0-20.0-1.19","SS1604515119749","<img src='images/complex/17.png' width ='500' height = '500' style='border:5px solid black'>","40","mixed_simple_deviant","images/complex/15.png","images/complex/17.png","images/simple/12.png,images/simple/5.png,images/simple/16.png,images/simple/8.png,images/simple/13.png,images/simple/7.png,images/simple/17.png","2","null","","200","335.3150000795722","","","","background","",""
"","null","html-keyboard-response","254","325734","0.0-20.0-0.20","SS1604515119749","","null","","","","","","","","","","","","<img src=images/blank.png width =""500"" height = ""500"" style=""border:5px solid black"">","","",""
"","165.4199999757111","stimulus-presentation","255","326104","0.0-20.0-1.20","SS1604515119749","<img src='images/complex/17.png' width ='500' height = '500' style='border:5px solid black'>","40","mixed_simple_deviant","images/complex/15.png","images/complex/17.png","images/simple/12.png,images/simple/5.png,images/simple/16.png,images/simple/8.png,images/simple/13.png,images/simple/7.png,images/simple/17.png","2","null","","200","365.4199999757111","","","","background","",""
"","null","html-keyboard-response","256","327201","0.0-20.0-0.21","SS1604515119749","","null","","","","","","","","","","","","<img src=images/blank.png width =""500"" height = ""500"" style=""border:5px solid black"">","","",""
"","161.54999984428287","stimulus-presentation","257","327568","0.0-20.0-1.21","SS1604515119749","<img src='images/complex/17.png' width ='500' height = '500' style='border:5px solid black'>","40","mixed_simple_deviant","images/complex/15.png","images/complex/17.png","images/simple/12.png,images/simple/5.png,images/simple/16.png,images/simple/8.png,images/simple/13.png,images/simple/7.png,images/simple/17.png","2","null","","200","361.54999984428287","","","","background","",""
"","null","html-keyboard-response","258","328374","0.0-20.0-0.22","SS1604515119749","","null","","","","","","","","","","","","<img src=images/blank.png width =""500"" height = ""500"" style=""border:5px solid black"">","","",""
"","165.8399999141693","stimulus-presentation","259","328744","0.0-20.0-1.22","SS1604515119749","<img src='images/complex/17.png' width ='500' height = '500' style='border:5px solid black'>","40","mixed_simple_deviant","images/complex/15.png","images/complex/17.png","images/simple/12.png,images/simple/5.png,images/simple/16.png,images/simple/8.png,images/simple/13.png,images/simple/7.png,images/simple/17.png","2","null","","200","365.8399999141693","","","","background","",""
"","null","html-keyboard-response","260","329575","0.0-20.0-0.23","SS1604515119749","","null","","","","","","","","","","","","<img src=images/blank.png width =""500"" height = ""500"" style=""border:5px solid black"">","","",""
"","412.9800000227988","stimulus-presentation","261","330193","0.0-20.0-1.23","SS1604515119749","<img src='images/simple/13.png' width ='500' height = '500' style='border:5px solid black'>","40","mixed_simple_deviant","images/complex/15.png","images/complex/17.png","images/simple/12.png,images/simple/5.png,images/simple/16.png,images/simple/8.png,images/simple/13.png,images/simple/7.png,images/simple/17.png","2","null","","200","612.9800000227988","","","","deviant","",""
"","null","html-keyboard-response","262","331053","0.0-20.0-0.24","SS1604515119749","","null","","","","","","","","","","","","<img src=images/blank.png width =""500"" height = ""500"" style=""border:5px solid black"">","","",""
"","982.7799999620765","stimulus-presentation","263","332240","0.0-20.0-1.24","SS1604515119749","<img src='images/complex/15.png' width ='500' height = '500' style='border:5px solid black'>","40","mixed_simple_deviant","images/complex/15.png","images/complex/17.png","images/simple/12.png,images/simple/5.png,images/simple/16.png,images/simple/8.png,images/simple/13.png,images/simple/7.png,images/simple/17.png","2","null","","200","1182.7799999620765","yes","398.96000013686717","","target","",""
"","null","html-keyboard-response","264","333307","0.0-20.0-0.25","SS1604515119749","","null","","","","","","","","","","","","<img src=images/blank.png width =""500"" height = ""500"" style=""border:5px solid black"">","","",""
"","137.85000005736947","stimulus-presentation","265","333649","0.0-20.0-1.25","SS1604515119749","<img src='images/complex/17.png' width ='500' height = '500' style='border:5px solid black'>","40","mixed_simple_deviant","images/complex/15.png","images/complex/17.png","images/simple/12.png,images/simple/5.png,images/simple/16.png,images/simple/8.png,images/simple/13.png,images/simple/7.png,images/simple/17.png","2","null","","200","337.85000005736947","","","","background","",""
"","null","html-keyboard-response","266","334491","0.0-20.0-0.26","SS1604515119749","","null","","","","","","","","","","","","<img src=images/blank.png width =""500"" height = ""500"" style=""border:5px solid black"">","","",""
"","175.590000115335","stimulus-presentation","267","334872","0.0-20.0-1.26","SS1604515119749","<img src='images/complex/17.png' width ='500' height = '500' style='border:5px solid black'>","40","mixed_simple_deviant","images/complex/15.png","images/complex/17.png","images/simple/12.png,images/simple/5.png,images/simple/16.png,images/simple/8.png,images/simple/13.png,images/simple/7.png,images/simple/17.png","2","null","","200","375.590000115335","","","","background","",""
"","null","html-keyboard-response","268","336011","0.0-20.0-0.27","SS1604515119749","","null","","","","","","","","","","","","<img src=images/blank.png width =""500"" height = ""500"" style=""border:5px solid black"">","","",""
"","215.67000006325543","stimulus-presentation","269","336432","0.0-20.0-1.27","SS1604515119749","<img src='images/complex/17.png' width ='500' height = '500' style='border:5px solid black'>","40","mixed_simple_deviant","images/complex/15.png","images/complex/17.png","images/simple/12.png,images/simple/5.png,images/simple/16.png,images/simple/8.png,images/simple/13.png,images/simple/7.png,images/simple/17.png","2","null","","200","415.67000006325543","","","","background","",""
"","null","html-keyboard-response","270","337274","0.0-20.0-0.28","SS1604515119749","","null","","","","","","","","","","","","<img src=images/blank.png width =""500"" height = ""500"" style=""border:5px solid black"">","","",""
"","401.21499984525144","stimulus-presentation","271","337880","0.0-20.0-1.28","SS1604515119749","<img src='images/simple/16.png' width ='500' height = '500' style='border:5px solid black'>","40","mixed_simple_deviant","images/complex/15.png","images/complex/17.png","images/simple/12.png,images/simple/5.png,images/simple/16.png,images/simple/8.png,images/simple/13.png,images/simple/7.png,images/simple/17.png","2","null","","200","601.2149998452514","","","","deviant","",""
"","null","html-keyboard-response","272","338751","0.0-20.0-0.29","SS1604515119749","","null","","","","","","","","","","","","<img src=images/blank.png width =""500"" height = ""500"" style=""border:5px solid black"">","","",""
"","476.19999991729856","stimulus-presentation","273","339432","0.0-20.0-1.29","SS1604515119749","<img src='images/complex/17.png' width ='500' height = '500' style='border:5px solid black'>","40","mixed_simple_deviant","images/complex/15.png","images/complex/17.png","images/simple/12.png,images/simple/5.png,images/simple/16.png,images/simple/8.png,images/simple/13.png,images/simple/7.png,images/simple/17.png","2","null","","200","676.1999999172986","","","","background","",""
"","null","html-keyboard-response","274","340669","0.0-20.0-0.30","SS1604515119749","","null","","","","","","","","","","","","<img src=images/blank.png width =""500"" height = ""500"" style=""border:5px solid black"">","","",""
"","134.82000003568828","stimulus-presentation","275","341008","0.0-20.0-1.30","SS1604515119749","<img src='images/complex/17.png' width ='500' height = '500' style='border:5px solid black'>","40","mixed_simple_deviant","images/complex/15.png","images/complex/17.png","images/simple/12.png,images/simple/5.png,images/simple/16.png,images/simple/8.png,images/simple/13.png,images/simple/7.png,images/simple/17.png","2","null","","200","334.8200000356883","","","","background","",""
"","null","html-keyboard-response","276","342142","0.0-20.0-0.31","SS1604515119749","","null","","","","","","","","","","","","<img src=images/blank.png width =""500"" height = ""500"" style=""border:5px solid black"">","","",""
"","254.04500006698072","stimulus-presentation","277","342600","0.0-20.0-1.31","SS1604515119749","<img src='images/complex/17.png' width ='500' height = '500' style='border:5px solid black'>","40","mixed_simple_deviant","images/complex/15.png","images/complex/17.png","images/simple/12.png,images/simple/5.png,images/simple/16.png,images/simple/8.png,images/simple/13.png,images/simple/7.png,images/simple/17.png","2","null","","200","454.0450000669807","","","","background","",""
"","null","html-keyboard-response","278","343736","0.0-20.0-0.32","SS1604515119749","","null","","","","","","","","","","","","<img src=images/blank.png width =""500"" height = ""500"" style=""border:5px solid black"">","","",""
"","332.3949999175966","stimulus-presentation","279","344273","0.0-20.0-1.32","SS1604515119749","<img src='images/simple/5.png' width ='500' height = '500' style='border:5px solid black'>","40","mixed_simple_deviant","images/complex/15.png","images/complex/17.png","images/simple/12.png,images/simple/5.png,images/simple/16.png,images/simple/8.png,images/simple/13.png,images/simple/7.png,images/simple/17.png","2","null","","200","532.3949999175966","","","","deviant","",""
"","null","html-keyboard-response","280","345536","0.0-20.0-0.33","SS1604515119749","","null","","","","","","","","","","","","<img src=images/blank.png width =""500"" height = ""500"" style=""border:5px solid black"">","","",""
"","363.294999813661","stimulus-presentation","281","346104","0.0-20.0-1.33","SS1604515119749","<img src='images/complex/17.png' width ='500' height = '500' style='border:5px solid black'>","40","mixed_simple_deviant","images/complex/15.png","images/complex/17.png","images/simple/12.png,images/simple/5.png,images/simple/16.png,images/simple/8.png,images/simple/13.png,images/simple/7.png,images/simple/17.png","2","null","","200","563.294999813661","","","","background","",""
"","null","html-keyboard-response","282","346976","0.0-20.0-0.34","SS1604515119749","","null","","","","","","","","","","","","<img src=images/blank.png width =""500"" height = ""500"" style=""border:5px solid black"">","","",""
