"view_history","rt","trial_type","trial_index","time_elapsed","internal_node_id","subject","trial_stimulus","key_press","task_type","task_target_stimulus","task_background_stimulus","task_deviant_stimuli","task_order_number","block_order_number","trial_order_number","minimum_viewing_duration","trial_looking_time","trial_pressed_space_bar","trial_space_bar_rt","stimulus","trial_stimulus_type","responses","question_order"
"[{""page_index"":0,""viewing_time"":11158.449999999903}]","11160.604999999578","instructions","0","11188","0.0-0.0","SS1604513363507","","","","","","","","","","","","","","","","",""
"[{""page_index"":0,""viewing_time"":8085.660000000189},{""page_index"":1,""viewing_time"":5679.454999999962},{""page_index"":2,""viewing_time"":2583.685000000056},{""page_index"":3,""viewing_time"":7190.685000000034},{""page_index"":4,""viewing_time"":5135.519999999815},{""page_index"":5,""viewing_time"":1839.660000000098},{""page_index"":6,""viewing_time"":1833.0150000001595},{""page_index"":7,""viewing_time"":2078.474999999795},{""page_index"":8,""viewing_time"":1375.924999999821}]","35803.09000000034","instructions","1","46996","0.0-1.0","SS1604513363507","","","","","","","","","","","","","","","","",""
"[{""page_index"":0,""viewing_time"":2829.510000000031},{""page_index"":1,""viewing_time"":9486.630000000325},{""page_index"":2,""viewing_time"":1735.6949999998615}]","14052.509999999987","instructions","2","61057","0.0-2.0","SS1604513363507","","","","","","","","","","","","","","","","",""
"","6255.894999999771","practice-block","3","67533","0.0-3.0","SS1604513363507","<img src='images/practice/practice_background.jpeg' width ='500' height = '500' style='border:5px solid black'>","40","null","images/practice/practice_target.jpg","null","null","null","null","","200","6455.894999999771","yes","1679.7199999996374","","","",""
"","null","html-keyboard-response","4","68723","0.0-4.0","SS1604513363507","","null","","","","","","","","","","","","<img src=images/blank.png width =""500"" height = ""500"" style=""border:5px solid black"">","","",""
"","784.5550000001676","practice-block","5","69726","0.0-5.0","SS1604513363507","<img src='images/practice/practice_background.jpeg' width ='500' height = '500' style='border:5px solid black'>","40","null","images/practice/practice_target.jpg","null","null","null","null","","200","984.5550000001676","","","","","",""
"","null","html-keyboard-response","6","70815","0.0-6.0","SS1604513363507","","null","","","","","","","","","","","","<img src=images/blank.png width =""500"" height = ""500"" style=""border:5px solid black"">","","",""
"","4722.379999999699","practice-block","7","75748","0.0-7.0","SS1604513363507","<img src='images/practice/practice_deviant.jpeg' width ='500' height = '500' style='border:5px solid black'>","40","null","images/practice/practice_target.jpg","null","null","null","null","","200","4922.379999999699","yes","1537.689999999653","","","",""
"","null","html-keyboard-response","8","76841","0.0-8.0","SS1604513363507","","null","","","","","","","","","","","","<img src=images/blank.png width =""500"" height = ""500"" style=""border:5px solid black"">","","",""
"","4845.639999999999","practice-block","9","81893","0.0-9.0-0.0","SS1604513363507","<img src='images/practice/practice_target.jpg' width ='500' height = '500' style='border:5px solid black'>","40","null","images/practice/practice_target.jpg","null","null","null","null","","200","5045.639999999999","yes","3117.8500000000786","","","",""
"","null","html-keyboard-response","10","83188","0.0-10.0","SS1604513363507","","null","","","","","","","","","","","","<img src=images/blank.png width =""500"" height = ""500"" style=""border:5px solid black"">","","",""
"","353.97999999986496","practice-block","11","83748","0.0-11.0","SS1604513363507","<img src='images/practice/practice_background.jpeg' width ='500' height = '500' style='border:5px solid black'>","40","null","images/practice/practice_target.jpg","null","null","null","null","","200","553.979999999865","","","","","",""
"[{""page_index"":0,""viewing_time"":2573}]","2574","task-instructions","12","86326","0.0-12.0","SS1604513363507","","","","","","","","","","","","","","","","",""
"[{""page_index"":0,""viewing_time"":1706.9500000002445},{""page_index"":1,""viewing_time"":3495.4849999999133},{""page_index"":2,""viewing_time"":1207.859999999986}]","6410.96500000004","instructions","13","92741","0.0-13.0","SS1604513363507","","","","","","","","","","","","","","","","",""
"","null","html-keyboard-response","14","93934","0.0-14.0-0.0","SS1604513363507","","null","","","","","","","","","","","","<img src=images/blank.png width =""500"" height = ""500"" style=""border:5px solid black"">","","",""
"","1029.3400000000402","stimulus-presentation","15","95173","0.0-14.0-1.0","SS1604513363507","<img src='images/complex/17.png' width ='500' height = '500' style='border:5px solid black'>","40","mixed_simple_deviant","images/complex/12.png","images/complex/17.png","images/simple/8.png,images/simple/9.png,images/simple/17.png,images/simple/18.png,images/simple/11.png,images/simple/15.png,images/simple/3.png","0","null","","200","1229.3400000000402","","","","background","",""
"","null","html-keyboard-response","16","95983","0.0-14.0-0.1","SS1604513363507","","null","","","","","","","","","","","","<img src=images/blank.png width =""500"" height = ""500"" style=""border:5px solid black"">","","",""
"","517.1150000001071","stimulus-presentation","17","96708","0.0-14.0-1.1","SS1604513363507","<img src='images/complex/17.png' width ='500' height = '500' style='border:5px solid black'>","40","mixed_simple_deviant","images/complex/12.png","images/complex/17.png","images/simple/8.png,images/simple/9.png,images/simple/17.png,images/simple/18.png,images/simple/11.png,images/simple/15.png,images/simple/3.png","0","null","","200","717.1150000001071","","","","background","",""
"","null","html-keyboard-response","18","97743","0.0-14.0-0.2","SS1604513363507","","null","","","","","","","","","","","","<img src=images/blank.png width =""500"" height = ""500"" style=""border:5px solid black"">","","",""
"","303.74499999971886","stimulus-presentation","19","98254","0.0-14.0-1.2","SS1604513363507","<img src='images/complex/17.png' width ='500' height = '500' style='border:5px solid black'>","40","mixed_simple_deviant","images/complex/12.png","images/complex/17.png","images/simple/8.png,images/simple/9.png,images/simple/17.png,images/simple/18.png,images/simple/11.png,images/simple/15.png,images/simple/3.png","0","null","","200","503.74499999971886","","","","background","",""
"","null","html-keyboard-response","20","99267","0.0-14.0-0.3","SS1604513363507","","null","","","","","","","","","","","","<img src=images/blank.png width =""500"" height = ""500"" style=""border:5px solid black"">","","",""
"","473.91000000016356","stimulus-presentation","21","99947","0.0-14.0-1.3","SS1604513363507","<img src='images/simple/9.png' width ='500' height = '500' style='border:5px solid black'>","40","mixed_simple_deviant","images/complex/12.png","images/complex/17.png","images/simple/8.png,images/simple/9.png,images/simple/17.png,images/simple/18.png,images/simple/11.png,images/simple/15.png,images/simple/3.png","0","null","","200","673.9100000001636","","","","deviant","",""
"","null","html-keyboard-response","22","100983","0.0-14.0-0.4","SS1604513363507","","null","","","","","","","","","","","","<img src=images/blank.png width =""500"" height = ""500"" style=""border:5px solid black"">","","",""
"","214.4750000002241","stimulus-presentation","23","101404","0.0-14.0-1.4","SS1604513363507","<img src='images/complex/17.png' width ='500' height = '500' style='border:5px solid black'>","40","mixed_simple_deviant","images/complex/12.png","images/complex/17.png","images/simple/8.png,images/simple/9.png,images/simple/17.png,images/simple/18.png,images/simple/11.png,images/simple/15.png,images/simple/3.png","0","null","","200","414.4750000002241","","","","background","",""
"","null","html-keyboard-response","24","102680","0.0-14.0-0.5","SS1604513363507","","null","","","","","","","","","","","","<img src=images/blank.png width =""500"" height = ""500"" style=""border:5px solid black"">","","",""
"","186.63999999989755","stimulus-presentation","25","103075","0.0-14.0-1.5","SS1604513363507","<img src='images/complex/17.png' width ='500' height = '500' style='border:5px solid black'>","40","mixed_simple_deviant","images/complex/12.png","images/complex/17.png","images/simple/8.png,images/simple/9.png,images/simple/17.png,images/simple/18.png,images/simple/11.png,images/simple/15.png,images/simple/3.png","0","null","","200","386.63999999989755","","","","background","",""
"","null","html-keyboard-response","26","104081","0.0-14.0-0.6","SS1604513363507","","null","","","","","","","","","","","","<img src=images/blank.png width =""500"" height = ""500"" style=""border:5px solid black"">","","",""
"","3600.864999999889","stimulus-presentation","27","107891","0.0-14.0-1.6","SS1604513363507","<img src='images/complex/12.png' width ='500' height = '500' style='border:5px solid black'>","40","mixed_simple_deviant","images/complex/12.png","images/complex/17.png","images/simple/8.png,images/simple/9.png,images/simple/17.png,images/simple/18.png,images/simple/11.png,images/simple/15.png,images/simple/3.png","0","null","","200","3800.864999999889","yes","1376.635000000082","","target","",""
"","null","html-keyboard-response","28","109014","0.0-14.0-0.7","SS1604513363507","","null","","","","","","","","","","","","<img src=images/blank.png width =""500"" height = ""500"" style=""border:5px solid black"">","","",""
"","566.0699999998469","stimulus-presentation","29","109787","0.0-14.0-1.7","SS1604513363507","<img src='images/complex/17.png' width ='500' height = '500' style='border:5px solid black'>","40","mixed_simple_deviant","images/complex/12.png","images/complex/17.png","images/simple/8.png,images/simple/9.png,images/simple/17.png,images/simple/18.png,images/simple/11.png,images/simple/15.png,images/simple/3.png","0","null","","200","766.0699999998469","","","","background","",""
"","null","html-keyboard-response","30","110879","0.0-14.0-0.8","SS1604513363507","","null","","","","","","","","","","","","<img src=images/blank.png width =""500"" height = ""500"" style=""border:5px solid black"">","","",""
"","230.32999999987078","stimulus-presentation","31","111315","0.0-14.0-1.8","SS1604513363507","<img src='images/complex/17.png' width ='500' height = '500' style='border:5px solid black'>","40","mixed_simple_deviant","images/complex/12.png","images/complex/17.png","images/simple/8.png,images/simple/9.png,images/simple/17.png,images/simple/18.png,images/simple/11.png,images/simple/15.png,images/simple/3.png","0","null","","200","430.3299999998708","","","","background","",""
"","null","html-keyboard-response","32","112374","0.0-14.0-0.9","SS1604513363507","","null","","","","","","","","","","","","<img src=images/blank.png width =""500"" height = ""500"" style=""border:5px solid black"">","","",""
"","174.77999999983876","stimulus-presentation","33","112756","0.0-14.0-1.9","SS1604513363507","<img src='images/complex/17.png' width ='500' height = '500' style='border:5px solid black'>","40","mixed_simple_deviant","images/complex/12.png","images/complex/17.png","images/simple/8.png,images/simple/9.png,images/simple/17.png,images/simple/18.png,images/simple/11.png,images/simple/15.png,images/simple/3.png","0","null","","200","374.77999999983876","","","","background","",""
"","null","html-keyboard-response","34","113741","0.0-14.0-0.10","SS1604513363507","","null","","","","","","","","","","","","<img src=images/blank.png width =""500"" height = ""500"" style=""border:5px solid black"">","","",""
"","206.2000000000844","stimulus-presentation","35","114154","0.0-14.0-1.10","SS1604513363507","<img src='images/complex/17.png' width ='500' height = '500' style='border:5px solid black'>","40","mixed_simple_deviant","images/complex/12.png","images/complex/17.png","images/simple/8.png,images/simple/9.png,images/simple/17.png,images/simple/18.png,images/simple/11.png,images/simple/15.png,images/simple/3.png","0","null","","200","406.2000000000844","","","","background","",""
"","null","html-keyboard-response","36","115096","0.0-14.0-0.11","SS1604513363507","","null","","","","","","","","","","","","<img src=images/blank.png width =""500"" height = ""500"" style=""border:5px solid black"">","","",""
"","125.94999999964784","stimulus-presentation","37","115442","0.0-14.0-1.11","SS1604513363507","<img src='images/complex/17.png' width ='500' height = '500' style='border:5px solid black'>","40","mixed_simple_deviant","images/complex/12.png","images/complex/17.png","images/simple/8.png,images/simple/9.png,images/simple/17.png,images/simple/18.png,images/simple/11.png,images/simple/15.png,images/simple/3.png","0","null","","200","325.94999999964784","","","","background","",""
"","null","html-keyboard-response","38","116285","0.0-14.0-0.12","SS1604513363507","","null","","","","","","","","","","","","<img src=images/blank.png width =""500"" height = ""500"" style=""border:5px solid black"">","","",""
"","3456.99500000001","stimulus-presentation","39","119946","0.0-14.0-1.12","SS1604513363507","<img src='images/complex/12.png' width ='500' height = '500' style='border:5px solid black'>","40","mixed_simple_deviant","images/complex/12.png","images/complex/17.png","images/simple/8.png,images/simple/9.png,images/simple/17.png,images/simple/18.png,images/simple/11.png,images/simple/15.png,images/simple/3.png","0","null","","200","3656.99500000001","yes","481.1700000000128","","target","",""
"","null","html-keyboard-response","40","121216","0.0-14.0-0.13","SS1604513363507","","null","","","","","","","","","","","","<img src=images/blank.png width =""500"" height = ""500"" style=""border:5px solid black"">","","",""
"","1901.460000000021","stimulus-presentation","41","123324","0.0-14.0-1.13","SS1604513363507","<img src='images/complex/12.png' width ='500' height = '500' style='border:5px solid black'>","40","mixed_simple_deviant","images/complex/12.png","images/complex/17.png","images/simple/8.png,images/simple/9.png,images/simple/17.png,images/simple/18.png,images/simple/11.png,images/simple/15.png,images/simple/3.png","0","null","","200","2101.460000000021","yes","635.3450000001176","","target","",""
"","null","html-keyboard-response","42","124626","0.0-14.0-0.14","SS1604513363507","","null","","","","","","","","","","","","<img src=images/blank.png width =""500"" height = ""500"" style=""border:5px solid black"">","","",""
"","469.47000000003027","stimulus-presentation","43","125307","0.0-14.0-1.14","SS1604513363507","<img src='images/complex/17.png' width ='500' height = '500' style='border:5px solid black'>","40","mixed_simple_deviant","images/complex/12.png","images/complex/17.png","images/simple/8.png,images/simple/9.png,images/simple/17.png,images/simple/18.png,images/simple/11.png,images/simple/15.png,images/simple/3.png","0","null","","200","669.4700000000303","","","","background","",""
"","null","html-keyboard-response","44","126223","0.0-14.0-0.15","SS1604513363507","","null","","","","","","","","","","","","<img src=images/blank.png width =""500"" height = ""500"" style=""border:5px solid black"">","","",""
"","1286.1199999997625","stimulus-presentation","45","127715","0.0-14.0-1.15","SS1604513363507","<img src='images/complex/12.png' width ='500' height = '500' style='border:5px solid black'>","40","mixed_simple_deviant","images/complex/12.png","images/complex/17.png","images/simple/8.png,images/simple/9.png,images/simple/17.png,images/simple/18.png,images/simple/11.png,images/simple/15.png,images/simple/3.png","0","null","","200","1486.1199999997625","yes","389.07500000006985","","target","",""
"","null","html-keyboard-response","46","128786","0.0-14.0-0.16","SS1604513363507","","null","","","","","","","","","","","","<img src=images/blank.png width =""500"" height = ""500"" style=""border:5px solid black"">","","",""
"","241.2500000000291","stimulus-presentation","47","129234","0.0-14.0-1.16","SS1604513363507","<img src='images/complex/17.png' width ='500' height = '500' style='border:5px solid black'>","40","mixed_simple_deviant","images/complex/12.png","images/complex/17.png","images/simple/8.png,images/simple/9.png,images/simple/17.png,images/simple/18.png,images/simple/11.png,images/simple/15.png,images/simple/3.png","0","null","","200","441.2500000000291","","","","background","",""
"","null","html-keyboard-response","48","130358","0.0-14.0-0.17","SS1604513363507","","null","","","","","","","","","","","","<img src=images/blank.png width =""500"" height = ""500"" style=""border:5px solid black"">","","",""
"","159.6299999996554","stimulus-presentation","49","130730","0.0-14.0-1.17","SS1604513363507","<img src='images/complex/17.png' width ='500' height = '500' style='border:5px solid black'>","40","mixed_simple_deviant","images/complex/12.png","images/complex/17.png","images/simple/8.png,images/simple/9.png,images/simple/17.png,images/simple/18.png,images/simple/11.png,images/simple/15.png,images/simple/3.png","0","null","","200","359.6299999996554","","","","background","",""
"","null","html-keyboard-response","50","131799","0.0-14.0-0.18","SS1604513363507","","null","","","","","","","","","","","","<img src=images/blank.png width =""500"" height = ""500"" style=""border:5px solid black"">","","",""
"","168.5049999996554","stimulus-presentation","51","132187","0.0-14.0-1.18","SS1604513363507","<img src='images/complex/17.png' width ='500' height = '500' style='border:5px solid black'>","40","mixed_simple_deviant","images/complex/12.png","images/complex/17.png","images/simple/8.png,images/simple/9.png,images/simple/17.png,images/simple/18.png,images/simple/11.png,images/simple/15.png,images/simple/3.png","0","null","","200","368.5049999996554","","","","background","",""
"","null","html-keyboard-response","52","133475","0.0-14.0-0.19","SS1604513363507","","null","","","","","","","","","","","","<img src=images/blank.png width =""500"" height = ""500"" style=""border:5px solid black"">","","",""
"","1232.4449999996577","stimulus-presentation","53","134915","0.0-14.0-1.19","SS1604513363507","<img src='images/complex/12.png' width ='500' height = '500' style='border:5px solid black'>","40","mixed_simple_deviant","images/complex/12.png","images/complex/17.png","images/simple/8.png,images/simple/9.png,images/simple/17.png,images/simple/18.png,images/simple/11.png,images/simple/15.png,images/simple/3.png","0","null","","200","1432.4449999996577","yes","416.6799999998184","","target","",""
"","null","html-keyboard-response","54","136155","0.0-14.0-0.20","SS1604513363507","","null","","","","","","","","","","","","<img src=images/blank.png width =""500"" height = ""500"" style=""border:5px solid black"">","","",""
"","152.19499999968684","stimulus-presentation","55","136514","0.0-14.0-1.20","SS1604513363507","<img src='images/complex/17.png' width ='500' height = '500' style='border:5px solid black'>","40","mixed_simple_deviant","images/complex/12.png","images/complex/17.png","images/simple/8.png,images/simple/9.png,images/simple/17.png,images/simple/18.png,images/simple/11.png,images/simple/15.png,images/simple/3.png","0","null","","200","352.19499999968684","","","","background","",""
"","null","html-keyboard-response","56","137758","0.0-14.0-0.21","SS1604513363507","","null","","","","","","","","","","","","<img src=images/blank.png width =""500"" height = ""500"" style=""border:5px solid black"">","","",""
"","509.88999999981024","stimulus-presentation","57","138482","0.0-14.0-1.21","SS1604513363507","<img src='images/simple/15.png' width ='500' height = '500' style='border:5px solid black'>","40","mixed_simple_deviant","images/complex/12.png","images/complex/17.png","images/simple/8.png,images/simple/9.png,images/simple/17.png,images/simple/18.png,images/simple/11.png,images/simple/15.png,images/simple/3.png","0","null","","200","709.8899999998102","","","","deviant","",""
"","null","html-keyboard-response","58","139723","0.0-14.0-0.22","SS1604513363507","","null","","","","","","","","","","","","<img src=images/blank.png width =""500"" height = ""500"" style=""border:5px solid black"">","","",""
"","144.240000000078","stimulus-presentation","59","140074","0.0-14.0-1.22","SS1604513363507","<img src='images/complex/17.png' width ='500' height = '500' style='border:5px solid black'>","40","mixed_simple_deviant","images/complex/12.png","images/complex/17.png","images/simple/8.png,images/simple/9.png,images/simple/17.png,images/simple/18.png,images/simple/11.png,images/simple/15.png,images/simple/3.png","0","null","","200","344.240000000078","","","","background","",""
"","null","html-keyboard-response","60","140942","0.0-14.0-0.23","SS1604513363507","","null","","","","","","","","","","","","<img src=images/blank.png width =""500"" height = ""500"" style=""border:5px solid black"">","","",""
"","232.2149999999965","stimulus-presentation","61","141386","0.0-14.0-1.23","SS1604513363507","<img src='images/complex/17.png' width ='500' height = '500' style='border:5px solid black'>","40","mixed_simple_deviant","images/complex/12.png","images/complex/17.png","images/simple/8.png,images/simple/9.png,images/simple/17.png,images/simple/18.png,images/simple/11.png,images/simple/15.png,images/simple/3.png","0","null","","200","432.2149999999965","","","","background","",""
"","null","html-keyboard-response","62","142664","0.0-14.0-0.24","SS1604513363507","","null","","","","","","","","","","","","<img src=images/blank.png width =""500"" height = ""500"" style=""border:5px solid black"">","","",""
"","146.490000000078","stimulus-presentation","63","143018","0.0-14.0-1.24","SS1604513363507","<img src='images/complex/17.png' width ='500' height = '500' style='border:5px solid black'>","40","mixed_simple_deviant","images/complex/12.png","images/complex/17.png","images/simple/8.png,images/simple/9.png,images/simple/17.png,images/simple/18.png,images/simple/11.png,images/simple/15.png,images/simple/3.png","0","null","","200","346.490000000078","","","","background","",""
"","null","html-keyboard-response","64","144280","0.0-14.0-0.25","SS1604513363507","","null","","","","","","","","","","","","<img src=images/blank.png width =""500"" height = ""500"" style=""border:5px solid black"">","","",""
"","165.70999999978812","stimulus-presentation","65","144653","0.0-14.0-1.25","SS1604513363507","<img src='images/complex/17.png' width ='500' height = '500' style='border:5px solid black'>","40","mixed_simple_deviant","images/complex/12.png","images/complex/17.png","images/simple/8.png,images/simple/9.png,images/simple/17.png,images/simple/18.png,images/simple/11.png,images/simple/15.png,images/simple/3.png","0","null","","200","365.7099999997881","","","","background","",""
"","null","html-keyboard-response","66","145524","0.0-14.0-0.26","SS1604513363507","","null","","","","","","","","","","","","<img src=images/blank.png width =""500"" height = ""500"" style=""border:5px solid black"">","","",""
"","234.1150000001944","stimulus-presentation","67","145970","0.0-14.0-1.26","SS1604513363507","<img src='images/complex/17.png' width ='500' height = '500' style='border:5px solid black'>","40","mixed_simple_deviant","images/complex/12.png","images/complex/17.png","images/simple/8.png,images/simple/9.png,images/simple/17.png,images/simple/18.png,images/simple/11.png,images/simple/15.png,images/simple/3.png","0","null","","200","434.1150000001944","","","","background","",""
"","null","html-keyboard-response","68","146882","0.0-14.0-0.27","SS1604513363507","","null","","","","","","","","","","","","<img src=images/blank.png width =""500"" height = ""500"" style=""border:5px solid black"">","","",""
"","291.93499999973574","stimulus-presentation","69","147394","0.0-14.0-1.27","SS1604513363507","<img src='images/complex/17.png' width ='500' height = '500' style='border:5px solid black'>","40","mixed_simple_deviant","images/complex/12.png","images/complex/17.png","images/simple/8.png,images/simple/9.png,images/simple/17.png,images/simple/18.png,images/simple/11.png,images/simple/15.png,images/simple/3.png","0","null","","200","491.93499999973574","","","","background","",""
"","null","html-keyboard-response","70","148451","0.0-14.0-0.28","SS1604513363507","","null","","","","","","","","","","","","<img src=images/blank.png width =""500"" height = ""500"" style=""border:5px solid black"">","","",""
"","656.1000000001513","stimulus-presentation","71","149314","0.0-14.0-1.28","SS1604513363507","<img src='images/simple/18.png' width ='500' height = '500' style='border:5px solid black'>","40","mixed_simple_deviant","images/complex/12.png","images/complex/17.png","images/simple/8.png,images/simple/9.png,images/simple/17.png,images/simple/18.png,images/simple/11.png,images/simple/15.png,images/simple/3.png","0","null","","200","856.1000000001513","","","","deviant","",""
"","null","html-keyboard-response","72","150497","0.0-14.0-0.29","SS1604513363507","","null","","","","","","","","","","","","<img src=images/blank.png width =""500"" height = ""500"" style=""border:5px solid black"">","","",""
"","329.2249999999476","stimulus-presentation","73","151034","0.0-14.0-1.29","SS1604513363507","<img src='images/complex/17.png' width ='500' height = '500' style='border:5px solid black'>","40","mixed_simple_deviant","images/complex/12.png","images/complex/17.png","images/simple/8.png,images/simple/9.png,images/simple/17.png,images/simple/18.png,images/simple/11.png,images/simple/15.png,images/simple/3.png","0","null","","200","529.2249999999476","","","","background","",""
"","null","html-keyboard-response","74","152194","0.0-14.0-0.30","SS1604513363507","","null","","","","","","","","","","","","<img src=images/blank.png width =""500"" height = ""500"" style=""border:5px solid black"">","","",""
"","119.36500000001979","stimulus-presentation","75","152522","0.0-14.0-1.30","SS1604513363507","<img src='images/complex/17.png' width ='500' height = '500' style='border:5px solid black'>","40","mixed_simple_deviant","images/complex/12.png","images/complex/17.png","images/simple/8.png,images/simple/9.png,images/simple/17.png,images/simple/18.png,images/simple/11.png,images/simple/15.png,images/simple/3.png","0","null","","200","319.3650000000198","","","","background","",""
"","null","html-keyboard-response","76","153637","0.0-14.0-0.31","SS1604513363507","","null","","","","","","","","","","","","<img src=images/blank.png width =""500"" height = ""500"" style=""border:5px solid black"">","","",""
"","213.2050000000163","stimulus-presentation","77","154058","0.0-14.0-1.31","SS1604513363507","<img src='images/complex/17.png' width ='500' height = '500' style='border:5px solid black'>","40","mixed_simple_deviant","images/complex/12.png","images/complex/17.png","images/simple/8.png,images/simple/9.png,images/simple/17.png,images/simple/18.png,images/simple/11.png,images/simple/15.png,images/simple/3.png","0","null","","200","413.2050000000163","","","","background","",""
"","null","html-keyboard-response","78","155094","0.0-14.0-0.32","SS1604513363507","","null","","","","","","","","","","","","<img src=images/blank.png width =""500"" height = ""500"" style=""border:5px solid black"">","","",""
"","211.6799999999057","stimulus-presentation","79","155515","0.0-14.0-1.32","SS1604513363507","<img src='images/complex/17.png' width ='500' height = '500' style='border:5px solid black'>","40","mixed_simple_deviant","images/complex/12.png","images/complex/17.png","images/simple/8.png,images/simple/9.png,images/simple/17.png,images/simple/18.png,images/simple/11.png,images/simple/15.png,images/simple/3.png","0","null","","200","411.6799999999057","","","","background","",""
"","null","html-keyboard-response","80","156475","0.0-14.0-0.33","SS1604513363507","","null","","","","","","","","","","","","<img src=images/blank.png width =""500"" height = ""500"" style=""border:5px solid black"">","","",""
"","182.89000000004307","stimulus-presentation","81","156866","0.0-14.0-1.33","SS1604513363507","<img src='images/complex/17.png' width ='500' height = '500' style='border:5px solid black'>","40","mixed_simple_deviant","images/complex/12.png","images/complex/17.png","images/simple/8.png,images/simple/9.png,images/simple/17.png,images/simple/18.png,images/simple/11.png,images/simple/15.png,images/simple/3.png","0","null","","200","382.8900000000431","","","","background","",""
"","null","html-keyboard-response","82","158159","0.0-14.0-0.34","SS1604513363507","","null","","","","","","","","","","","","<img src=images/blank.png width =""500"" height = ""500"" style=""border:5px solid black"">","","",""
"","483.28499999979977","stimulus-presentation","83","158850","0.0-14.0-1.34","SS1604513363507","<img src='images/simple/11.png' width ='500' height = '500' style='border:5px solid black'>","40","mixed_simple_deviant","images/complex/12.png","images/complex/17.png","images/simple/8.png,images/simple/9.png,images/simple/17.png,images/simple/18.png,images/simple/11.png,images/simple/15.png,images/simple/3.png","0","null","","200","683.2849999997998","","","","deviant","",""
"","null","html-keyboard-response","84","159753","0.0-14.0-0.35","SS1604513363507","","null","","","","","","","","","","","","<img src=images/blank.png width =""500"" height = ""500"" style=""border:5px solid black"">","","",""
"","224.4849999997241","stimulus-presentation","85","160189","0.0-14.0-1.35","SS1604513363507","<img src='images/complex/17.png' width ='500' height = '500' style='border:5px solid black'>","40","mixed_simple_deviant","images/complex/12.png","images/complex/17.png","images/simple/8.png,images/simple/9.png,images/simple/17.png,images/simple/18.png,images/simple/11.png,images/simple/15.png,images/simple/3.png","0","null","","200","424.4849999997241","","","","background","",""
"","null","html-keyboard-response","86","161257","0.0-14.0-0.36","SS1604513363507","","null","","","","","","","","","","","","<img src=images/blank.png width =""500"" height = ""500"" style=""border:5px solid black"">","","",""
"","274.1799999999057","stimulus-presentation","87","161741","0.0-14.0-1.36","SS1604513363507","<img src='images/complex/17.png' width ='500' height = '500' style='border:5px solid black'>","40","mixed_simple_deviant","images/complex/12.png","images/complex/17.png","images/simple/8.png,images/simple/9.png,images/simple/17.png,images/simple/18.png,images/simple/11.png,images/simple/15.png,images/simple/3.png","0","null","","200","474.1799999999057","","","","background","",""
"","null","html-keyboard-response","88","163023","0.0-14.0-0.37","SS1604513363507","","null","","","","","","","","","","","","<img src=images/blank.png width =""500"" height = ""500"" style=""border:5px solid black"">","","",""
"","380.1349999998929","stimulus-presentation","89","163612","0.0-14.0-1.37","SS1604513363507","<img src='images/simple/3.png' width ='500' height = '500' style='border:5px solid black'>","40","mixed_simple_deviant","images/complex/12.png","images/complex/17.png","images/simple/8.png,images/simple/9.png,images/simple/17.png,images/simple/18.png,images/simple/11.png,images/simple/15.png,images/simple/3.png","0","null","","200","580.1349999998929","","","","deviant","",""
"","null","html-keyboard-response","90","164540","0.0-14.0-0.38","SS1604513363507","","null","","","","","","","","","","","","<img src=images/blank.png width =""500"" height = ""500"" style=""border:5px solid black"">","","",""
"","520.1199999996752","stimulus-presentation","91","165269","0.0-14.0-1.38","SS1604513363507","<img src='images/complex/17.png' width ='500' height = '500' style='border:5px solid black'>","40","mixed_simple_deviant","images/complex/12.png","images/complex/17.png","images/simple/8.png,images/simple/9.png,images/simple/17.png,images/simple/18.png,images/simple/11.png,images/simple/15.png,images/simple/3.png","0","null","","200","720.1199999996752","","","","background","",""
"","null","html-keyboard-response","92","166364","0.0-14.0-0.39","SS1604513363507","","null","","","","","","","","","","","","<img src=images/blank.png width =""500"" height = ""500"" style=""border:5px solid black"">","","",""
"","241.349999999773","stimulus-presentation","93","166814","0.0-14.0-1.39","SS1604513363507","<img src='images/complex/17.png' width ='500' height = '500' style='border:5px solid black'>","40","mixed_simple_deviant","images/complex/12.png","images/complex/17.png","images/simple/8.png,images/simple/9.png,images/simple/17.png,images/simple/18.png,images/simple/11.png,images/simple/15.png,images/simple/3.png","0","null","","200","441.349999999773","","","","background","",""
"","null","html-keyboard-response","94","167662","0.0-14.0-0.40","SS1604513363507","","null","","","","","","","","","","","","<img src=images/blank.png width =""500"" height = ""500"" style=""border:5px solid black"">","","",""
"","4580.020000000339","stimulus-presentation","95","172460","0.0-14.0-1.40","SS1604513363507","<img src='images/complex/12.png' width ='500' height = '500' style='border:5px solid black'>","40","mixed_simple_deviant","images/complex/12.png","images/complex/17.png","images/simple/8.png,images/simple/9.png,images/simple/17.png,images/simple/18.png,images/simple/11.png,images/simple/15.png,images/simple/3.png","0","null","","200","4780.020000000339","yes","1299.605000000156","","target","",""
"","null","html-keyboard-response","96","173516","0.0-14.0-0.41","SS1604513363507","","null","","","","","","","","","","","","<img src=images/blank.png width =""500"" height = ""500"" style=""border:5px solid black"">","","",""
"","239.47000000000116","stimulus-presentation","97","173966","0.0-14.0-1.41","SS1604513363507","<img src='images/complex/17.png' width ='500' height = '500' style='border:5px solid black'>","40","mixed_simple_deviant","images/complex/12.png","images/complex/17.png","images/simple/8.png,images/simple/9.png,images/simple/17.png,images/simple/18.png,images/simple/11.png,images/simple/15.png,images/simple/3.png","0","null","","200","439.47000000000116","","","","background","",""
"","null","html-keyboard-response","98","175033","0.0-14.0-0.42","SS1604513363507","","null","","","","","","","","","","","","<img src=images/blank.png width =""500"" height = ""500"" style=""border:5px solid black"">","","",""
"","718.1550000000279","stimulus-presentation","99","175972","0.0-14.0-1.42","SS1604513363507","<img src='images/simple/17.png' width ='500' height = '500' style='border:5px solid black'>","40","mixed_simple_deviant","images/complex/12.png","images/complex/17.png","images/simple/8.png,images/simple/9.png,images/simple/17.png,images/simple/18.png,images/simple/11.png,images/simple/15.png,images/simple/3.png","0","null","","200","918.1550000000279","","","","deviant","",""
"","null","html-keyboard-response","100","177002","0.0-14.0-0.43","SS1604513363507","","null","","","","","","","","","","","","<img src=images/blank.png width =""500"" height = ""500"" style=""border:5px solid black"">","","",""
"","195.22500000038417","stimulus-presentation","101","177406","0.0-14.0-1.43","SS1604513363507","<img src='images/complex/17.png' width ='500' height = '500' style='border:5px solid black'>","40","mixed_simple_deviant","images/complex/12.png","images/complex/17.png","images/simple/8.png,images/simple/9.png,images/simple/17.png,images/simple/18.png,images/simple/11.png,images/simple/15.png,images/simple/3.png","0","null","","200","395.22500000038417","","","","background","",""
"","null","html-keyboard-response","102","178361","0.0-14.0-0.44","SS1604513363507","","null","","","","","","","","","","","","<img src=images/blank.png width =""500"" height = ""500"" style=""border:5px solid black"">","","",""
"","242.7100000004575","stimulus-presentation","103","178813","0.0-14.0-1.44","SS1604513363507","<img src='images/complex/17.png' width ='500' height = '500' style='border:5px solid black'>","40","mixed_simple_deviant","images/complex/12.png","images/complex/17.png","images/simple/8.png,images/simple/9.png,images/simple/17.png,images/simple/18.png,images/simple/11.png,images/simple/15.png,images/simple/3.png","0","null","","200","442.7100000004575","","","","background","",""
"","null","html-keyboard-response","104","179712","0.0-14.0-0.45","SS1604513363507","","null","","","","","","","","","","","","<img src=images/blank.png width =""500"" height = ""500"" style=""border:5px solid black"">","","",""
"","1922.2050000002782","stimulus-presentation","105","181852","0.0-14.0-1.45","SS1604513363507","<img src='images/complex/12.png' width ='500' height = '500' style='border:5px solid black'>","40","mixed_simple_deviant","images/complex/12.png","images/complex/17.png","images/simple/8.png,images/simple/9.png,images/simple/17.png,images/simple/18.png,images/simple/11.png,images/simple/15.png,images/simple/3.png","0","null","","200","2122.2050000002782","yes","425.8800000002084","","target","",""
"","null","html-keyboard-response","106","182848","0.0-14.0-0.46","SS1604513363507","","null","","","","","","","","","","","","<img src=images/blank.png width =""500"" height = ""500"" style=""border:5px solid black"">","","",""
"","243.30499999999302","stimulus-presentation","107","183309","0.0-14.0-1.46","SS1604513363507","<img src='images/simple/8.png' width ='500' height = '500' style='border:5px solid black'>","40","mixed_simple_deviant","images/complex/12.png","images/complex/17.png","images/simple/8.png,images/simple/9.png,images/simple/17.png,images/simple/18.png,images/simple/11.png,images/simple/15.png,images/simple/3.png","0","null","","200","443.304999999993","","","","deviant","",""
"","null","html-keyboard-response","108","184140","0.0-14.0-0.47","SS1604513363507","","null","","","","","","","","","","","","<img src=images/blank.png width =""500"" height = ""500"" style=""border:5px solid black"">","","",""
"","258.2250000000349","stimulus-presentation","109","184613","0.0-14.0-1.47","SS1604513363507","<img src='images/complex/17.png' width ='500' height = '500' style='border:5px solid black'>","40","mixed_simple_deviant","images/complex/12.png","images/complex/17.png","images/simple/8.png,images/simple/9.png,images/simple/17.png,images/simple/18.png,images/simple/11.png,images/simple/15.png,images/simple/3.png","0","null","","200","458.2250000000349","","","","background","",""
"","null","html-keyboard-response","110","185916","0.0-14.0-0.48","SS1604513363507","","null","","","","","","","","","","","","<img src=images/blank.png width =""500"" height = ""500"" style=""border:5px solid black"">","","",""
"","276.9849999999569","stimulus-presentation","111","186405","0.0-14.0-1.48","SS1604513363507","<img src='images/complex/17.png' width ='500' height = '500' style='border:5px solid black'>","40","mixed_simple_deviant","images/complex/12.png","images/complex/17.png","images/simple/8.png,images/simple/9.png,images/simple/17.png,images/simple/18.png,images/simple/11.png,images/simple/15.png,images/simple/3.png","0","null","","200","476.9849999999569","","","","background","",""
"[{""page_index"":0,""viewing_time"":3196}]","3197","task-instructions","112","189608","0.0-15.0","SS1604513363507","","","","","","","","","","","","","","","","",""
"[{""page_index"":0,""viewing_time"":1399.825000000419},{""page_index"":1,""viewing_time"":8742.724999999598},{""page_index"":2,""viewing_time"":2039.6450000003097}]","12182.96000000008","instructions","113","201798","0.0-16.0","SS1604513363507","","","","","","","","","","","","","","","","",""
"","null","html-keyboard-response","114","202693","0.0-17.0-0.0","SS1604513363507","","null","","","","","","","","","","","","<img src=images/blank.png width =""500"" height = ""500"" style=""border:5px solid black"">","","",""
"","838.1699999999837","stimulus-presentation","115","203740","0.0-17.0-1.0","SS1604513363507","<img src='images/complex/11.png' width ='500' height = '500' style='border:5px solid black'>","40","all_complex","images/complex/9.png","images/complex/11.png","images/complex/1.png,images/complex/13.png,images/complex/6.png,images/complex/2.png,images/complex/14.png,images/complex/15.png,images/complex/4.png","1","null","","200","1038.1699999999837","","","","background","",""
"","null","html-keyboard-response","116","204931","0.0-17.0-0.1","SS1604513363507","","null","","","","","","","","","","","","<img src=images/blank.png width =""500"" height = ""500"" style=""border:5px solid black"">","","",""
"","706.6399999998685","stimulus-presentation","117","205853","0.0-17.0-1.1","SS1604513363507","<img src='images/complex/11.png' width ='500' height = '500' style='border:5px solid black'>","40","all_complex","images/complex/9.png","images/complex/11.png","images/complex/1.png,images/complex/13.png,images/complex/6.png,images/complex/2.png,images/complex/14.png,images/complex/15.png,images/complex/4.png","1","null","","200","906.6399999998685","","","","background","",""
"","null","html-keyboard-response","118","207108","0.0-17.0-0.2","SS1604513363507","","null","","","","","","","","","","","","<img src=images/blank.png width =""500"" height = ""500"" style=""border:5px solid black"">","","",""
"","655.4500000001863","stimulus-presentation","119","207973","0.0-17.0-1.2","SS1604513363507","<img src='images/complex/4.png' width ='500' height = '500' style='border:5px solid black'>","40","all_complex","images/complex/9.png","images/complex/11.png","images/complex/1.png,images/complex/13.png,images/complex/6.png,images/complex/2.png,images/complex/14.png,images/complex/15.png,images/complex/4.png","1","null","","200","855.4500000001863","","","","deviant","",""
"","null","html-keyboard-response","120","208954","0.0-17.0-0.3","SS1604513363507","","null","","","","","","","","","","","","<img src=images/blank.png width =""500"" height = ""500"" style=""border:5px solid black"">","","",""
"","321.074999999837","stimulus-presentation","121","209484","0.0-17.0-1.3","SS1604513363507","<img src='images/complex/11.png' width ='500' height = '500' style='border:5px solid black'>","40","all_complex","images/complex/9.png","images/complex/11.png","images/complex/1.png,images/complex/13.png,images/complex/6.png,images/complex/2.png,images/complex/14.png,images/complex/15.png,images/complex/4.png","1","null","","200","521.074999999837","","","","background","",""
"","null","html-keyboard-response","122","210695","0.0-17.0-0.4","SS1604513363507","","null","","","","","","","","","","","","<img src=images/blank.png width =""500"" height = ""500"" style=""border:5px solid black"">","","",""
"","517.0100000000093","stimulus-presentation","123","211430","0.0-17.0-1.4","SS1604513363507","<img src='images/complex/11.png' width ='500' height = '500' style='border:5px solid black'>","40","all_complex","images/complex/9.png","images/complex/11.png","images/complex/1.png,images/complex/13.png,images/complex/6.png,images/complex/2.png,images/complex/14.png,images/complex/15.png,images/complex/4.png","1","null","","200","717.0100000000093","","","","background","",""
"","null","html-keyboard-response","124","212597","0.0-17.0-0.5","SS1604513363507","","null","","","","","","","","","","","","<img src=images/blank.png width =""500"" height = ""500"" style=""border:5px solid black"">","","",""
"","2560.304999999964","stimulus-presentation","125","215373","0.0-17.0-1.5","SS1604513363507","<img src='images/complex/11.png' width ='500' height = '500' style='border:5px solid black'>","40","all_complex","images/complex/9.png","images/complex/11.png","images/complex/1.png,images/complex/13.png,images/complex/6.png,images/complex/2.png,images/complex/14.png,images/complex/15.png,images/complex/4.png","1","null","","200","2760.304999999964","","","","background","",""
"","null","html-keyboard-response","126","216372","0.0-17.0-0.6","SS1604513363507","","null","","","","","","","","","","","","<img src=images/blank.png width =""500"" height = ""500"" style=""border:5px solid black"">","","",""
"","286.2999999997555","stimulus-presentation","127","216868","0.0-17.0-1.6","SS1604513363507","<img src='images/complex/11.png' width ='500' height = '500' style='border:5px solid black'>","40","all_complex","images/complex/9.png","images/complex/11.png","images/complex/1.png,images/complex/13.png,images/complex/6.png,images/complex/2.png,images/complex/14.png,images/complex/15.png,images/complex/4.png","1","null","","200","486.2999999997555","","","","background","",""
"","null","html-keyboard-response","128","217706","0.0-17.0-0.7","SS1604513363507","","null","","","","","","","","","","","","<img src=images/blank.png width =""500"" height = ""500"" style=""border:5px solid black"">","","",""
"","371.7400000000489","stimulus-presentation","129","218300","0.0-17.0-1.7","SS1604513363507","<img src='images/complex/11.png' width ='500' height = '500' style='border:5px solid black'>","40","all_complex","images/complex/9.png","images/complex/11.png","images/complex/1.png,images/complex/13.png,images/complex/6.png,images/complex/2.png,images/complex/14.png,images/complex/15.png,images/complex/4.png","1","null","","200","571.7400000000489","","","","background","",""
"","null","html-keyboard-response","130","219435","0.0-17.0-0.8","SS1604513363507","","null","","","","","","","","","","","","<img src=images/blank.png width =""500"" height = ""500"" style=""border:5px solid black"">","","",""
"","406.5999999998021","stimulus-presentation","131","220056","0.0-17.0-1.8","SS1604513363507","<img src='images/complex/15.png' width ='500' height = '500' style='border:5px solid black'>","40","all_complex","images/complex/9.png","images/complex/11.png","images/complex/1.png,images/complex/13.png,images/complex/6.png,images/complex/2.png,images/complex/14.png,images/complex/15.png,images/complex/4.png","1","null","","200","606.5999999998021","","","","deviant","",""
"","null","html-keyboard-response","132","221171","0.0-17.0-0.9","SS1604513363507","","null","","","","","","","","","","","","<img src=images/blank.png width =""500"" height = ""500"" style=""border:5px solid black"">","","",""
"","337.79000000003725","stimulus-presentation","133","221720","0.0-17.0-1.9","SS1604513363507","<img src='images/complex/11.png' width ='500' height = '500' style='border:5px solid black'>","40","all_complex","images/complex/9.png","images/complex/11.png","images/complex/1.png,images/complex/13.png,images/complex/6.png,images/complex/2.png,images/complex/14.png,images/complex/15.png,images/complex/4.png","1","null","","200","537.7900000000373","","","","background","",""
"","null","html-keyboard-response","134","222837","0.0-17.0-0.10","SS1604513363507","","null","","","","","","","","","","","","<img src=images/blank.png width =""500"" height = ""500"" style=""border:5px solid black"">","","",""
"","494.93499999970663","stimulus-presentation","135","223543","0.0-17.0-1.10","SS1604513363507","<img src='images/complex/11.png' width ='500' height = '500' style='border:5px solid black'>","40","all_complex","images/complex/9.png","images/complex/11.png","images/complex/1.png,images/complex/13.png,images/complex/6.png,images/complex/2.png,images/complex/14.png,images/complex/15.png,images/complex/4.png","1","null","","200","694.9349999997066","","","","background","",""
"","null","html-keyboard-response","136","224776","0.0-17.0-0.11","SS1604513363507","","null","","","","","","","","","","","","<img src=images/blank.png width =""500"" height = ""500"" style=""border:5px solid black"">","","",""
"","937.4100000000035","stimulus-presentation","137","225935","0.0-17.0-1.11","SS1604513363507","<img src='images/complex/11.png' width ='500' height = '500' style='border:5px solid black'>","40","all_complex","images/complex/9.png","images/complex/11.png","images/complex/1.png,images/complex/13.png,images/complex/6.png,images/complex/2.png,images/complex/14.png,images/complex/15.png,images/complex/4.png","1","null","","200","1137.4100000000035","","","","background","",""
"","null","html-keyboard-response","138","227199","0.0-17.0-0.12","SS1604513363507","","null","","","","","","","","","","","","<img src=images/blank.png width =""500"" height = ""500"" style=""border:5px solid black"">","","",""
"","534.7700000002224","stimulus-presentation","139","227951","0.0-17.0-1.12","SS1604513363507","<img src='images/complex/11.png' width ='500' height = '500' style='border:5px solid black'>","40","all_complex","images/complex/9.png","images/complex/11.png","images/complex/1.png,images/complex/13.png,images/complex/6.png,images/complex/2.png,images/complex/14.png,images/complex/15.png,images/complex/4.png","1","null","","200","734.7700000002224","","","","background","",""
"","null","html-keyboard-response","140","228855","0.0-17.0-0.13","SS1604513363507","","null","","","","","","","","","","","","<img src=images/blank.png width =""500"" height = ""500"" style=""border:5px solid black"">","","",""
"","566.4099999998871","stimulus-presentation","141","229631","0.0-17.0-1.13","SS1604513363507","<img src='images/complex/11.png' width ='500' height = '500' style='border:5px solid black'>","40","all_complex","images/complex/9.png","images/complex/11.png","images/complex/1.png,images/complex/13.png,images/complex/6.png,images/complex/2.png,images/complex/14.png,images/complex/15.png,images/complex/4.png","1","null","","200","766.4099999998871","","","","background","",""
"","null","html-keyboard-response","142","230868","0.0-17.0-0.14","SS1604513363507","","null","","","","","","","","","","","","<img src=images/blank.png width =""500"" height = ""500"" style=""border:5px solid black"">","","",""
"","468.42500000004657","stimulus-presentation","143","231551","0.0-17.0-1.14","SS1604513363507","<img src='images/complex/2.png' width ='500' height = '500' style='border:5px solid black'>","40","all_complex","images/complex/9.png","images/complex/11.png","images/complex/1.png,images/complex/13.png,images/complex/6.png,images/complex/2.png,images/complex/14.png,images/complex/15.png,images/complex/4.png","1","null","","200","668.4250000000466","","","","deviant","",""
"","null","html-keyboard-response","144","232700","0.0-17.0-0.15","SS1604513363507","","null","","","","","","","","","","","","<img src=images/blank.png width =""500"" height = ""500"" style=""border:5px solid black"">","","",""
"","342.22000000000116","stimulus-presentation","145","233257","0.0-17.0-1.15","SS1604513363507","<img src='images/complex/11.png' width ='500' height = '500' style='border:5px solid black'>","40","all_complex","images/complex/9.png","images/complex/11.png","images/complex/1.png,images/complex/13.png,images/complex/6.png,images/complex/2.png,images/complex/14.png,images/complex/15.png,images/complex/4.png","1","null","","200","542.2200000000012","","","","background","",""
"","null","html-keyboard-response","146","234245","0.0-17.0-0.16","SS1604513363507","","null","","","","","","","","","","","","<img src=images/blank.png width =""500"" height = ""500"" style=""border:5px solid black"">","","",""
"","218.46999999979744","stimulus-presentation","147","234679","0.0-17.0-1.16","SS1604513363507","<img src='images/complex/11.png' width ='500' height = '500' style='border:5px solid black'>","40","all_complex","images/complex/9.png","images/complex/11.png","images/complex/1.png,images/complex/13.png,images/complex/6.png,images/complex/2.png,images/complex/14.png,images/complex/15.png,images/complex/4.png","1","null","","200","418.46999999979744","","","","background","",""
"","null","html-keyboard-response","148","235559","0.0-17.0-0.17","SS1604513363507","","null","","","","","","","","","","","","<img src=images/blank.png width =""500"" height = ""500"" style=""border:5px solid black"">","","",""
"","274.0549999998766","stimulus-presentation","149","236055","0.0-17.0-1.17","SS1604513363507","<img src='images/complex/11.png' width ='500' height = '500' style='border:5px solid black'>","40","all_complex","images/complex/9.png","images/complex/11.png","images/complex/1.png,images/complex/13.png,images/complex/6.png,images/complex/2.png,images/complex/14.png,images/complex/15.png,images/complex/4.png","1","null","","200","474.0549999998766","","","","background","",""
"","null","html-keyboard-response","150","236925","0.0-17.0-0.18","SS1604513363507","","null","","","","","","","","","","","","<img src=images/blank.png width =""500"" height = ""500"" style=""border:5px solid black"">","","",""
"","287.6150000001944","stimulus-presentation","151","237423","0.0-17.0-1.18","SS1604513363507","<img src='images/complex/11.png' width ='500' height = '500' style='border:5px solid black'>","40","all_complex","images/complex/9.png","images/complex/11.png","images/complex/1.png,images/complex/13.png,images/complex/6.png,images/complex/2.png,images/complex/14.png,images/complex/15.png,images/complex/4.png","1","null","","200","487.6150000001944","","","","background","",""
"","null","html-keyboard-response","152","238704","0.0-17.0-0.19","SS1604513363507","","null","","","","","","","","","","","","<img src=images/blank.png width =""500"" height = ""500"" style=""border:5px solid black"">","","",""
"","307.32999999966705","stimulus-presentation","153","239222","0.0-17.0-1.19","SS1604513363507","<img src='images/complex/11.png' width ='500' height = '500' style='border:5px solid black'>","40","all_complex","images/complex/9.png","images/complex/11.png","images/complex/1.png,images/complex/13.png,images/complex/6.png,images/complex/2.png,images/complex/14.png,images/complex/15.png,images/complex/4.png","1","null","","200","507.32999999966705","","","","background","",""
"","null","html-keyboard-response","154","240390","0.0-17.0-0.20","SS1604513363507","","null","","","","","","","","","","","","<img src=images/blank.png width =""500"" height = ""500"" style=""border:5px solid black"">","","",""
"","399.06500000006054","stimulus-presentation","155","240999","0.0-17.0-1.20","SS1604513363507","<img src='images/complex/11.png' width ='500' height = '500' style='border:5px solid black'>","40","all_complex","images/complex/9.png","images/complex/11.png","images/complex/1.png,images/complex/13.png,images/complex/6.png,images/complex/2.png,images/complex/14.png,images/complex/15.png,images/complex/4.png","1","null","","200","599.0650000000605","","","","background","",""
"","null","html-keyboard-response","156","242186","0.0-17.0-0.21","SS1604513363507","","null","","","","","","","","","","","","<img src=images/blank.png width =""500"" height = ""500"" style=""border:5px solid black"">","","",""
"","337.34499999991385","stimulus-presentation","157","242734","0.0-17.0-1.21","SS1604513363507","<img src='images/complex/11.png' width ='500' height = '500' style='border:5px solid black'>","40","all_complex","images/complex/9.png","images/complex/11.png","images/complex/1.png,images/complex/13.png,images/complex/6.png,images/complex/2.png,images/complex/14.png,images/complex/15.png,images/complex/4.png","1","null","","200","537.3449999999139","","","","background","",""
"","null","html-keyboard-response","158","243833","0.0-17.0-0.22","SS1604513363507","","null","","","","","","","","","","","","<img src=images/blank.png width =""500"" height = ""500"" style=""border:5px solid black"">","","",""
"","2127.6800000000803","stimulus-presentation","159","246175","0.0-17.0-1.22","SS1604513363507","<img src='images/complex/9.png' width ='500' height = '500' style='border:5px solid black'>","40","all_complex","images/complex/9.png","images/complex/11.png","images/complex/1.png,images/complex/13.png,images/complex/6.png,images/complex/2.png,images/complex/14.png,images/complex/15.png,images/complex/4.png","1","null","","200","2327.6800000000803","yes","640.45500000022","","target","",""
"","null","html-keyboard-response","160","247092","0.0-17.0-0.23","SS1604513363507","","null","","","","","","","","","","","","<img src=images/blank.png width =""500"" height = ""500"" style=""border:5px solid black"">","","",""
"","696.5949999998847","stimulus-presentation","161","247999","0.0-17.0-1.23","SS1604513363507","<img src='images/complex/11.png' width ='500' height = '500' style='border:5px solid black'>","40","all_complex","images/complex/9.png","images/complex/11.png","images/complex/1.png,images/complex/13.png,images/complex/6.png,images/complex/2.png,images/complex/14.png,images/complex/15.png,images/complex/4.png","1","null","","200","896.5949999998847","","","","background","",""
"","null","html-keyboard-response","162","248967","0.0-17.0-0.24","SS1604513363507","","null","","","","","","","","","","","","<img src=images/blank.png width =""500"" height = ""500"" style=""border:5px solid black"">","","",""
"","3468.5249999997613","stimulus-presentation","163","252646","0.0-17.0-1.24","SS1604513363507","<img src='images/complex/9.png' width ='500' height = '500' style='border:5px solid black'>","40","all_complex","images/complex/9.png","images/complex/11.png","images/complex/1.png,images/complex/13.png,images/complex/6.png,images/complex/2.png,images/complex/14.png,images/complex/15.png,images/complex/4.png","1","null","","200","3668.5249999997613","yes","787.8249999998952","","target","",""
"","null","html-keyboard-response","164","253768","0.0-17.0-0.25","SS1604513363507","","null","","","","","","","","","","","","<img src=images/blank.png width =""500"" height = ""500"" style=""border:5px solid black"">","","",""
"","220.80999999982305","stimulus-presentation","165","254206","0.0-17.0-1.25","SS1604513363507","<img src='images/complex/13.png' width ='500' height = '500' style='border:5px solid black'>","40","all_complex","images/complex/9.png","images/complex/11.png","images/complex/1.png,images/complex/13.png,images/complex/6.png,images/complex/2.png,images/complex/14.png,images/complex/15.png,images/complex/4.png","1","null","","200","420.80999999982305","","","","deviant","",""
"","null","html-keyboard-response","166","255062","0.0-17.0-0.26","SS1604513363507","","null","","","","","","","","","","","","<img src=images/blank.png width =""500"" height = ""500"" style=""border:5px solid black"">","","",""
"","381.8000000001048","stimulus-presentation","167","255656","0.0-17.0-1.26","SS1604513363507","<img src='images/complex/11.png' width ='500' height = '500' style='border:5px solid black'>","40","all_complex","images/complex/9.png","images/complex/11.png","images/complex/1.png,images/complex/13.png,images/complex/6.png,images/complex/2.png,images/complex/14.png,images/complex/15.png,images/complex/4.png","1","null","","200","581.8000000001048","","","","background","",""
"","null","html-keyboard-response","168","256548","0.0-17.0-0.27","SS1604513363507","","null","","","","","","","","","","","","<img src=images/blank.png width =""500"" height = ""500"" style=""border:5px solid black"">","","",""
"","1123.2249999998603","stimulus-presentation","169","257886","0.0-17.0-1.27","SS1604513363507","<img src='images/complex/11.png' width ='500' height = '500' style='border:5px solid black'>","40","all_complex","images/complex/9.png","images/complex/11.png","images/complex/1.png,images/complex/13.png,images/complex/6.png,images/complex/2.png,images/complex/14.png,images/complex/15.png,images/complex/4.png","1","null","","200","1323.2249999998603","","","","background","",""
"","null","html-keyboard-response","170","259105","0.0-17.0-0.28","SS1604513363507","","null","","","","","","","","","","","","<img src=images/blank.png width =""500"" height = ""500"" style=""border:5px solid black"">","","",""
"","3319.6100000000442","stimulus-presentation","171","262639","0.0-17.0-1.28","SS1604513363507","<img src='images/complex/9.png' width ='500' height = '500' style='border:5px solid black'>","40","all_complex","images/complex/9.png","images/complex/11.png","images/complex/1.png,images/complex/13.png,images/complex/6.png,images/complex/2.png,images/complex/14.png,images/complex/15.png,images/complex/4.png","1","null","","200","3519.6100000000442","yes","590.6900000000023","","target","",""
"","null","html-keyboard-response","172","263817","0.0-17.0-0.29","SS1604513363507","","null","","","","","","","","","","","","<img src=images/blank.png width =""500"" height = ""500"" style=""border:5px solid black"">","","",""
"","4730.155000000203","stimulus-presentation","173","268760","0.0-17.0-1.29","SS1604513363507","<img src='images/complex/11.png' width ='500' height = '500' style='border:5px solid black'>","40","all_complex","images/complex/9.png","images/complex/11.png","images/complex/1.png,images/complex/13.png,images/complex/6.png,images/complex/2.png,images/complex/14.png,images/complex/15.png,images/complex/4.png","1","null","","200","4930.155000000203","","","","background","",""
"","null","html-keyboard-response","174","269925","0.0-17.0-0.30","SS1604513363507","","null","","","","","","","","","","","","<img src=images/blank.png width =""500"" height = ""500"" style=""border:5px solid black"">","","",""
"","274.36499999975786","stimulus-presentation","175","270415","0.0-17.0-1.30","SS1604513363507","<img src='images/complex/11.png' width ='500' height = '500' style='border:5px solid black'>","40","all_complex","images/complex/9.png","images/complex/11.png","images/complex/1.png,images/complex/13.png,images/complex/6.png,images/complex/2.png,images/complex/14.png,images/complex/15.png,images/complex/4.png","1","null","","200","474.36499999975786","","","","background","",""
"","null","html-keyboard-response","176","271703","0.0-17.0-0.31","SS1604513363507","","null","","","","","","","","","","","","<img src=images/blank.png width =""500"" height = ""500"" style=""border:5px solid black"">","","",""
"","295.70999999984633","stimulus-presentation","177","272215","0.0-17.0-1.31","SS1604513363507","<img src='images/complex/11.png' width ='500' height = '500' style='border:5px solid black'>","40","all_complex","images/complex/9.png","images/complex/11.png","images/complex/1.png,images/complex/13.png,images/complex/6.png,images/complex/2.png,images/complex/14.png,images/complex/15.png,images/complex/4.png","1","null","","200","495.70999999984633","","","","background","",""
"","null","html-keyboard-response","178","273296","0.0-17.0-0.32","SS1604513363507","","null","","","","","","","","","","","","<img src=images/blank.png width =""500"" height = ""500"" style=""border:5px solid black"">","","",""
"","244.1349999998929","stimulus-presentation","179","273750","0.0-17.0-1.32","SS1604513363507","<img src='images/complex/14.png' width ='500' height = '500' style='border:5px solid black'>","40","all_complex","images/complex/9.png","images/complex/11.png","images/complex/1.png,images/complex/13.png,images/complex/6.png,images/complex/2.png,images/complex/14.png,images/complex/15.png,images/complex/4.png","1","null","","200","444.1349999998929","","","","deviant","",""
"","null","html-keyboard-response","180","274625","0.0-17.0-0.33","SS1604513363507","","null","","","","","","","","","","","","<img src=images/blank.png width =""500"" height = ""500"" style=""border:5px solid black"">","","",""
"","404.4150000004447","stimulus-presentation","181","275247","0.0-17.0-1.33","SS1604513363507","<img src='images/complex/11.png' width ='500' height = '500' style='border:5px solid black'>","40","all_complex","images/complex/9.png","images/complex/11.png","images/complex/1.png,images/complex/13.png,images/complex/6.png,images/complex/2.png,images/complex/14.png,images/complex/15.png,images/complex/4.png","1","null","","200","604.4150000004447","","","","background","",""
"","null","html-keyboard-response","182","276305","0.0-17.0-0.34","SS1604513363507","","null","","","","","","","","","","","","<img src=images/blank.png width =""500"" height = ""500"" style=""border:5px solid black"">","","",""
"","206.28000000031898","stimulus-presentation","183","276726","0.0-17.0-1.34","SS1604513363507","<img src='images/complex/11.png' width ='500' height = '500' style='border:5px solid black'>","40","all_complex","images/complex/9.png","images/complex/11.png","images/complex/1.png,images/complex/13.png,images/complex/6.png,images/complex/2.png,images/complex/14.png,images/complex/15.png,images/complex/4.png","1","null","","200","406.280000000319","","","","background","",""
"","null","html-keyboard-response","184","277705","0.0-17.0-0.35","SS1604513363507","","null","","","","","","","","","","","","<img src=images/blank.png width =""500"" height = ""500"" style=""border:5px solid black"">","","",""
"","166.31000000005588","stimulus-presentation","185","278086","0.0-17.0-1.35","SS1604513363507","<img src='images/complex/11.png' width ='500' height = '500' style='border:5px solid black'>","40","all_complex","images/complex/9.png","images/complex/11.png","images/complex/1.png,images/complex/13.png,images/complex/6.png,images/complex/2.png,images/complex/14.png,images/complex/15.png,images/complex/4.png","1","null","","200","366.3100000000559","","","","background","",""
"","null","html-keyboard-response","186","279359","0.0-17.0-0.36","SS1604513363507","","null","","","","","","","","","","","","<img src=images/blank.png width =""500"" height = ""500"" style=""border:5px solid black"">","","",""
"","3280.009999999951","stimulus-presentation","187","282853","0.0-17.0-1.36","SS1604513363507","<img src='images/complex/9.png' width ='500' height = '500' style='border:5px solid black'>","40","all_complex","images/complex/9.png","images/complex/11.png","images/complex/1.png,images/complex/13.png,images/complex/6.png,images/complex/2.png,images/complex/14.png,images/complex/15.png,images/complex/4.png","1","null","","200","3480.009999999951","yes","1520.6149999999325","","target","",""
"","null","html-keyboard-response","188","284072","0.0-17.0-0.37","SS1604513363507","","null","","","","","","","","","","","","<img src=images/blank.png width =""500"" height = ""500"" style=""border:5px solid black"">","","",""
"","389.6750000003376","stimulus-presentation","189","284677","0.0-17.0-1.37","SS1604513363507","<img src='images/complex/1.png' width ='500' height = '500' style='border:5px solid black'>","40","all_complex","images/complex/9.png","images/complex/11.png","images/complex/1.png,images/complex/13.png,images/complex/6.png,images/complex/2.png,images/complex/14.png,images/complex/15.png,images/complex/4.png","1","null","","200","589.6750000003376","","","","deviant","",""
"","null","html-keyboard-response","190","285937","0.0-17.0-0.38","SS1604513363507","","null","","","","","","","","","","","","<img src=images/blank.png width =""500"" height = ""500"" style=""border:5px solid black"">","","",""
"","3154.465000000084","stimulus-presentation","191","289308","0.0-17.0-1.38","SS1604513363507","<img src='images/complex/9.png' width ='500' height = '500' style='border:5px solid black'>","40","all_complex","images/complex/9.png","images/complex/11.png","images/complex/1.png,images/complex/13.png,images/complex/6.png,images/complex/2.png,images/complex/14.png,images/complex/15.png,images/complex/4.png","1","null","","200","3354.465000000084","yes","409.79999999993015","","target","",""
"","null","html-keyboard-response","192","290516","0.0-17.0-0.39","SS1604513363507","","null","","","","","","","","","","","","<img src=images/blank.png width =""500"" height = ""500"" style=""border:5px solid black"">","","",""
"","208.68500000005588","stimulus-presentation","193","290940","0.0-17.0-1.39","SS1604513363507","<img src='images/complex/11.png' width ='500' height = '500' style='border:5px solid black'>","40","all_complex","images/complex/9.png","images/complex/11.png","images/complex/1.png,images/complex/13.png,images/complex/6.png,images/complex/2.png,images/complex/14.png,images/complex/15.png,images/complex/4.png","1","null","","200","408.6850000000559","","","","background","",""
"","null","html-keyboard-response","194","292156","0.0-17.0-0.40","SS1604513363507","","null","","","","","","","","","","","","<img src=images/blank.png width =""500"" height = ""500"" style=""border:5px solid black"">","","",""
"","313.63000000006286","stimulus-presentation","195","292686","0.0-17.0-1.40","SS1604513363507","<img src='images/complex/11.png' width ='500' height = '500' style='border:5px solid black'>","40","all_complex","images/complex/9.png","images/complex/11.png","images/complex/1.png,images/complex/13.png,images/complex/6.png,images/complex/2.png,images/complex/14.png,images/complex/15.png,images/complex/4.png","1","null","","200","513.6300000000629","","","","background","",""
"","null","html-keyboard-response","196","293517","0.0-17.0-0.41","SS1604513363507","","null","","","","","","","","","","","","<img src=images/blank.png width =""500"" height = ""500"" style=""border:5px solid black"">","","",""
"","449.59500000003027","stimulus-presentation","197","294188","0.0-17.0-1.41","SS1604513363507","<img src='images/complex/6.png' width ='500' height = '500' style='border:5px solid black'>","40","all_complex","images/complex/9.png","images/complex/11.png","images/complex/1.png,images/complex/13.png,images/complex/6.png,images/complex/2.png,images/complex/14.png,images/complex/15.png,images/complex/4.png","1","null","","200","649.5950000000303","","","","deviant","",""
"","null","html-keyboard-response","198","295006","0.0-17.0-0.42","SS1604513363507","","null","","","","","","","","","","","","<img src=images/blank.png width =""500"" height = ""500"" style=""border:5px solid black"">","","",""
"","1470.5549999998766","stimulus-presentation","199","296692","0.0-17.0-1.42","SS1604513363507","<img src='images/complex/9.png' width ='500' height = '500' style='border:5px solid black'>","40","all_complex","images/complex/9.png","images/complex/11.png","images/complex/1.png,images/complex/13.png,images/complex/6.png,images/complex/2.png,images/complex/14.png,images/complex/15.png,images/complex/4.png","1","null","","200","1670.5549999998766","yes","581.570000000298","","target","",""
"","null","html-keyboard-response","200","297618","0.0-17.0-0.43","SS1604513363507","","null","","","","","","","","","","","","<img src=images/blank.png width =""500"" height = ""500"" style=""border:5px solid black"">","","",""
"","258.6799999999348","stimulus-presentation","201","298092","0.0-17.0-1.43","SS1604513363507","<img src='images/complex/11.png' width ='500' height = '500' style='border:5px solid black'>","40","all_complex","images/complex/9.png","images/complex/11.png","images/complex/1.png,images/complex/13.png,images/complex/6.png,images/complex/2.png,images/complex/14.png,images/complex/15.png,images/complex/4.png","1","null","","200","458.6799999999348","","","","background","",""
"","null","html-keyboard-response","202","299028","0.0-17.0-0.44","SS1604513363507","","null","","","","","","","","","","","","<img src=images/blank.png width =""500"" height = ""500"" style=""border:5px solid black"">","","",""
"","1320.1599999997416","stimulus-presentation","203","300564","0.0-17.0-1.44","SS1604513363507","<img src='images/complex/9.png' width ='500' height = '500' style='border:5px solid black'>","40","all_complex","images/complex/9.png","images/complex/11.png","images/complex/1.png,images/complex/13.png,images/complex/6.png,images/complex/2.png,images/complex/14.png,images/complex/15.png,images/complex/4.png","1","null","","200","1520.1599999997416","yes","479.47999999992317","","target","",""
"","null","html-keyboard-response","204","301550","0.0-17.0-0.45","SS1604513363507","","null","","","","","","","","","","","","<img src=images/blank.png width =""500"" height = ""500"" style=""border:5px solid black"">","","",""
"","224.210000000312","stimulus-presentation","205","301996","0.0-17.0-1.45","SS1604513363507","<img src='images/complex/11.png' width ='500' height = '500' style='border:5px solid black'>","40","all_complex","images/complex/9.png","images/complex/11.png","images/complex/1.png,images/complex/13.png,images/complex/6.png,images/complex/2.png,images/complex/14.png,images/complex/15.png,images/complex/4.png","1","null","","200","424.210000000312","","","","background","",""
"","null","html-keyboard-response","206","303084","0.0-17.0-0.46","SS1604513363507","","null","","","","","","","","","","","","<img src=images/blank.png width =""500"" height = ""500"" style=""border:5px solid black"">","","",""
"","289.36000000016065","stimulus-presentation","207","303590","0.0-17.0-1.46","SS1604513363507","<img src='images/complex/11.png' width ='500' height = '500' style='border:5px solid black'>","40","all_complex","images/complex/9.png","images/complex/11.png","images/complex/1.png,images/complex/13.png,images/complex/6.png,images/complex/2.png,images/complex/14.png,images/complex/15.png,images/complex/4.png","1","null","","200","489.36000000016065","","","","background","",""
"","null","html-keyboard-response","208","304570","0.0-17.0-0.47","SS1604513363507","","null","","","","","","","","","","","","<img src=images/blank.png width =""500"" height = ""500"" style=""border:5px solid black"">","","",""
"","403.0549999997602","stimulus-presentation","209","305188","0.0-17.0-1.47","SS1604513363507","<img src='images/complex/11.png' width ='500' height = '500' style='border:5px solid black'>","40","all_complex","images/complex/9.png","images/complex/11.png","images/complex/1.png,images/complex/13.png,images/complex/6.png,images/complex/2.png,images/complex/14.png,images/complex/15.png,images/complex/4.png","1","null","","200","603.0549999997602","","","","background","",""
"","null","html-keyboard-response","210","306408","0.0-17.0-0.48","SS1604513363507","","null","","","","","","","","","","","","<img src=images/blank.png width =""500"" height = ""500"" style=""border:5px solid black"">","","",""
"","254.9049999997951","stimulus-presentation","211","306876","0.0-17.0-1.48","SS1604513363507","<img src='images/complex/11.png' width ='500' height = '500' style='border:5px solid black'>","40","all_complex","images/complex/9.png","images/complex/11.png","images/complex/1.png,images/complex/13.png,images/complex/6.png,images/complex/2.png,images/complex/14.png,images/complex/15.png,images/complex/4.png","1","null","","200","454.9049999997951","","","","background","",""
"[{""page_index"":0,""viewing_time"":2498}]","2498","task-instructions","212","309384","0.0-18.0","SS1604513363507","","","","","","","","","","","","","","","","",""
"[{""page_index"":0,""viewing_time"":1755.0000000001164},{""page_index"":1,""viewing_time"":3775.4099999997416},{""page_index"":2,""viewing_time"":1391.8450000000885}]","6923.064999999944","instructions","213","316318","0.0-19.0","SS1604513363507","","","","","","","","","","","","","","","","",""
"","null","html-keyboard-response","214","317571","0.0-20.0-0.0","SS1604513363507","","null","","","","","","","","","","","","<img src=images/blank.png width =""500"" height = ""500"" style=""border:5px solid black"">","","",""
"","1257.3200000001816","stimulus-presentation","215","319044","0.0-20.0-1.0","SS1604513363507","<img src='images/simple/5.png' width ='500' height = '500' style='border:5px solid black'>","40","all_simple","images/simple/10.png","images/simple/5.png","images/simple/14.png,images/simple/7.png,images/simple/16.png,images/simple/12.png,images/simple/4.png,images/simple/2.png,images/simple/1.png","2","null","","200","1457.3200000001816","","","","background","",""
"","null","html-keyboard-response","216","320240","0.0-20.0-0.1","SS1604513363507","","null","","","","","","","","","","","","<img src=images/blank.png width =""500"" height = ""500"" style=""border:5px solid black"">","","",""
"","301.5000000000582","stimulus-presentation","217","320772","0.0-20.0-1.1","SS1604513363507","<img src='images/simple/5.png' width ='500' height = '500' style='border:5px solid black'>","40","all_simple","images/simple/10.png","images/simple/5.png","images/simple/14.png,images/simple/7.png,images/simple/16.png,images/simple/12.png,images/simple/4.png,images/simple/2.png,images/simple/1.png","2","null","","200","501.5000000000582","","","","background","",""
"","null","html-keyboard-response","218","321674","0.0-20.0-0.2","SS1604513363507","","null","","","","","","","","","","","","<img src=images/blank.png width =""500"" height = ""500"" style=""border:5px solid black"">","","",""
"","430.8900000001304","stimulus-presentation","219","322332","0.0-20.0-1.2","SS1604513363507","<img src='images/simple/7.png' width ='500' height = '500' style='border:5px solid black'>","40","all_simple","images/simple/10.png","images/simple/5.png","images/simple/14.png,images/simple/7.png,images/simple/16.png,images/simple/12.png,images/simple/4.png,images/simple/2.png,images/simple/1.png","2","null","","200","630.8900000001304","","","","deviant","",""
"","null","html-keyboard-response","220","323312","0.0-20.0-0.3","SS1604513363507","","null","","","","","","","","","","","","<img src=images/blank.png width =""500"" height = ""500"" style=""border:5px solid black"">","","",""
"","285.2499999998836","stimulus-presentation","221","323820","0.0-20.0-1.3","SS1604513363507","<img src='images/simple/5.png' width ='500' height = '500' style='border:5px solid black'>","40","all_simple","images/simple/10.png","images/simple/5.png","images/simple/14.png,images/simple/7.png,images/simple/16.png,images/simple/12.png,images/simple/4.png,images/simple/2.png,images/simple/1.png","2","null","","200","485.2499999998836","","","","background","",""
"","null","html-keyboard-response","222","324830","0.0-20.0-0.4","SS1604513363507","","null","","","","","","","","","","","","<img src=images/blank.png width =""500"" height = ""500"" style=""border:5px solid black"">","","",""
"","2965.8899999998976","stimulus-presentation","223","328012","0.0-20.0-1.4","SS1604513363507","<img src='images/simple/10.png' width ='500' height = '500' style='border:5px solid black'>","40","all_simple","images/simple/10.png","images/simple/5.png","images/simple/14.png,images/simple/7.png,images/simple/16.png,images/simple/12.png,images/simple/4.png,images/simple/2.png,images/simple/1.png","2","null","","200","3165.8899999998976","yes","270.66499999997905","","target","",""
"","null","html-keyboard-response","224","329296","0.0-20.0-0.5","SS1604513363507","","null","","","","","","","","","","","","<img src=images/blank.png width =""500"" height = ""500"" style=""border:5px solid black"">","","",""
"","197.7600000000093","stimulus-presentation","225","329716","0.0-20.0-1.5","SS1604513363507","<img src='images/simple/5.png' width ='500' height = '500' style='border:5px solid black'>","40","all_simple","images/simple/10.png","images/simple/5.png","images/simple/14.png,images/simple/7.png,images/simple/16.png,images/simple/12.png,images/simple/4.png,images/simple/2.png,images/simple/1.png","2","null","","200","397.7600000000093","","","","background","",""
"","null","html-keyboard-response","226","330748","0.0-20.0-0.6","SS1604513363507","","null","","","","","","","","","","","","<img src=images/blank.png width =""500"" height = ""500"" style=""border:5px solid black"">","","",""
"","282.55500000028405","stimulus-presentation","227","331253","0.0-20.0-1.6","SS1604513363507","<img src='images/simple/5.png' width ='500' height = '500' style='border:5px solid black'>","40","all_simple","images/simple/10.png","images/simple/5.png","images/simple/14.png,images/simple/7.png,images/simple/16.png,images/simple/12.png,images/simple/4.png,images/simple/2.png,images/simple/1.png","2","null","","200","482.55500000028405","","","","background","",""
"","null","html-keyboard-response","228","332236","0.0-20.0-0.7","SS1604513363507","","null","","","","","","","","","","","","<img src=images/blank.png width =""500"" height = ""500"" style=""border:5px solid black"">","","",""
"","230.3699999997625","stimulus-presentation","229","332692","0.0-20.0-1.7","SS1604513363507","<img src='images/simple/5.png' width ='500' height = '500' style='border:5px solid black'>","40","all_simple","images/simple/10.png","images/simple/5.png","images/simple/14.png,images/simple/7.png,images/simple/16.png,images/simple/12.png,images/simple/4.png,images/simple/2.png,images/simple/1.png","2","null","","200","430.3699999997625","","","","background","",""
"","null","html-keyboard-response","230","333586","0.0-20.0-0.8","SS1604513363507","","null","","","","","","","","","","","","<img src=images/blank.png width =""500"" height = ""500"" style=""border:5px solid black"">","","",""
"","241.95000000006985","stimulus-presentation","231","334044","0.0-20.0-1.8","SS1604513363507","<img src='images/simple/5.png' width ='500' height = '500' style='border:5px solid black'>","40","all_simple","images/simple/10.png","images/simple/5.png","images/simple/14.png,images/simple/7.png,images/simple/16.png,images/simple/12.png,images/simple/4.png,images/simple/2.png,images/simple/1.png","2","null","","200","441.95000000006985","","","","background","",""
"","null","html-keyboard-response","232","335187","0.0-20.0-0.9","SS1604513363507","","null","","","","","","","","","","","","<img src=images/blank.png width =""500"" height = ""500"" style=""border:5px solid black"">","","",""
"","137.3850000000093","stimulus-presentation","233","335542","0.0-20.0-1.9","SS1604513363507","<img src='images/simple/5.png' width ='500' height = '500' style='border:5px solid black'>","40","all_simple","images/simple/10.png","images/simple/5.png","images/simple/14.png,images/simple/7.png,images/simple/16.png,images/simple/12.png,images/simple/4.png,images/simple/2.png,images/simple/1.png","2","null","","200","337.3850000000093","","","","background","",""
"","null","html-keyboard-response","234","336356","0.0-20.0-0.10","SS1604513363507","","null","","","","","","","","","","","","<img src=images/blank.png width =""500"" height = ""500"" style=""border:5px solid black"">","","",""
"","384.75500000000466","stimulus-presentation","235","336956","0.0-20.0-1.10","SS1604513363507","<img src='images/simple/1.png' width ='500' height = '500' style='border:5px solid black'>","40","all_simple","images/simple/10.png","images/simple/5.png","images/simple/14.png,images/simple/7.png,images/simple/16.png,images/simple/12.png,images/simple/4.png,images/simple/2.png,images/simple/1.png","2","null","","200","584.7550000000047","","","","deviant","",""
"","null","html-keyboard-response","236","337895","0.0-20.0-0.11","SS1604513363507","","null","","","","","","","","","","","","<img src=images/blank.png width =""500"" height = ""500"" style=""border:5px solid black"">","","",""
"","285.49500000005355","stimulus-presentation","237","338404","0.0-20.0-1.11","SS1604513363507","<img src='images/simple/5.png' width ='500' height = '500' style='border:5px solid black'>","40","all_simple","images/simple/10.png","images/simple/5.png","images/simple/14.png,images/simple/7.png,images/simple/16.png,images/simple/12.png,images/simple/4.png,images/simple/2.png,images/simple/1.png","2","null","","200","485.49500000005355","","","","background","",""
"","null","html-keyboard-response","238","339528","0.0-20.0-0.12","SS1604513363507","","null","","","","","","","","","","","","<img src=images/blank.png width =""500"" height = ""500"" style=""border:5px solid black"">","","",""
"","284.9200000000419","stimulus-presentation","239","340036","0.0-20.0-1.12","SS1604513363507","<img src='images/simple/5.png' width ='500' height = '500' style='border:5px solid black'>","40","all_simple","images/simple/10.png","images/simple/5.png","images/simple/14.png,images/simple/7.png,images/simple/16.png,images/simple/12.png,images/simple/4.png,images/simple/2.png,images/simple/1.png","2","null","","200","484.9200000000419","","","","background","",""
"","null","html-keyboard-response","240","340946","0.0-20.0-0.13","SS1604513363507","","null","","","","","","","","","","","","<img src=images/blank.png width =""500"" height = ""500"" style=""border:5px solid black"">","","",""
"","312.84499999991385","stimulus-presentation","241","341491","0.0-20.0-1.13","SS1604513363507","<img src='images/simple/5.png' width ='500' height = '500' style='border:5px solid black'>","40","all_simple","images/simple/10.png","images/simple/5.png","images/simple/14.png,images/simple/7.png,images/simple/16.png,images/simple/12.png,images/simple/4.png,images/simple/2.png,images/simple/1.png","2","null","","200","512.8449999999139","","","","background","",""
"","null","html-keyboard-response","242","342375","0.0-20.0-0.14","SS1604513363507","","null","","","","","","","","","","","","<img src=images/blank.png width =""500"" height = ""500"" style=""border:5px solid black"">","","",""
"","267.6150000001653","stimulus-presentation","243","342859","0.0-20.0-1.14","SS1604513363507","<img src='images/simple/5.png' width ='500' height = '500' style='border:5px solid black'>","40","all_simple","images/simple/10.png","images/simple/5.png","images/simple/14.png,images/simple/7.png,images/simple/16.png,images/simple/12.png,images/simple/4.png,images/simple/2.png,images/simple/1.png","2","null","","200","467.6150000001653","","","","background","",""
"","null","html-keyboard-response","244","343819","0.0-20.0-0.15","SS1604513363507","","null","","","","","","","","","","","","<img src=images/blank.png width =""500"" height = ""500"" style=""border:5px solid black"">","","",""
"","3446.3500000001513","stimulus-presentation","245","347491","0.0-20.0-1.15","SS1604513363507","<img src='images/simple/10.png' width ='500' height = '500' style='border:5px solid black'>","40","all_simple","images/simple/10.png","images/simple/5.png","images/simple/14.png,images/simple/7.png,images/simple/16.png,images/simple/12.png,images/simple/4.png,images/simple/2.png,images/simple/1.png","2","null","","200","3646.3500000001513","yes","622.4700000002631","","target","",""
"","null","html-keyboard-response","246","348355","0.0-20.0-0.16","SS1604513363507","","null","","","","","","","","","","","","<img src=images/blank.png width =""500"" height = ""500"" style=""border:5px solid black"">","","",""
"","216.32999999978347","stimulus-presentation","247","348787","0.0-20.0-1.16","SS1604513363507","<img src='images/simple/5.png' width ='500' height = '500' style='border:5px solid black'>","40","all_simple","images/simple/10.png","images/simple/5.png","images/simple/14.png,images/simple/7.png,images/simple/16.png,images/simple/12.png,images/simple/4.png,images/simple/2.png,images/simple/1.png","2","null","","200","416.32999999978347","","","","background","",""
"","null","html-keyboard-response","248","349896","0.0-20.0-0.17","SS1604513363507","","null","","","","","","","","","","","","<img src=images/blank.png width =""500"" height = ""500"" style=""border:5px solid black"">","","",""
"","178.35000000015134","stimulus-presentation","249","350291","0.0-20.0-1.17","SS1604513363507","<img src='images/simple/5.png' width ='500' height = '500' style='border:5px solid black'>","40","all_simple","images/simple/10.png","images/simple/5.png","images/simple/14.png,images/simple/7.png,images/simple/16.png,images/simple/12.png,images/simple/4.png,images/simple/2.png,images/simple/1.png","2","null","","200","378.35000000015134","","","","background","",""
"","null","html-keyboard-response","250","351425","0.0-20.0-0.18","SS1604513363507","","null","","","","","","","","","","","","<img src=images/blank.png width =""500"" height = ""500"" style=""border:5px solid black"">","","",""
"","1008.8650000002235","stimulus-presentation","251","352651","0.0-20.0-1.18","SS1604513363507","<img src='images/simple/5.png' width ='500' height = '500' style='border:5px solid black'>","40","all_simple","images/simple/10.png","images/simple/5.png","images/simple/14.png,images/simple/7.png,images/simple/16.png,images/simple/12.png,images/simple/4.png,images/simple/2.png,images/simple/1.png","2","null","","200","1208.8650000002235","","","","background","",""
"","null","html-keyboard-response","252","353647","0.0-20.0-0.19","SS1604513363507","","null","","","","","","","","","","","","<img src=images/blank.png width =""500"" height = ""500"" style=""border:5px solid black"">","","",""
"","703.5000000000582","stimulus-presentation","253","354571","0.0-20.0-1.19","SS1604513363507","<img src='images/simple/4.png' width ='500' height = '500' style='border:5px solid black'>","40","all_simple","images/simple/10.png","images/simple/5.png","images/simple/14.png,images/simple/7.png,images/simple/16.png,images/simple/12.png,images/simple/4.png,images/simple/2.png,images/simple/1.png","2","null","","200","903.5000000000582","","","","deviant","",""
"","null","html-keyboard-response","254","355587","0.0-20.0-0.20","SS1604513363507","","null","","","","","","","","","","","","<img src=images/blank.png width =""500"" height = ""500"" style=""border:5px solid black"">","","",""
"","498.13500000024214","stimulus-presentation","255","356307","0.0-20.0-1.20","SS1604513363507","<img src='images/simple/5.png' width ='500' height = '500' style='border:5px solid black'>","40","all_simple","images/simple/10.png","images/simple/5.png","images/simple/14.png,images/simple/7.png,images/simple/16.png,images/simple/12.png,images/simple/4.png,images/simple/2.png,images/simple/1.png","2","null","","200","698.1350000002421","","","","background","",""
"","null","html-keyboard-response","256","357179","0.0-20.0-0.21","SS1604513363507","","null","","","","","","","","","","","","<img src=images/blank.png width =""500"" height = ""500"" style=""border:5px solid black"">","","",""
"","1991.0049999998882","stimulus-presentation","257","359387","0.0-20.0-1.21","SS1604513363507","<img src='images/simple/10.png' width ='500' height = '500' style='border:5px solid black'>","40","all_simple","images/simple/10.png","images/simple/5.png","images/simple/14.png,images/simple/7.png,images/simple/16.png,images/simple/12.png,images/simple/4.png,images/simple/2.png,images/simple/1.png","2","null","","200","2191.0049999998882","yes","423.8699999996461","","target","",""
"","null","html-keyboard-response","258","360249","0.0-20.0-0.22","SS1604513363507","","null","","","","","","","","","","","","<img src=images/blank.png width =""500"" height = ""500"" style=""border:5px solid black"">","","",""
"","360.7499999998254","stimulus-presentation","259","360836","0.0-20.0-1.22","SS1604513363507","<img src='images/simple/5.png' width ='500' height = '500' style='border:5px solid black'>","40","all_simple","images/simple/10.png","images/simple/5.png","images/simple/14.png,images/simple/7.png,images/simple/16.png,images/simple/12.png,images/simple/4.png,images/simple/2.png,images/simple/1.png","2","null","","200","560.7499999998254","","","","background","",""
"","null","html-keyboard-response","260","361965","0.0-20.0-0.23","SS1604513363507","","null","","","","","","","","","","","","<img src=images/blank.png width =""500"" height = ""500"" style=""border:5px solid black"">","","",""
"","298.8849999997183","stimulus-presentation","261","362491","0.0-20.0-1.23","SS1604513363507","<img src='images/simple/5.png' width ='500' height = '500' style='border:5px solid black'>","40","all_simple","images/simple/10.png","images/simple/5.png","images/simple/14.png,images/simple/7.png,images/simple/16.png,images/simple/12.png,images/simple/4.png,images/simple/2.png,images/simple/1.png","2","null","","200","498.8849999997183","","","","background","",""
"","null","html-keyboard-response","262","363520","0.0-20.0-0.24","SS1604513363507","","null","","","","","","","","","","","","<img src=images/blank.png width =""500"" height = ""500"" style=""border:5px solid black"">","","",""
"","252.37999999988824","stimulus-presentation","263","363995","0.0-20.0-1.24","SS1604513363507","<img src='images/simple/5.png' width ='500' height = '500' style='border:5px solid black'>","40","all_simple","images/simple/10.png","images/simple/5.png","images/simple/14.png,images/simple/7.png,images/simple/16.png,images/simple/12.png,images/simple/4.png,images/simple/2.png,images/simple/1.png","2","null","","200","452.37999999988824","","","","background","",""
"","null","html-keyboard-response","264","365216","0.0-20.0-0.25","SS1604513363507","","null","","","","","","","","","","","","<img src=images/blank.png width =""500"" height = ""500"" style=""border:5px solid black"">","","",""
"","481.29000000015367","stimulus-presentation","265","365923","0.0-20.0-1.25","SS1604513363507","<img src='images/simple/5.png' width ='500' height = '500' style='border:5px solid black'>","40","all_simple","images/simple/10.png","images/simple/5.png","images/simple/14.png,images/simple/7.png,images/simple/16.png,images/simple/12.png,images/simple/4.png,images/simple/2.png,images/simple/1.png","2","null","","200","681.2900000001537","","","","background","",""
"","null","html-keyboard-response","266","367143","0.0-20.0-0.26","SS1604513363507","","null","","","","","","","","","","","","<img src=images/blank.png width =""500"" height = ""500"" style=""border:5px solid black"">","","",""
"","402.3299999998999","stimulus-presentation","267","367763","0.0-20.0-1.26","SS1604513363507","<img src='images/simple/5.png' width ='500' height = '500' style='border:5px solid black'>","40","all_simple","images/simple/10.png","images/simple/5.png","images/simple/14.png,images/simple/7.png,images/simple/16.png,images/simple/12.png,images/simple/4.png,images/simple/2.png,images/simple/1.png","2","null","","200","602.3299999998999","","","","background","",""
"","null","html-keyboard-response","268","369018","0.0-20.0-0.27","SS1604513363507","","null","","","","","","","","","","","","<img src=images/blank.png width =""500"" height = ""500"" style=""border:5px solid black"">","","",""
"","731.1800000002258","stimulus-presentation","269","369965","0.0-20.0-1.27","SS1604513363507","<img src='images/simple/14.png' width ='500' height = '500' style='border:5px solid black'>","40","all_simple","images/simple/10.png","images/simple/5.png","images/simple/14.png,images/simple/7.png,images/simple/16.png,images/simple/12.png,images/simple/4.png,images/simple/2.png,images/simple/1.png","2","null","","200","931.1800000002258","","","","deviant","",""
"","null","html-keyboard-response","270","371081","0.0-20.0-0.28","SS1604513363507","","null","","","","","","","","","","","","<img src=images/blank.png width =""500"" height = ""500"" style=""border:5px solid black"">","","",""
"","405.8049999998766","stimulus-presentation","271","371715","0.0-20.0-1.28","SS1604513363507","<img src='images/simple/5.png' width ='500' height = '500' style='border:5px solid black'>","40","all_simple","images/simple/10.png","images/simple/5.png","images/simple/14.png,images/simple/7.png,images/simple/16.png,images/simple/12.png,images/simple/4.png,images/simple/2.png,images/simple/1.png","2","null","","200","605.8049999998766","","","","background","",""
"","null","html-keyboard-response","272","372648","0.0-20.0-0.29","SS1604513363507","","null","","","","","","","","","","","","<img src=images/blank.png width =""500"" height = ""500"" style=""border:5px solid black"">","","",""
"","3130.954999999609","stimulus-presentation","273","375995","0.0-20.0-1.29","SS1604513363507","<img src='images/simple/10.png' width ='500' height = '500' style='border:5px solid black'>","40","all_simple","images/simple/10.png","images/simple/5.png","images/simple/14.png,images/simple/7.png,images/simple/16.png,images/simple/12.png,images/simple/4.png,images/simple/2.png,images/simple/1.png","2","null","","200","3330.954999999609","yes","522.2599999997183","","target","",""
"","null","html-keyboard-response","274","377291","0.0-20.0-0.30","SS1604513363507","","null","","","","","","","","","","","","<img src=images/blank.png width =""500"" height = ""500"" style=""border:5px solid black"">","","",""
"","734.5400000003865","stimulus-presentation","275","378245","0.0-20.0-1.30","SS1604513363507","<img src='images/simple/12.png' width ='500' height = '500' style='border:5px solid black'>","40","all_simple","images/simple/10.png","images/simple/5.png","images/simple/14.png,images/simple/7.png,images/simple/16.png,images/simple/12.png,images/simple/4.png,images/simple/2.png,images/simple/1.png","2","null","","200","934.5400000003865","","","","deviant","",""
"","null","html-keyboard-response","276","379403","0.0-20.0-0.31","SS1604513363507","","null","","","","","","","","","","","","<img src=images/blank.png width =""500"" height = ""500"" style=""border:5px solid black"">","","",""
"","49.4049999997369","stimulus-presentation","277","379675","0.0-20.0-1.31","SS1604513363507","<img src='images/simple/5.png' width ='500' height = '500' style='border:5px solid black'>","40","all_simple","images/simple/10.png","images/simple/5.png","images/simple/14.png,images/simple/7.png,images/simple/16.png,images/simple/12.png,images/simple/4.png,images/simple/2.png,images/simple/1.png","2","null","","200","249.4049999997369","","","","background","",""
"","null","html-keyboard-response","278","380798","0.0-20.0-0.32","SS1604513363507","","null","","","","","","","","","","","","<img src=images/blank.png width =""500"" height = ""500"" style=""border:5px solid black"">","","",""
"","617.7700000002515","stimulus-presentation","279","381643","0.0-20.0-1.32","SS1604513363507","<img src='images/simple/5.png' width ='500' height = '500' style='border:5px solid black'>","40","all_simple","images/simple/10.png","images/simple/5.png","images/simple/14.png,images/simple/7.png,images/simple/16.png,images/simple/12.png,images/simple/4.png,images/simple/2.png,images/simple/1.png","2","null","","200","817.7700000002515","","","","background","",""
"","null","html-keyboard-response","280","382800","0.0-20.0-0.33","SS1604513363507","","null","","","","","","","","","","","","<img src=images/blank.png width =""500"" height = ""500"" style=""border:5px solid black"">","","",""
"","2498.8399999997346","stimulus-presentation","281","385514","0.0-20.0-1.33","SS1604513363507","<img src='images/simple/10.png' width ='500' height = '500' style='border:5px solid black'>","40","all_simple","images/simple/10.png","images/simple/5.png","images/simple/14.png,images/simple/7.png,images/simple/16.png,images/simple/12.png,images/simple/4.png,images/simple/2.png,images/simple/1.png","2","null","","200","2698.8399999997346","yes","474.2699999997276","","target","",""
"","null","html-keyboard-response","282","386375","0.0-20.0-0.34","SS1604513363507","","null","","","","","","","","","","","","<img src=images/blank.png width =""500"" height = ""500"" style=""border:5px solid black"">","","",""
"","436.74499999999534","stimulus-presentation","283","387027","0.0-20.0-1.34","SS1604513363507","<img src='images/simple/5.png' width ='500' height = '500' style='border:5px solid black'>","40","all_simple","images/simple/10.png","images/simple/5.png","images/simple/14.png,images/simple/7.png,images/simple/16.png,images/simple/12.png,images/simple/4.png,images/simple/2.png,images/simple/1.png","2","null","","200","636.7449999999953","","","","background","",""
"","null","html-keyboard-response","284","387990","0.0-20.0-0.35","SS1604513363507","","null","","","","","","","","","","","","<img src=images/blank.png width =""500"" height = ""500"" style=""border:5px solid black"">","","",""
