"view_history","rt","trial_type","trial_index","time_elapsed","internal_node_id","subject","trial_stimulus","key_press","task_type","task_target_stimulus","task_background_stimulus","task_deviant_stimuli","task_order_number","block_order_number","trial_order_number","minimum_viewing_duration","trial_looking_time","trial_pressed_space_bar","trial_space_bar_rt","stimulus","trial_stimulus_type","responses","question_order"
"[{""page_index"":0,""viewing_time"":6309.464999998454}]","6311.3199999934295","instructions","0","6355","0.0-0.0","SS1604590327829","","","","","","","","","","","","","","","","",""
"[{""page_index"":0,""viewing_time"":6417.164999998931},{""page_index"":1,""viewing_time"":4388.4000000034575},{""page_index"":2,""viewing_time"":9525.045000002137},{""page_index"":3,""viewing_time"":12140.344999999797},{""page_index"":4,""viewing_time"":5563.9699999956065},{""page_index"":5,""viewing_time"":8127.410000000964},{""page_index"":6,""viewing_time"":3328.235000000859},{""page_index"":7,""viewing_time"":8277.764999998908},{""page_index"":8,""viewing_time"":1780.6899999995949}]","59549.55500000506","instructions","1","65912","0.0-1.0","SS1604590327829","","","","","","","","","","","","","","","","",""
"[{""page_index"":0,""viewing_time"":2737.0999999984633},{""page_index"":1,""viewing_time"":7836.524999998801},{""page_index"":2,""viewing_time"":2469.875000002503}]","13044.060000000172","instructions","2","78959","0.0-2.0","SS1604590327829","","","","","","","","","","","","","","","","",""
"","2240.769999996701","practice-block","3","81408","0.0-3.0","SS1604590327829","<img src='images/practice/practice_background.jpeg' width ='500' height = '500' style='border:5px solid black'>","40","null","images/practice/practice_target.jpg","null","null","null","null","","200","2440.769999996701","","","","","",""
"","null","html-keyboard-response","4","82242","0.0-4.0","SS1604590327829","","null","","","","","","","","","","","","<img src=images/blank.png width =""500"" height = ""500"" style=""border:5px solid black"">","","",""
"","306.44500000198605","practice-block","5","82771","0.0-5.0","SS1604590327829","<img src='images/practice/practice_background.jpeg' width ='500' height = '500' style='border:5px solid black'>","40","null","images/practice/practice_target.jpg","null","null","null","null","","200","506.44500000198605","","","","","",""
"","null","html-keyboard-response","6","83920","0.0-6.0","SS1604590327829","","null","","","","","","","","","","","","<img src=images/blank.png width =""500"" height = ""500"" style=""border:5px solid black"">","","",""
"","373.74499999714317","practice-block","7","84505","0.0-7.0","SS1604590327829","<img src='images/practice/practice_deviant.jpeg' width ='500' height = '500' style='border:5px solid black'>","40","null","images/practice/practice_target.jpg","null","null","null","null","","200","573.7449999971432","","","","","",""
"","null","html-keyboard-response","8","85509","0.0-8.0","SS1604590327829","","null","","","","","","","","","","","","<img src=images/blank.png width =""500"" height = ""500"" style=""border:5px solid black"">","","",""
"","8491.859999994631","practice-block","9","94220","0.0-9.0-0.0","SS1604590327829","<img src='images/practice/practice_target.jpg' width ='500' height = '500' style='border:5px solid black'>","40","null","images/practice/practice_target.jpg","null","null","null","null","","200","8691.859999994631","yes","300.6549999990966","","","",""
"","null","html-keyboard-response","10","95086","0.0-10.0","SS1604590327829","","null","","","","","","","","","","","","<img src=images/blank.png width =""500"" height = ""500"" style=""border:5px solid black"">","","",""
"","691.595000003872","practice-block","11","95989","0.0-11.0","SS1604590327829","<img src='images/practice/practice_background.jpeg' width ='500' height = '500' style='border:5px solid black'>","40","null","images/practice/practice_target.jpg","null","null","null","null","","200","891.595000003872","","","","","",""
"[{""page_index"":0,""viewing_time"":2562}]","2563","task-instructions","12","98568","0.0-12.0","SS1604590327829","","","","","","","","","","","","","","","","",""
"[{""page_index"":0,""viewing_time"":12786.70499999862},{""page_index"":1,""viewing_time"":7537.68499999569},{""page_index"":2,""viewing_time"":2647.9900000049383}]","22972.929999996268","instructions","13","121546","0.0-13.0","SS1604590327829","","","","","","","","","","","","","","","","",""
"","null","html-keyboard-response","14","122844","0.0-14.0-0.0","SS1604590327829","","null","","","","","","","","","","","","<img src=images/blank.png width =""500"" height = ""500"" style=""border:5px solid black"">","","",""
"","650.484999998298","stimulus-presentation","15","123704","0.0-14.0-1.0","SS1604590327829","<img src='images/complex/7.png' width ='500' height = '500' style='border:5px solid black'>","40","all_complex","images/complex/5.png","images/complex/7.png","images/complex/4.png,images/complex/8.png,images/complex/16.png,images/complex/13.png,images/complex/12.png,images/complex/6.png,images/complex/3.png","0","null","","200","850.484999998298","","","","background","",""
"","null","html-keyboard-response","16","124831","0.0-14.0-0.1","SS1604590327829","","null","","","","","","","","","","","","<img src=images/blank.png width =""500"" height = ""500"" style=""border:5px solid black"">","","",""
"","368.19999999715947","stimulus-presentation","17","125408","0.0-14.0-1.1","SS1604590327829","<img src='images/complex/12.png' width ='500' height = '500' style='border:5px solid black'>","40","all_complex","images/complex/5.png","images/complex/7.png","images/complex/4.png,images/complex/8.png,images/complex/16.png,images/complex/13.png,images/complex/12.png,images/complex/6.png,images/complex/3.png","0","null","","200","568.1999999971595","","","","deviant","",""
"","null","html-keyboard-response","18","126418","0.0-14.0-0.2","SS1604590327829","","null","","","","","","","","","","","","<img src=images/blank.png width =""500"" height = ""500"" style=""border:5px solid black"">","","",""
"","326.03999999992084","stimulus-presentation","19","126949","0.0-14.0-1.2","SS1604590327829","<img src='images/complex/7.png' width ='500' height = '500' style='border:5px solid black'>","40","all_complex","images/complex/5.png","images/complex/7.png","images/complex/4.png,images/complex/8.png,images/complex/16.png,images/complex/13.png,images/complex/12.png,images/complex/6.png,images/complex/3.png","0","null","","200","526.0399999999208","","","","background","",""
"","null","html-keyboard-response","20","128011","0.0-14.0-0.3","SS1604590327829","","null","","","","","","","","","","","","<img src=images/blank.png width =""500"" height = ""500"" style=""border:5px solid black"">","","",""
"","454.1800000006333","stimulus-presentation","21","128672","0.0-14.0-1.3","SS1604590327829","<img src='images/complex/7.png' width ='500' height = '500' style='border:5px solid black'>","40","all_complex","images/complex/5.png","images/complex/7.png","images/complex/4.png,images/complex/8.png,images/complex/16.png,images/complex/13.png,images/complex/12.png,images/complex/6.png,images/complex/3.png","0","null","","200","654.1800000006333","","","","background","",""
"","null","html-keyboard-response","22","129854","0.0-14.0-0.4","SS1604590327829","","null","","","","","","","","","","","","<img src=images/blank.png width =""500"" height = ""500"" style=""border:5px solid black"">","","",""
"","265.8400000000256","stimulus-presentation","23","130327","0.0-14.0-1.4","SS1604590327829","<img src='images/complex/7.png' width ='500' height = '500' style='border:5px solid black'>","40","all_complex","images/complex/5.png","images/complex/7.png","images/complex/4.png,images/complex/8.png,images/complex/16.png,images/complex/13.png,images/complex/12.png,images/complex/6.png,images/complex/3.png","0","null","","200","465.8400000000256","","","","background","",""
"","null","html-keyboard-response","24","131188","0.0-14.0-0.5","SS1604590327829","","null","","","","","","","","","","","","<img src=images/blank.png width =""500"" height = ""500"" style=""border:5px solid black"">","","",""
"","272.4149999994552","stimulus-presentation","25","131671","0.0-14.0-1.5","SS1604590327829","<img src='images/complex/7.png' width ='500' height = '500' style='border:5px solid black'>","40","all_complex","images/complex/5.png","images/complex/7.png","images/complex/4.png,images/complex/8.png,images/complex/16.png,images/complex/13.png,images/complex/12.png,images/complex/6.png,images/complex/3.png","0","null","","200","472.4149999994552","","","","background","",""
"","null","html-keyboard-response","26","132543","0.0-14.0-0.6","SS1604590327829","","null","","","","","","","","","","","","<img src=images/blank.png width =""500"" height = ""500"" style=""border:5px solid black"">","","",""
"","459.31500000006054","stimulus-presentation","27","133207","0.0-14.0-1.6","SS1604590327829","<img src='images/complex/13.png' width ='500' height = '500' style='border:5px solid black'>","40","all_complex","images/complex/5.png","images/complex/7.png","images/complex/4.png,images/complex/8.png,images/complex/16.png,images/complex/13.png,images/complex/12.png,images/complex/6.png,images/complex/3.png","0","null","","200","659.3150000000605","","","","deviant","",""
"","null","html-keyboard-response","28","134114","0.0-14.0-0.7","SS1604590327829","","null","","","","","","","","","","","","<img src=images/blank.png width =""500"" height = ""500"" style=""border:5px solid black"">","","",""
"","403.5599999988335","stimulus-presentation","29","134728","0.0-14.0-1.7","SS1604590327829","<img src='images/complex/7.png' width ='500' height = '500' style='border:5px solid black'>","40","all_complex","images/complex/5.png","images/complex/7.png","images/complex/4.png,images/complex/8.png,images/complex/16.png,images/complex/13.png,images/complex/12.png,images/complex/6.png,images/complex/3.png","0","null","","200","603.5599999988335","","","","background","",""
"","null","html-keyboard-response","30","135872","0.0-14.0-0.8","SS1604590327829","","null","","","","","","","","","","","","<img src=images/blank.png width =""500"" height = ""500"" style=""border:5px solid black"">","","",""
"","245.40999999589985","stimulus-presentation","31","136324","0.0-14.0-1.8","SS1604590327829","<img src='images/complex/7.png' width ='500' height = '500' style='border:5px solid black'>","40","all_complex","images/complex/5.png","images/complex/7.png","images/complex/4.png,images/complex/8.png,images/complex/16.png,images/complex/13.png,images/complex/12.png,images/complex/6.png,images/complex/3.png","0","null","","200","445.40999999589985","","","","background","",""
"","null","html-keyboard-response","32","137297","0.0-14.0-0.9","SS1604590327829","","null","","","","","","","","","","","","<img src=images/blank.png width =""500"" height = ""500"" style=""border:5px solid black"">","","",""
"","237.49999999563443","stimulus-presentation","33","137741","0.0-14.0-1.9","SS1604590327829","<img src='images/complex/7.png' width ='500' height = '500' style='border:5px solid black'>","40","all_complex","images/complex/5.png","images/complex/7.png","images/complex/4.png,images/complex/8.png,images/complex/16.png,images/complex/13.png,images/complex/12.png,images/complex/6.png,images/complex/3.png","0","null","","200","437.4999999956344","","","","background","",""
"","null","html-keyboard-response","34","138579","0.0-14.0-0.10","SS1604590327829","","null","","","","","","","","","","","","<img src=images/blank.png width =""500"" height = ""500"" style=""border:5px solid black"">","","",""
"","356.2149999997928","stimulus-presentation","35","139143","0.0-14.0-1.10","SS1604590327829","<img src='images/complex/16.png' width ='500' height = '500' style='border:5px solid black'>","40","all_complex","images/complex/5.png","images/complex/7.png","images/complex/4.png,images/complex/8.png,images/complex/16.png,images/complex/13.png,images/complex/12.png,images/complex/6.png,images/complex/3.png","0","null","","200","556.2149999997928","","","","deviant","",""
"","null","html-keyboard-response","36","139977","0.0-14.0-0.11","SS1604590327829","","null","","","","","","","","","","","","<img src=images/blank.png width =""500"" height = ""500"" style=""border:5px solid black"">","","",""
"","357.0849999960046","stimulus-presentation","37","140543","0.0-14.0-1.11","SS1604590327829","<img src='images/complex/7.png' width ='500' height = '500' style='border:5px solid black'>","40","all_complex","images/complex/5.png","images/complex/7.png","images/complex/4.png,images/complex/8.png,images/complex/16.png,images/complex/13.png,images/complex/12.png,images/complex/6.png,images/complex/3.png","0","null","","200","557.0849999960046","","","","background","",""
"","null","html-keyboard-response","38","141617","0.0-14.0-0.12","SS1604590327829","","null","","","","","","","","","","","","<img src=images/blank.png width =""500"" height = ""500"" style=""border:5px solid black"">","","",""
"","1250.2300000051036","stimulus-presentation","39","143074","0.0-14.0-1.12","SS1604590327829","<img src='images/complex/5.png' width ='500' height = '500' style='border:5px solid black'>","40","all_complex","images/complex/5.png","images/complex/7.png","images/complex/4.png,images/complex/8.png,images/complex/16.png,images/complex/13.png,images/complex/12.png,images/complex/6.png,images/complex/3.png","0","null","","200","1450.2300000051036","yes","346.2350000045262","","target","",""
"","null","html-keyboard-response","40","144186","0.0-14.0-0.13","SS1604590327829","","null","","","","","","","","","","","","<img src=images/blank.png width =""500"" height = ""500"" style=""border:5px solid black"">","","",""
"","281.94499999517575","stimulus-presentation","41","144674","0.0-14.0-1.13","SS1604590327829","<img src='images/complex/7.png' width ='500' height = '500' style='border:5px solid black'>","40","all_complex","images/complex/5.png","images/complex/7.png","images/complex/4.png,images/complex/8.png,images/complex/16.png,images/complex/13.png,images/complex/12.png,images/complex/6.png,images/complex/3.png","0","null","","200","481.94499999517575","","","","background","",""
"","null","html-keyboard-response","42","145869","0.0-14.0-0.14","SS1604590327829","","null","","","","","","","","","","","","<img src=images/blank.png width =""500"" height = ""500"" style=""border:5px solid black"">","","",""
"","290.2399999948102","stimulus-presentation","43","146367","0.0-14.0-1.14","SS1604590327829","<img src='images/complex/7.png' width ='500' height = '500' style='border:5px solid black'>","40","all_complex","images/complex/5.png","images/complex/7.png","images/complex/4.png,images/complex/8.png,images/complex/16.png,images/complex/13.png,images/complex/12.png,images/complex/6.png,images/complex/3.png","0","null","","200","490.2399999948102","","","","background","",""
"","null","html-keyboard-response","44","147416","0.0-14.0-0.15","SS1604590327829","","null","","","","","","","","","","","","<img src=images/blank.png width =""500"" height = ""500"" style=""border:5px solid black"">","","",""
"","243.38500000158092","stimulus-presentation","45","147871","0.0-14.0-1.15","SS1604590327829","<img src='images/complex/7.png' width ='500' height = '500' style='border:5px solid black'>","40","all_complex","images/complex/5.png","images/complex/7.png","images/complex/4.png,images/complex/8.png,images/complex/16.png,images/complex/13.png,images/complex/12.png,images/complex/6.png,images/complex/3.png","0","null","","200","443.3850000015809","","","","background","",""
"","null","html-keyboard-response","46","148750","0.0-14.0-0.16","SS1604590327829","","null","","","","","","","","","","","","<img src=images/blank.png width =""500"" height = ""500"" style=""border:5px solid black"">","","",""
"","243.0499999973108","stimulus-presentation","47","149202","0.0-14.0-1.16","SS1604590327829","<img src='images/complex/7.png' width ='500' height = '500' style='border:5px solid black'>","40","all_complex","images/complex/5.png","images/complex/7.png","images/complex/4.png,images/complex/8.png,images/complex/16.png,images/complex/13.png,images/complex/12.png,images/complex/6.png,images/complex/3.png","0","null","","200","443.0499999973108","","","","background","",""
"","null","html-keyboard-response","48","150061","0.0-14.0-0.17","SS1604590327829","","null","","","","","","","","","","","","<img src=images/blank.png width =""500"" height = ""500"" style=""border:5px solid black"">","","",""
"","766.990000003716","stimulus-presentation","49","151036","0.0-14.0-1.17","SS1604590327829","<img src='images/complex/5.png' width ='500' height = '500' style='border:5px solid black'>","40","all_complex","images/complex/5.png","images/complex/7.png","images/complex/4.png,images/complex/8.png,images/complex/16.png,images/complex/13.png,images/complex/12.png,images/complex/6.png,images/complex/3.png","0","null","","200","966.990000003716","yes","329.5250000010128","","target","",""
"","null","html-keyboard-response","50","152011","0.0-14.0-0.18","SS1604590327829","","null","","","","","","","","","","","","<img src=images/blank.png width =""500"" height = ""500"" style=""border:5px solid black"">","","",""
"","419.43999999784864","stimulus-presentation","51","152641","0.0-14.0-1.18","SS1604590327829","<img src='images/complex/6.png' width ='500' height = '500' style='border:5px solid black'>","40","all_complex","images/complex/5.png","images/complex/7.png","images/complex/4.png,images/complex/8.png,images/complex/16.png,images/complex/13.png,images/complex/12.png,images/complex/6.png,images/complex/3.png","0","null","","200","619.4399999978486","","","","deviant","",""
"","null","html-keyboard-response","52","153599","0.0-14.0-0.19","SS1604590327829","","null","","","","","","","","","","","","<img src=images/blank.png width =""500"" height = ""500"" style=""border:5px solid black"">","","",""
"","234.19499999727122","stimulus-presentation","53","154055","0.0-14.0-1.19","SS1604590327829","<img src='images/complex/7.png' width ='500' height = '500' style='border:5px solid black'>","40","all_complex","images/complex/5.png","images/complex/7.png","images/complex/4.png,images/complex/8.png,images/complex/16.png,images/complex/13.png,images/complex/12.png,images/complex/6.png,images/complex/3.png","0","null","","200","434.1949999972712","","","","background","",""
"","null","html-keyboard-response","54","155208","0.0-14.0-0.20","SS1604590327829","","null","","","","","","","","","","","","<img src=images/blank.png width =""500"" height = ""500"" style=""border:5px solid black"">","","",""
"","688.4050000007846","stimulus-presentation","55","156111","0.0-14.0-1.20","SS1604590327829","<img src='images/complex/5.png' width ='500' height = '500' style='border:5px solid black'>","40","all_complex","images/complex/5.png","images/complex/7.png","images/complex/4.png,images/complex/8.png,images/complex/16.png,images/complex/13.png,images/complex/12.png,images/complex/6.png,images/complex/3.png","0","null","","200","888.4050000007846","yes","344.74999999656575","","target","",""
"","null","html-keyboard-response","56","157280","0.0-14.0-0.21","SS1604590327829","","null","","","","","","","","","","","","<img src=images/blank.png width =""500"" height = ""500"" style=""border:5px solid black"">","","",""
"","311.9250000017928","stimulus-presentation","57","157803","0.0-14.0-1.21","SS1604590327829","<img src='images/complex/7.png' width ='500' height = '500' style='border:5px solid black'>","40","all_complex","images/complex/5.png","images/complex/7.png","images/complex/4.png,images/complex/8.png,images/complex/16.png,images/complex/13.png,images/complex/12.png,images/complex/6.png,images/complex/3.png","0","null","","200","511.9250000017928","","","","background","",""
"","null","html-keyboard-response","58","158725","0.0-14.0-0.22","SS1604590327829","","null","","","","","","","","","","","","<img src=images/blank.png width =""500"" height = ""500"" style=""border:5px solid black"">","","",""
"","601.0549999991781","stimulus-presentation","59","159540","0.0-14.0-1.22","SS1604590327829","<img src='images/complex/5.png' width ='500' height = '500' style='border:5px solid black'>","40","all_complex","images/complex/5.png","images/complex/7.png","images/complex/4.png,images/complex/8.png,images/complex/16.png,images/complex/13.png,images/complex/12.png,images/complex/6.png,images/complex/3.png","0","null","","200","801.0549999991781","yes","281.32000000186963","","target","",""
"","null","html-keyboard-response","60","160725","0.0-14.0-0.23","SS1604590327829","","null","","","","","","","","","","","","<img src=images/blank.png width =""500"" height = ""500"" style=""border:5px solid black"">","","",""
"","237.38500000035856","stimulus-presentation","61","161189","0.0-14.0-1.23","SS1604590327829","<img src='images/complex/7.png' width ='500' height = '500' style='border:5px solid black'>","40","all_complex","images/complex/5.png","images/complex/7.png","images/complex/4.png,images/complex/8.png,images/complex/16.png,images/complex/13.png,images/complex/12.png,images/complex/6.png,images/complex/3.png","0","null","","200","437.38500000035856","","","","background","",""
"","null","html-keyboard-response","62","162335","0.0-14.0-0.24","SS1604590327829","","null","","","","","","","","","","","","<img src=images/blank.png width =""500"" height = ""500"" style=""border:5px solid black"">","","",""
"","567.4199999994016","stimulus-presentation","63","163113","0.0-14.0-1.24","SS1604590327829","<img src='images/complex/5.png' width ='500' height = '500' style='border:5px solid black'>","40","all_complex","images/complex/5.png","images/complex/7.png","images/complex/4.png,images/complex/8.png,images/complex/16.png,images/complex/13.png,images/complex/12.png,images/complex/6.png,images/complex/3.png","0","null","","200","767.4199999994016","yes","204.98000000225147","","target","",""
"","null","html-keyboard-response","64","164044","0.0-14.0-0.25","SS1604590327829","","null","","","","","","","","","","","","<img src=images/blank.png width =""500"" height = ""500"" style=""border:5px solid black"">","","",""
"","224.36500000185333","stimulus-presentation","65","164483","0.0-14.0-1.25","SS1604590327829","<img src='images/complex/7.png' width ='500' height = '500' style='border:5px solid black'>","40","all_complex","images/complex/5.png","images/complex/7.png","images/complex/4.png,images/complex/8.png,images/complex/16.png,images/complex/13.png,images/complex/12.png,images/complex/6.png,images/complex/3.png","0","null","","200","424.36500000185333","","","","background","",""
"","null","html-keyboard-response","66","165671","0.0-14.0-0.26","SS1604590327829","","null","","","","","","","","","","","","<img src=images/blank.png width =""500"" height = ""500"" style=""border:5px solid black"">","","",""
"","209.17999999801395","stimulus-presentation","67","166101","0.0-14.0-1.26","SS1604590327829","<img src='images/complex/7.png' width ='500' height = '500' style='border:5px solid black'>","40","all_complex","images/complex/5.png","images/complex/7.png","images/complex/4.png,images/complex/8.png,images/complex/16.png,images/complex/13.png,images/complex/12.png,images/complex/6.png,images/complex/3.png","0","null","","200","409.17999999801395","","","","background","",""
"","null","html-keyboard-response","68","166991","0.0-14.0-0.27","SS1604590327829","","null","","","","","","","","","","","","<img src=images/blank.png width =""500"" height = ""500"" style=""border:5px solid black"">","","",""
"","217.35500000067987","stimulus-presentation","69","167444","0.0-14.0-1.27","SS1604590327829","<img src='images/complex/7.png' width ='500' height = '500' style='border:5px solid black'>","40","all_complex","images/complex/5.png","images/complex/7.png","images/complex/4.png,images/complex/8.png,images/complex/16.png,images/complex/13.png,images/complex/12.png,images/complex/6.png,images/complex/3.png","0","null","","200","417.35500000067987","","","","background","",""
"","null","html-keyboard-response","70","168328","0.0-14.0-0.28","SS1604590327829","","null","","","","","","","","","","","","<img src=images/blank.png width =""500"" height = ""500"" style=""border:5px solid black"">","","",""
"","531.2950000006822","stimulus-presentation","71","169075","0.0-14.0-1.28","SS1604590327829","<img src='images/complex/5.png' width ='500' height = '500' style='border:5px solid black'>","40","all_complex","images/complex/5.png","images/complex/7.png","images/complex/4.png,images/complex/8.png,images/complex/16.png,images/complex/13.png,images/complex/12.png,images/complex/6.png,images/complex/3.png","0","null","","200","731.2950000006822","yes","194.6749999988242","","target","",""
"","null","html-keyboard-response","72","170122","0.0-14.0-0.29","SS1604590327829","","null","","","","","","","","","","","","<img src=images/blank.png width =""500"" height = ""500"" style=""border:5px solid black"">","","",""
"","202.5800000046729","stimulus-presentation","73","170539","0.0-14.0-1.29","SS1604590327829","<img src='images/complex/7.png' width ='500' height = '500' style='border:5px solid black'>","40","all_complex","images/complex/5.png","images/complex/7.png","images/complex/4.png,images/complex/8.png,images/complex/16.png,images/complex/13.png,images/complex/12.png,images/complex/6.png,images/complex/3.png","0","null","","200","402.5800000046729","","","","background","",""
"","null","html-keyboard-response","74","171587","0.0-14.0-0.30","SS1604590327829","","null","","","","","","","","","","","","<img src=images/blank.png width =""500"" height = ""500"" style=""border:5px solid black"">","","",""
"","162.37499999988358","stimulus-presentation","75","171969","0.0-14.0-1.30","SS1604590327829","<img src='images/complex/7.png' width ='500' height = '500' style='border:5px solid black'>","40","all_complex","images/complex/5.png","images/complex/7.png","images/complex/4.png,images/complex/8.png,images/complex/16.png,images/complex/13.png,images/complex/12.png,images/complex/6.png,images/complex/3.png","0","null","","200","362.3749999998836","","","","background","",""
"","null","html-keyboard-response","76","173082","0.0-14.0-0.31","SS1604590327829","","null","","","","","","","","","","","","<img src=images/blank.png width =""500"" height = ""500"" style=""border:5px solid black"">","","",""
"","481.4600000026985","stimulus-presentation","77","173797","0.0-14.0-1.31","SS1604590327829","<img src='images/complex/4.png' width ='500' height = '500' style='border:5px solid black'>","40","all_complex","images/complex/5.png","images/complex/7.png","images/complex/4.png,images/complex/8.png,images/complex/16.png,images/complex/13.png,images/complex/12.png,images/complex/6.png,images/complex/3.png","0","null","","200","681.4600000026985","","","","deviant","",""
"","null","html-keyboard-response","78","174636","0.0-14.0-0.32","SS1604590327829","","null","","","","","","","","","","","","<img src=images/blank.png width =""500"" height = ""500"" style=""border:5px solid black"">","","",""
"","253.9249999972526","stimulus-presentation","79","175113","0.0-14.0-1.32","SS1604590327829","<img src='images/complex/7.png' width ='500' height = '500' style='border:5px solid black'>","40","all_complex","images/complex/5.png","images/complex/7.png","images/complex/4.png,images/complex/8.png,images/complex/16.png,images/complex/13.png,images/complex/12.png,images/complex/6.png,images/complex/3.png","0","null","","200","453.9249999972526","","","","background","",""
"","null","html-keyboard-response","80","176266","0.0-14.0-0.33","SS1604590327829","","null","","","","","","","","","","","","<img src=images/blank.png width =""500"" height = ""500"" style=""border:5px solid black"">","","",""
"","192.79500000266125","stimulus-presentation","81","176682","0.0-14.0-1.33","SS1604590327829","<img src='images/complex/7.png' width ='500' height = '500' style='border:5px solid black'>","40","all_complex","images/complex/5.png","images/complex/7.png","images/complex/4.png,images/complex/8.png,images/complex/16.png,images/complex/13.png,images/complex/12.png,images/complex/6.png,images/complex/3.png","0","null","","200","392.79500000266125","","","","background","",""
"","null","html-keyboard-response","82","177821","0.0-14.0-0.34","SS1604590327829","","null","","","","","","","","","","","","<img src=images/blank.png width =""500"" height = ""500"" style=""border:5px solid black"">","","",""
"","170.10000000300352","stimulus-presentation","83","178214","0.0-14.0-1.34","SS1604590327829","<img src='images/complex/7.png' width ='500' height = '500' style='border:5px solid black'>","40","all_complex","images/complex/5.png","images/complex/7.png","images/complex/4.png,images/complex/8.png,images/complex/16.png,images/complex/13.png,images/complex/12.png,images/complex/6.png,images/complex/3.png","0","null","","200","370.1000000030035","","","","background","",""
"","null","html-keyboard-response","84","179493","0.0-14.0-0.35","SS1604590327829","","null","","","","","","","","","","","","<img src=images/blank.png width =""500"" height = ""500"" style=""border:5px solid black"">","","",""
"","201.26999999774853","stimulus-presentation","85","179917","0.0-14.0-1.35","SS1604590327829","<img src='images/complex/7.png' width ='500' height = '500' style='border:5px solid black'>","40","all_complex","images/complex/5.png","images/complex/7.png","images/complex/4.png,images/complex/8.png,images/complex/16.png,images/complex/13.png,images/complex/12.png,images/complex/6.png,images/complex/3.png","0","null","","200","401.2699999977485","","","","background","",""
"","null","html-keyboard-response","86","181125","0.0-14.0-0.36","SS1604590327829","","null","","","","","","","","","","","","<img src=images/blank.png width =""500"" height = ""500"" style=""border:5px solid black"">","","",""
"","272.6649999967776","stimulus-presentation","87","181621","0.0-14.0-1.36","SS1604590327829","<img src='images/complex/7.png' width ='500' height = '500' style='border:5px solid black'>","40","all_complex","images/complex/5.png","images/complex/7.png","images/complex/4.png,images/complex/8.png,images/complex/16.png,images/complex/13.png,images/complex/12.png,images/complex/6.png,images/complex/3.png","0","null","","200","472.6649999967776","","","","background","",""
"","null","html-keyboard-response","88","182756","0.0-14.0-0.37","SS1604590327829","","null","","","","","","","","","","","","<img src=images/blank.png width =""500"" height = ""500"" style=""border:5px solid black"">","","",""
"","526.545000000624","stimulus-presentation","89","183499","0.0-14.0-1.37","SS1604590327829","<img src='images/complex/7.png' width ='500' height = '500' style='border:5px solid black'>","40","all_complex","images/complex/5.png","images/complex/7.png","images/complex/4.png,images/complex/8.png,images/complex/16.png,images/complex/13.png,images/complex/12.png,images/complex/6.png,images/complex/3.png","0","null","","200","726.545000000624","","","","background","",""
"","null","html-keyboard-response","90","184403","0.0-14.0-0.38","SS1604590327829","","null","","","","","","","","","","","","<img src=images/blank.png width =""500"" height = ""500"" style=""border:5px solid black"">","","",""
"","407.76500000356464","stimulus-presentation","91","185036","0.0-14.0-1.38","SS1604590327829","<img src='images/complex/3.png' width ='500' height = '500' style='border:5px solid black'>","40","all_complex","images/complex/5.png","images/complex/7.png","images/complex/4.png,images/complex/8.png,images/complex/16.png,images/complex/13.png,images/complex/12.png,images/complex/6.png,images/complex/3.png","0","null","","200","607.7650000035646","","","","deviant","",""
"","null","html-keyboard-response","92","185859","0.0-14.0-0.39","SS1604590327829","","null","","","","","","","","","","","","<img src=images/blank.png width =""500"" height = ""500"" style=""border:5px solid black"">","","",""
"","227.8050000022631","stimulus-presentation","93","186316","0.0-14.0-1.39","SS1604590327829","<img src='images/complex/7.png' width ='500' height = '500' style='border:5px solid black'>","40","all_complex","images/complex/5.png","images/complex/7.png","images/complex/4.png,images/complex/8.png,images/complex/16.png,images/complex/13.png,images/complex/12.png,images/complex/6.png,images/complex/3.png","0","null","","200","427.8050000022631","","","","background","",""
"","null","html-keyboard-response","94","187481","0.0-14.0-0.40","SS1604590327829","","null","","","","","","","","","","","","<img src=images/blank.png width =""500"" height = ""500"" style=""border:5px solid black"">","","",""
"","156.5199999968172","stimulus-presentation","95","187849","0.0-14.0-1.40","SS1604590327829","<img src='images/complex/7.png' width ='500' height = '500' style='border:5px solid black'>","40","all_complex","images/complex/5.png","images/complex/7.png","images/complex/4.png,images/complex/8.png,images/complex/16.png,images/complex/13.png,images/complex/12.png,images/complex/6.png,images/complex/3.png","0","null","","200","356.5199999968172","","","","background","",""
"","null","html-keyboard-response","96","188867","0.0-14.0-0.41","SS1604590327829","","null","","","","","","","","","","","","<img src=images/blank.png width =""500"" height = ""500"" style=""border:5px solid black"">","","",""
"","137.16500000009546","stimulus-presentation","97","189225","0.0-14.0-1.41","SS1604590327829","<img src='images/complex/7.png' width ='500' height = '500' style='border:5px solid black'>","40","all_complex","images/complex/5.png","images/complex/7.png","images/complex/4.png,images/complex/8.png,images/complex/16.png,images/complex/13.png,images/complex/12.png,images/complex/6.png,images/complex/3.png","0","null","","200","337.16500000009546","","","","background","",""
"","null","html-keyboard-response","98","190255","0.0-14.0-0.42","SS1604590327829","","null","","","","","","","","","","","","<img src=images/blank.png width =""500"" height = ""500"" style=""border:5px solid black"">","","",""
"","401.2499999953434","stimulus-presentation","99","190874","0.0-14.0-1.42","SS1604590327829","<img src='images/complex/8.png' width ='500' height = '500' style='border:5px solid black'>","40","all_complex","images/complex/5.png","images/complex/7.png","images/complex/4.png,images/complex/8.png,images/complex/16.png,images/complex/13.png,images/complex/12.png,images/complex/6.png,images/complex/3.png","0","null","","200","601.2499999953434","","","","deviant","",""
"","null","html-keyboard-response","100","191727","0.0-14.0-0.43","SS1604590327829","","null","","","","","","","","","","","","<img src=images/blank.png width =""500"" height = ""500"" style=""border:5px solid black"">","","",""
"","171.3099999979022","stimulus-presentation","101","192127","0.0-14.0-1.43","SS1604590327829","<img src='images/complex/7.png' width ='500' height = '500' style='border:5px solid black'>","40","all_complex","images/complex/5.png","images/complex/7.png","images/complex/4.png,images/complex/8.png,images/complex/16.png,images/complex/13.png,images/complex/12.png,images/complex/6.png,images/complex/3.png","0","null","","200","371.3099999979022","","","","background","",""
"","null","html-keyboard-response","102","193424","0.0-14.0-0.44","SS1604590327829","","null","","","","","","","","","","","","<img src=images/blank.png width =""500"" height = ""500"" style=""border:5px solid black"">","","",""
"","189.57500000396976","stimulus-presentation","103","193833","0.0-14.0-1.44","SS1604590327829","<img src='images/complex/7.png' width ='500' height = '500' style='border:5px solid black'>","40","all_complex","images/complex/5.png","images/complex/7.png","images/complex/4.png,images/complex/8.png,images/complex/16.png,images/complex/13.png,images/complex/12.png,images/complex/6.png,images/complex/3.png","0","null","","200","389.57500000396976","","","","background","",""
"","null","html-keyboard-response","104","194829","0.0-14.0-0.45","SS1604590327829","","null","","","","","","","","","","","","<img src=images/blank.png width =""500"" height = ""500"" style=""border:5px solid black"">","","",""
"","172.12999999901513","stimulus-presentation","105","195210","0.0-14.0-1.45","SS1604590327829","<img src='images/complex/7.png' width ='500' height = '500' style='border:5px solid black'>","40","all_complex","images/complex/5.png","images/complex/7.png","images/complex/4.png,images/complex/8.png,images/complex/16.png,images/complex/13.png,images/complex/12.png,images/complex/6.png,images/complex/3.png","0","null","","200","372.1299999990151","","","","background","",""
"","null","html-keyboard-response","106","196342","0.0-14.0-0.46","SS1604590327829","","null","","","","","","","","","","","","<img src=images/blank.png width =""500"" height = ""500"" style=""border:5px solid black"">","","",""
"","153.63999999681255","stimulus-presentation","107","196714","0.0-14.0-1.46","SS1604590327829","<img src='images/complex/7.png' width ='500' height = '500' style='border:5px solid black'>","40","all_complex","images/complex/5.png","images/complex/7.png","images/complex/4.png,images/complex/8.png,images/complex/16.png,images/complex/13.png,images/complex/12.png,images/complex/6.png,images/complex/3.png","0","null","","200","353.63999999681255","","","","background","",""
"","null","html-keyboard-response","108","197663","0.0-14.0-0.47","SS1604590327829","","null","","","","","","","","","","","","<img src=images/blank.png width =""500"" height = ""500"" style=""border:5px solid black"">","","",""
"","176.11999999644468","stimulus-presentation","109","198051","0.0-14.0-1.47","SS1604590327829","<img src='images/complex/7.png' width ='500' height = '500' style='border:5px solid black'>","40","all_complex","images/complex/5.png","images/complex/7.png","images/complex/4.png,images/complex/8.png,images/complex/16.png,images/complex/13.png,images/complex/12.png,images/complex/6.png,images/complex/3.png","0","null","","200","376.1199999964447","","","","background","",""
"","null","html-keyboard-response","110","199342","0.0-14.0-0.48","SS1604590327829","","null","","","","","","","","","","","","<img src=images/blank.png width =""500"" height = ""500"" style=""border:5px solid black"">","","",""
"","577.7150000067195","stimulus-presentation","111","200143","0.0-14.0-1.48","SS1604590327829","<img src='images/complex/5.png' width ='500' height = '500' style='border:5px solid black'>","40","all_complex","images/complex/5.png","images/complex/7.png","images/complex/4.png,images/complex/8.png,images/complex/16.png,images/complex/13.png,images/complex/12.png,images/complex/6.png,images/complex/3.png","0","null","","200","777.7150000067195","yes","232.1700000029523","","target","",""
"[{""page_index"":0,""viewing_time"":21258}]","21259","task-instructions","112","221410","0.0-15.0","SS1604590327829","","","","","","","","","","","","","","","","",""
"[{""page_index"":0,""viewing_time"":9433.4400000007},{""page_index"":1,""viewing_time"":3181.959999994433},{""page_index"":2,""viewing_time"":3610.110000001441}]","16226.064999995288","instructions","113","237643","0.0-16.0","SS1604590327829","","","","","","","","","","","","","","","","",""
"","null","html-keyboard-response","114","238509","0.0-17.0-0.0","SS1604590327829","","null","","","","","","","","","","","","<img src=images/blank.png width =""500"" height = ""500"" style=""border:5px solid black"">","","",""
"","597.990000002028","stimulus-presentation","115","239322","0.0-17.0-1.0","SS1604590327829","<img src='images/simple/6.png' width ='500' height = '500' style='border:5px solid black'>","40","all_simple","images/simple/1.png","images/simple/6.png","images/simple/16.png,images/simple/9.png,images/simple/15.png,images/simple/4.png,images/simple/3.png,images/simple/14.png,images/simple/2.png","1","null","","200","797.990000002028","","","","background","",""
"","null","html-keyboard-response","116","240412","0.0-17.0-0.1","SS1604590327829","","null","","","","","","","","","","","","<img src=images/blank.png width =""500"" height = ""500"" style=""border:5px solid black"">","","",""
"","263.61000000179047","stimulus-presentation","117","240888","0.0-17.0-1.1","SS1604590327829","<img src='images/simple/6.png' width ='500' height = '500' style='border:5px solid black'>","40","all_simple","images/simple/1.png","images/simple/6.png","images/simple/16.png,images/simple/9.png,images/simple/15.png,images/simple/4.png,images/simple/3.png,images/simple/14.png,images/simple/2.png","1","null","","200","463.61000000179047","","","","background","",""
"","null","html-keyboard-response","118","241794","0.0-17.0-0.2","SS1604590327829","","null","","","","","","","","","","","","<img src=images/blank.png width =""500"" height = ""500"" style=""border:5px solid black"">","","",""
"","1013.0250000001979","stimulus-presentation","119","243023","0.0-17.0-1.2","SS1604590327829","<img src='images/simple/1.png' width ='500' height = '500' style='border:5px solid black'>","40","all_simple","images/simple/1.png","images/simple/6.png","images/simple/16.png,images/simple/9.png,images/simple/15.png,images/simple/4.png,images/simple/3.png,images/simple/14.png,images/simple/2.png","1","null","","200","1213.025000000198","yes","543.6849999969127","","target","",""
"","null","html-keyboard-response","120","244120","0.0-17.0-0.3","SS1604590327829","","null","","","","","","","","","","","","<img src=images/blank.png width =""500"" height = ""500"" style=""border:5px solid black"">","","",""
"","311.4950000017416","stimulus-presentation","121","244645","0.0-17.0-1.3","SS1604590327829","<img src='images/simple/9.png' width ='500' height = '500' style='border:5px solid black'>","40","all_simple","images/simple/1.png","images/simple/6.png","images/simple/16.png,images/simple/9.png,images/simple/15.png,images/simple/4.png,images/simple/3.png,images/simple/14.png,images/simple/2.png","1","null","","200","511.4950000017416","","","","deviant","",""
"","null","html-keyboard-response","122","245541","0.0-17.0-0.4","SS1604590327829","","null","","","","","","","","","","","","<img src=images/blank.png width =""500"" height = ""500"" style=""border:5px solid black"">","","",""
"","188.01499999972293","stimulus-presentation","123","245937","0.0-17.0-1.4","SS1604590327829","<img src='images/simple/6.png' width ='500' height = '500' style='border:5px solid black'>","40","all_simple","images/simple/1.png","images/simple/6.png","images/simple/16.png,images/simple/9.png,images/simple/15.png,images/simple/4.png,images/simple/3.png,images/simple/14.png,images/simple/2.png","1","null","","200","388.01499999972293","","","","background","",""
"","null","html-keyboard-response","124","246754","0.0-17.0-0.5","SS1604590327829","","null","","","","","","","","","","","","<img src=images/blank.png width =""500"" height = ""500"" style=""border:5px solid black"">","","",""
"","752.1749999941676","stimulus-presentation","125","247717","0.0-17.0-1.5","SS1604590327829","<img src='images/simple/1.png' width ='500' height = '500' style='border:5px solid black'>","40","all_simple","images/simple/1.png","images/simple/6.png","images/simple/16.png,images/simple/9.png,images/simple/15.png,images/simple/4.png,images/simple/3.png,images/simple/14.png,images/simple/2.png","1","null","","200","952.1749999941676","yes","363.2849999994505","","target","",""
"","null","html-keyboard-response","126","248712","0.0-17.0-0.6","SS1604590327829","","null","","","","","","","","","","","","<img src=images/blank.png width =""500"" height = ""500"" style=""border:5px solid black"">","","",""
"","432.2849999953178","stimulus-presentation","127","249355","0.0-17.0-1.6","SS1604590327829","<img src='images/simple/6.png' width ='500' height = '500' style='border:5px solid black'>","40","all_simple","images/simple/1.png","images/simple/6.png","images/simple/16.png,images/simple/9.png,images/simple/15.png,images/simple/4.png,images/simple/3.png,images/simple/14.png,images/simple/2.png","1","null","","200","632.2849999953178","","","","background","",""
"","null","html-keyboard-response","128","250537","0.0-17.0-0.7","SS1604590327829","","null","","","","","","","","","","","","<img src=images/blank.png width =""500"" height = ""500"" style=""border:5px solid black"">","","",""
"","282.28500000113854","stimulus-presentation","129","251032","0.0-17.0-1.7","SS1604590327829","<img src='images/simple/6.png' width ='500' height = '500' style='border:5px solid black'>","40","all_simple","images/simple/1.png","images/simple/6.png","images/simple/16.png,images/simple/9.png,images/simple/15.png,images/simple/4.png,images/simple/3.png,images/simple/14.png,images/simple/2.png","1","null","","200","482.28500000113854","","","","background","",""
"","null","html-keyboard-response","130","252241","0.0-17.0-0.8","SS1604590327829","","null","","","","","","","","","","","","<img src=images/blank.png width =""500"" height = ""500"" style=""border:5px solid black"">","","",""
"","318.3599999974831","stimulus-presentation","131","252787","0.0-17.0-1.8","SS1604590327829","<img src='images/simple/6.png' width ='500' height = '500' style='border:5px solid black'>","40","all_simple","images/simple/1.png","images/simple/6.png","images/simple/16.png,images/simple/9.png,images/simple/15.png,images/simple/4.png,images/simple/3.png,images/simple/14.png,images/simple/2.png","1","null","","200","518.3599999974831","","","","background","",""
"","null","html-keyboard-response","132","253873","0.0-17.0-0.9","SS1604590327829","","null","","","","","","","","","","","","<img src=images/blank.png width =""500"" height = ""500"" style=""border:5px solid black"">","","",""
"","1623.2949999975972","stimulus-presentation","133","255711","0.0-17.0-1.9","SS1604590327829","<img src='images/simple/2.png' width ='500' height = '500' style='border:5px solid black'>","40","all_simple","images/simple/1.png","images/simple/6.png","images/simple/16.png,images/simple/9.png,images/simple/15.png,images/simple/4.png,images/simple/3.png,images/simple/14.png,images/simple/2.png","1","null","","200","1823.2949999975972","","","","deviant","",""
"","null","html-keyboard-response","134","257020","0.0-17.0-0.10","SS1604590327829","","null","","","","","","","","","","","","<img src=images/blank.png width =""500"" height = ""500"" style=""border:5px solid black"">","","",""
"","687.4050000042189","stimulus-presentation","135","257927","0.0-17.0-1.10","SS1604590327829","<img src='images/simple/6.png' width ='500' height = '500' style='border:5px solid black'>","40","all_simple","images/simple/1.png","images/simple/6.png","images/simple/16.png,images/simple/9.png,images/simple/15.png,images/simple/4.png,images/simple/3.png,images/simple/14.png,images/simple/2.png","1","null","","200","887.4050000042189","","","","background","",""
"","null","html-keyboard-response","136","259070","0.0-17.0-0.11","SS1604590327829","","null","","","","","","","","","","","","<img src=images/blank.png width =""500"" height = ""500"" style=""border:5px solid black"">","","",""
"","2284.769999998389","stimulus-presentation","137","261569","0.0-17.0-1.11","SS1604590327829","<img src='images/simple/1.png' width ='500' height = '500' style='border:5px solid black'>","40","all_simple","images/simple/1.png","images/simple/6.png","images/simple/16.png,images/simple/9.png,images/simple/15.png,images/simple/4.png,images/simple/3.png,images/simple/14.png,images/simple/2.png","1","null","","200","2484.769999998389","yes","1246.2400000003981","","target","",""
"","null","html-keyboard-response","138","262807","0.0-17.0-0.12","SS1604590327829","","null","","","","","","","","","","","","<img src=images/blank.png width =""500"" height = ""500"" style=""border:5px solid black"">","","",""
"","1281.1799999981304","stimulus-presentation","139","264297","0.0-17.0-1.12","SS1604590327829","<img src='images/simple/1.png' width ='500' height = '500' style='border:5px solid black'>","40","all_simple","images/simple/1.png","images/simple/6.png","images/simple/16.png,images/simple/9.png,images/simple/15.png,images/simple/4.png,images/simple/3.png,images/simple/14.png,images/simple/2.png","1","null","","200","1481.1799999981304","yes","889.5199999969918","","target","",""
"","null","html-keyboard-response","140","265507","0.0-17.0-0.13","SS1604590327829","","null","","","","","","","","","","","","<img src=images/blank.png width =""500"" height = ""500"" style=""border:5px solid black"">","","",""
"","385.6450000021141","stimulus-presentation","141","266106","0.0-17.0-1.13","SS1604590327829","<img src='images/simple/6.png' width ='500' height = '500' style='border:5px solid black'>","40","all_simple","images/simple/1.png","images/simple/6.png","images/simple/16.png,images/simple/9.png,images/simple/15.png,images/simple/4.png,images/simple/3.png,images/simple/14.png,images/simple/2.png","1","null","","200","585.6450000021141","","","","background","",""
"","null","html-keyboard-response","142","267283","0.0-17.0-0.14","SS1604590327829","","null","","","","","","","","","","","","<img src=images/blank.png width =""500"" height = ""500"" style=""border:5px solid black"">","","",""
"","534.3199999988428","stimulus-presentation","143","268041","0.0-17.0-1.14","SS1604590327829","<img src='images/simple/15.png' width ='500' height = '500' style='border:5px solid black'>","40","all_simple","images/simple/1.png","images/simple/6.png","images/simple/16.png,images/simple/9.png,images/simple/15.png,images/simple/4.png,images/simple/3.png,images/simple/14.png,images/simple/2.png","1","null","","200","734.3199999988428","","","","deviant","",""
"","null","html-keyboard-response","144","269068","0.0-17.0-0.15","SS1604590327829","","null","","","","","","","","","","","","<img src=images/blank.png width =""500"" height = ""500"" style=""border:5px solid black"">","","",""
"","334.1450000007171","stimulus-presentation","145","269627","0.0-17.0-1.15","SS1604590327829","<img src='images/simple/6.png' width ='500' height = '500' style='border:5px solid black'>","40","all_simple","images/simple/1.png","images/simple/6.png","images/simple/16.png,images/simple/9.png,images/simple/15.png,images/simple/4.png,images/simple/3.png,images/simple/14.png,images/simple/2.png","1","null","","200","534.1450000007171","","","","background","",""
"","null","html-keyboard-response","146","270685","0.0-17.0-0.16","SS1604590327829","","null","","","","","","","","","","","","<img src=images/blank.png width =""500"" height = ""500"" style=""border:5px solid black"">","","",""
"","213.28499999799533","stimulus-presentation","147","271114","0.0-17.0-1.16","SS1604590327829","<img src='images/simple/6.png' width ='500' height = '500' style='border:5px solid black'>","40","all_simple","images/simple/1.png","images/simple/6.png","images/simple/16.png,images/simple/9.png,images/simple/15.png,images/simple/4.png,images/simple/3.png,images/simple/14.png,images/simple/2.png","1","null","","200","413.2849999979953","","","","background","",""
"","null","html-keyboard-response","148","272347","0.0-17.0-0.17","SS1604590327829","","null","","","","","","","","","","","","<img src=images/blank.png width =""500"" height = ""500"" style=""border:5px solid black"">","","",""
"","244.60000000544824","stimulus-presentation","149","272820","0.0-17.0-1.17","SS1604590327829","<img src='images/simple/6.png' width ='500' height = '500' style='border:5px solid black'>","40","all_simple","images/simple/1.png","images/simple/6.png","images/simple/16.png,images/simple/9.png,images/simple/15.png,images/simple/4.png,images/simple/3.png,images/simple/14.png,images/simple/2.png","1","null","","200","444.60000000544824","","","","background","",""
"","null","html-keyboard-response","150","273765","0.0-17.0-0.18","SS1604590327829","","null","","","","","","","","","","","","<img src=images/blank.png width =""500"" height = ""500"" style=""border:5px solid black"">","","",""
"","218.28999999706866","stimulus-presentation","151","274211","0.0-17.0-1.18","SS1604590327829","<img src='images/simple/6.png' width ='500' height = '500' style='border:5px solid black'>","40","all_simple","images/simple/1.png","images/simple/6.png","images/simple/16.png,images/simple/9.png,images/simple/15.png,images/simple/4.png,images/simple/3.png,images/simple/14.png,images/simple/2.png","1","null","","200","418.28999999706866","","","","background","",""
"","null","html-keyboard-response","152","275163","0.0-17.0-0.19","SS1604590327829","","null","","","","","","","","","","","","<img src=images/blank.png width =""500"" height = ""500"" style=""border:5px solid black"">","","",""
"","191.80499999492895","stimulus-presentation","153","275580","0.0-17.0-1.19","SS1604590327829","<img src='images/simple/6.png' width ='500' height = '500' style='border:5px solid black'>","40","all_simple","images/simple/1.png","images/simple/6.png","images/simple/16.png,images/simple/9.png,images/simple/15.png,images/simple/4.png,images/simple/3.png,images/simple/14.png,images/simple/2.png","1","null","","200","391.80499999492895","","","","background","",""
"","null","html-keyboard-response","154","276691","0.0-17.0-0.20","SS1604590327829","","null","","","","","","","","","","","","<img src=images/blank.png width =""500"" height = ""500"" style=""border:5px solid black"">","","",""
"","225.90499999932945","stimulus-presentation","155","277145","0.0-17.0-1.20","SS1604590327829","<img src='images/simple/6.png' width ='500' height = '500' style='border:5px solid black'>","40","all_simple","images/simple/1.png","images/simple/6.png","images/simple/16.png,images/simple/9.png,images/simple/15.png,images/simple/4.png,images/simple/3.png,images/simple/14.png,images/simple/2.png","1","null","","200","425.90499999932945","","","","background","",""
"","null","html-keyboard-response","156","278032","0.0-17.0-0.21","SS1604590327829","","null","","","","","","","","","","","","<img src=images/blank.png width =""500"" height = ""500"" style=""border:5px solid black"">","","",""
"","184.16499999875668","stimulus-presentation","157","278427","0.0-17.0-1.21","SS1604590327829","<img src='images/simple/6.png' width ='500' height = '500' style='border:5px solid black'>","40","all_simple","images/simple/1.png","images/simple/6.png","images/simple/16.png,images/simple/9.png,images/simple/15.png,images/simple/4.png,images/simple/3.png,images/simple/14.png,images/simple/2.png","1","null","","200","384.1649999987567","","","","background","",""
"","null","html-keyboard-response","158","279560","0.0-17.0-0.22","SS1604590327829","","null","","","","","","","","","","","","<img src=images/blank.png width =""500"" height = ""500"" style=""border:5px solid black"">","","",""
"","174.0849999987404","stimulus-presentation","159","279954","0.0-17.0-1.22","SS1604590327829","<img src='images/simple/6.png' width ='500' height = '500' style='border:5px solid black'>","40","all_simple","images/simple/1.png","images/simple/6.png","images/simple/16.png,images/simple/9.png,images/simple/15.png,images/simple/4.png,images/simple/3.png,images/simple/14.png,images/simple/2.png","1","null","","200","374.0849999987404","","","","background","",""
"","null","html-keyboard-response","160","281083","0.0-17.0-0.23","SS1604590327829","","null","","","","","","","","","","","","<img src=images/blank.png width =""500"" height = ""500"" style=""border:5px solid black"">","","",""
"","172.05499999545282","stimulus-presentation","161","281465","0.0-17.0-1.23","SS1604590327829","<img src='images/simple/6.png' width ='500' height = '500' style='border:5px solid black'>","40","all_simple","images/simple/1.png","images/simple/6.png","images/simple/16.png,images/simple/9.png,images/simple/15.png,images/simple/4.png,images/simple/3.png,images/simple/14.png,images/simple/2.png","1","null","","200","372.0549999954528","","","","background","",""
"","null","html-keyboard-response","162","282520","0.0-17.0-0.24","SS1604590327829","","null","","","","","","","","","","","","<img src=images/blank.png width =""500"" height = ""500"" style=""border:5px solid black"">","","",""
"","387.79000000067754","stimulus-presentation","163","283124","0.0-17.0-1.24","SS1604590327829","<img src='images/simple/3.png' width ='500' height = '500' style='border:5px solid black'>","40","all_simple","images/simple/1.png","images/simple/6.png","images/simple/16.png,images/simple/9.png,images/simple/15.png,images/simple/4.png,images/simple/3.png,images/simple/14.png,images/simple/2.png","1","null","","200","587.7900000006775","","","","deviant","",""
"","null","html-keyboard-response","164","284245","0.0-17.0-0.25","SS1604590327829","","null","","","","","","","","","","","","<img src=images/blank.png width =""500"" height = ""500"" style=""border:5px solid black"">","","",""
"","200.66500000393717","stimulus-presentation","165","284666","0.0-17.0-1.25","SS1604590327829","<img src='images/simple/6.png' width ='500' height = '500' style='border:5px solid black'>","40","all_simple","images/simple/1.png","images/simple/6.png","images/simple/16.png,images/simple/9.png,images/simple/15.png,images/simple/4.png,images/simple/3.png,images/simple/14.png,images/simple/2.png","1","null","","200","400.66500000393717","","","","background","",""
"","null","html-keyboard-response","166","285932","0.0-17.0-0.26","SS1604590327829","","null","","","","","","","","","","","","<img src=images/blank.png width =""500"" height = ""500"" style=""border:5px solid black"">","","",""
"","229.50500000297325","stimulus-presentation","167","286378","0.0-17.0-1.26","SS1604590327829","<img src='images/simple/6.png' width ='500' height = '500' style='border:5px solid black'>","40","all_simple","images/simple/1.png","images/simple/6.png","images/simple/16.png,images/simple/9.png,images/simple/15.png,images/simple/4.png,images/simple/3.png,images/simple/14.png,images/simple/2.png","1","null","","200","429.50500000297325","","","","background","",""
"","null","html-keyboard-response","168","287636","0.0-17.0-0.27","SS1604590327829","","null","","","","","","","","","","","","<img src=images/blank.png width =""500"" height = ""500"" style=""border:5px solid black"">","","",""
"","836.090000004333","stimulus-presentation","169","288690","0.0-17.0-1.27","SS1604590327829","<img src='images/simple/1.png' width ='500' height = '500' style='border:5px solid black'>","40","all_simple","images/simple/1.png","images/simple/6.png","images/simple/16.png,images/simple/9.png,images/simple/15.png,images/simple/4.png,images/simple/3.png,images/simple/14.png,images/simple/2.png","1","null","","200","1036.090000004333","yes","357.3099999994156","","target","",""
"","null","html-keyboard-response","170","289616","0.0-17.0-0.28","SS1604590327829","","null","","","","","","","","","","","","<img src=images/blank.png width =""500"" height = ""500"" style=""border:5px solid black"">","","",""
"","201.79999999527354","stimulus-presentation","171","290049","0.0-17.0-1.28","SS1604590327829","<img src='images/simple/6.png' width ='500' height = '500' style='border:5px solid black'>","40","all_simple","images/simple/1.png","images/simple/6.png","images/simple/16.png,images/simple/9.png,images/simple/15.png,images/simple/4.png,images/simple/3.png,images/simple/14.png,images/simple/2.png","1","null","","200","401.79999999527354","","","","background","",""
"","null","html-keyboard-response","172","290988","0.0-17.0-0.29","SS1604590327829","","null","","","","","","","","","","","","<img src=images/blank.png width =""500"" height = ""500"" style=""border:5px solid black"">","","",""
"","708.9600000035716","stimulus-presentation","173","291923","0.0-17.0-1.29","SS1604590327829","<img src='images/simple/1.png' width ='500' height = '500' style='border:5px solid black'>","40","all_simple","images/simple/1.png","images/simple/6.png","images/simple/16.png,images/simple/9.png,images/simple/15.png,images/simple/4.png,images/simple/3.png,images/simple/14.png,images/simple/2.png","1","null","","200","908.9600000035716","yes","315.33000000490574","","target","",""
"","null","html-keyboard-response","174","293156","0.0-17.0-0.30","SS1604590327829","","null","","","","","","","","","","","","<img src=images/blank.png width =""500"" height = ""500"" style=""border:5px solid black"">","","",""
"","418.7149999997928","stimulus-presentation","175","293804","0.0-17.0-1.30","SS1604590327829","<img src='images/simple/4.png' width ='500' height = '500' style='border:5px solid black'>","40","all_simple","images/simple/1.png","images/simple/6.png","images/simple/16.png,images/simple/9.png,images/simple/15.png,images/simple/4.png,images/simple/3.png,images/simple/14.png,images/simple/2.png","1","null","","200","618.7149999997928","","","","deviant","",""
"","null","html-keyboard-response","176","294653","0.0-17.0-0.31","SS1604590327829","","null","","","","","","","","","","","","<img src=images/blank.png width =""500"" height = ""500"" style=""border:5px solid black"">","","",""
"","289.73499999847263","stimulus-presentation","177","295163","0.0-17.0-1.31","SS1604590327829","<img src='images/simple/6.png' width ='500' height = '500' style='border:5px solid black'>","40","all_simple","images/simple/1.png","images/simple/6.png","images/simple/16.png,images/simple/9.png,images/simple/15.png,images/simple/4.png,images/simple/3.png,images/simple/14.png,images/simple/2.png","1","null","","200","489.73499999847263","","","","background","",""
"","null","html-keyboard-response","178","296300","0.0-17.0-0.32","SS1604590327829","","null","","","","","","","","","","","","<img src=images/blank.png width =""500"" height = ""500"" style=""border:5px solid black"">","","",""
"","226.26000000309432","stimulus-presentation","179","296747","0.0-17.0-1.32","SS1604590327829","<img src='images/simple/6.png' width ='500' height = '500' style='border:5px solid black'>","40","all_simple","images/simple/1.png","images/simple/6.png","images/simple/16.png,images/simple/9.png,images/simple/15.png,images/simple/4.png,images/simple/3.png,images/simple/14.png,images/simple/2.png","1","null","","200","426.2600000030943","","","","background","",""
"","null","html-keyboard-response","180","297799","0.0-17.0-0.33","SS1604590327829","","null","","","","","","","","","","","","<img src=images/blank.png width =""500"" height = ""500"" style=""border:5px solid black"">","","",""
"","240.1850000023842","stimulus-presentation","181","298259","0.0-17.0-1.33","SS1604590327829","<img src='images/simple/6.png' width ='500' height = '500' style='border:5px solid black'>","40","all_simple","images/simple/1.png","images/simple/6.png","images/simple/16.png,images/simple/9.png,images/simple/15.png,images/simple/4.png,images/simple/3.png,images/simple/14.png,images/simple/2.png","1","null","","200","440.1850000023842","","","","background","",""
"","null","html-keyboard-response","182","299468","0.0-17.0-0.34","SS1604590327829","","null","","","","","","","","","","","","<img src=images/blank.png width =""500"" height = ""500"" style=""border:5px solid black"">","","",""
"","826.8749999988358","stimulus-presentation","183","300524","0.0-17.0-1.34","SS1604590327829","<img src='images/simple/1.png' width ='500' height = '500' style='border:5px solid black'>","40","all_simple","images/simple/1.png","images/simple/6.png","images/simple/16.png,images/simple/9.png,images/simple/15.png,images/simple/4.png,images/simple/3.png,images/simple/14.png,images/simple/2.png","1","null","","200","1026.8749999988358","yes","362.5099999990198","","target","",""
"","null","html-keyboard-response","184","301574","0.0-17.0-0.35","SS1604590327829","","null","","","","","","","","","","","","<img src=images/blank.png width =""500"" height = ""500"" style=""border:5px solid black"">","","",""
"","264.5100000008824","stimulus-presentation","185","302066","0.0-17.0-1.35","SS1604590327829","<img src='images/simple/6.png' width ='500' height = '500' style='border:5px solid black'>","40","all_simple","images/simple/1.png","images/simple/6.png","images/simple/16.png,images/simple/9.png,images/simple/15.png,images/simple/4.png,images/simple/3.png,images/simple/14.png,images/simple/2.png","1","null","","200","464.5100000008824","","","","background","",""
"","null","html-keyboard-response","186","303117","0.0-17.0-0.36","SS1604590327829","","null","","","","","","","","","","","","<img src=images/blank.png width =""500"" height = ""500"" style=""border:5px solid black"">","","",""
"","237.5400000018999","stimulus-presentation","187","303571","0.0-17.0-1.36","SS1604590327829","<img src='images/simple/6.png' width ='500' height = '500' style='border:5px solid black'>","40","all_simple","images/simple/1.png","images/simple/6.png","images/simple/16.png,images/simple/9.png,images/simple/15.png,images/simple/4.png,images/simple/3.png,images/simple/14.png,images/simple/2.png","1","null","","200","437.5400000018999","","","","background","",""
"","null","html-keyboard-response","188","304717","0.0-17.0-0.37","SS1604590327829","","null","","","","","","","","","","","","<img src=images/blank.png width =""500"" height = ""500"" style=""border:5px solid black"">","","",""
"","261.63500000257045","stimulus-presentation","189","305204","0.0-17.0-1.37","SS1604590327829","<img src='images/simple/6.png' width ='500' height = '500' style='border:5px solid black'>","40","all_simple","images/simple/1.png","images/simple/6.png","images/simple/16.png,images/simple/9.png,images/simple/15.png,images/simple/4.png,images/simple/3.png,images/simple/14.png,images/simple/2.png","1","null","","200","461.63500000257045","","","","background","",""
"","null","html-keyboard-response","190","306248","0.0-17.0-0.38","SS1604590327829","","null","","","","","","","","","","","","<img src=images/blank.png width =""500"" height = ""500"" style=""border:5px solid black"">","","",""
"","295.1699999975972","stimulus-presentation","191","306763","0.0-17.0-1.38","SS1604590327829","<img src='images/simple/6.png' width ='500' height = '500' style='border:5px solid black'>","40","all_simple","images/simple/1.png","images/simple/6.png","images/simple/16.png,images/simple/9.png,images/simple/15.png,images/simple/4.png,images/simple/3.png,images/simple/14.png,images/simple/2.png","1","null","","200","495.1699999975972","","","","background","",""
"","null","html-keyboard-response","192","308044","0.0-17.0-0.39","SS1604590327829","","null","","","","","","","","","","","","<img src=images/blank.png width =""500"" height = ""500"" style=""border:5px solid black"">","","",""
"","264.58999999886146","stimulus-presentation","193","308523","0.0-17.0-1.39","SS1604590327829","<img src='images/simple/6.png' width ='500' height = '500' style='border:5px solid black'>","40","all_simple","images/simple/1.png","images/simple/6.png","images/simple/16.png,images/simple/9.png,images/simple/15.png,images/simple/4.png,images/simple/3.png,images/simple/14.png,images/simple/2.png","1","null","","200","464.58999999886146","","","","background","",""
"","null","html-keyboard-response","194","309370","0.0-17.0-0.40","SS1604590327829","","null","","","","","","","","","","","","<img src=images/blank.png width =""500"" height = ""500"" style=""border:5px solid black"">","","",""
"","402.0899999959511","stimulus-presentation","195","309994","0.0-17.0-1.40","SS1604590327829","<img src='images/simple/14.png' width ='500' height = '500' style='border:5px solid black'>","40","all_simple","images/simple/1.png","images/simple/6.png","images/simple/16.png,images/simple/9.png,images/simple/15.png,images/simple/4.png,images/simple/3.png,images/simple/14.png,images/simple/2.png","1","null","","200","602.0899999959511","","","","deviant","",""
"","null","html-keyboard-response","196","310836","0.0-17.0-0.41","SS1604590327829","","null","","","","","","","","","","","","<img src=images/blank.png width =""500"" height = ""500"" style=""border:5px solid black"">","","",""
"","319.6650000027148","stimulus-presentation","197","311371","0.0-17.0-1.41","SS1604590327829","<img src='images/simple/6.png' width ='500' height = '500' style='border:5px solid black'>","40","all_simple","images/simple/1.png","images/simple/6.png","images/simple/16.png,images/simple/9.png,images/simple/15.png,images/simple/4.png,images/simple/3.png,images/simple/14.png,images/simple/2.png","1","null","","200","519.6650000027148","","","","background","",""
"","null","html-keyboard-response","198","312467","0.0-17.0-0.42","SS1604590327829","","null","","","","","","","","","","","","<img src=images/blank.png width =""500"" height = ""500"" style=""border:5px solid black"">","","",""
"","262.6400000008289","stimulus-presentation","199","312955","0.0-17.0-1.42","SS1604590327829","<img src='images/simple/6.png' width ='500' height = '500' style='border:5px solid black'>","40","all_simple","images/simple/1.png","images/simple/6.png","images/simple/16.png,images/simple/9.png,images/simple/15.png,images/simple/4.png,images/simple/3.png,images/simple/14.png,images/simple/2.png","1","null","","200","462.6400000008289","","","","background","",""
"","null","html-keyboard-response","200","313770","0.0-17.0-0.43","SS1604590327829","","null","","","","","","","","","","","","<img src=images/blank.png width =""500"" height = ""500"" style=""border:5px solid black"">","","",""
"","267.40000000427244","stimulus-presentation","201","314251","0.0-17.0-1.43","SS1604590327829","<img src='images/simple/6.png' width ='500' height = '500' style='border:5px solid black'>","40","all_simple","images/simple/1.png","images/simple/6.png","images/simple/16.png,images/simple/9.png,images/simple/15.png,images/simple/4.png,images/simple/3.png,images/simple/14.png,images/simple/2.png","1","null","","200","467.40000000427244","","","","background","",""
"","null","html-keyboard-response","202","315538","0.0-17.0-0.44","SS1604590327829","","null","","","","","","","","","","","","<img src=images/blank.png width =""500"" height = ""500"" style=""border:5px solid black"">","","",""
"","554.4350000054692","stimulus-presentation","203","316309","0.0-17.0-1.44","SS1604590327829","<img src='images/simple/16.png' width ='500' height = '500' style='border:5px solid black'>","40","all_simple","images/simple/1.png","images/simple/6.png","images/simple/16.png,images/simple/9.png,images/simple/15.png,images/simple/4.png,images/simple/3.png,images/simple/14.png,images/simple/2.png","1","null","","200","754.4350000054692","","","","deviant","",""
"","null","html-keyboard-response","204","317614","0.0-17.0-0.45","SS1604590327829","","null","","","","","","","","","","","","<img src=images/blank.png width =""500"" height = ""500"" style=""border:5px solid black"">","","",""
"","298.5100000005332","stimulus-presentation","205","318139","0.0-17.0-1.45","SS1604590327829","<img src='images/simple/6.png' width ='500' height = '500' style='border:5px solid black'>","40","all_simple","images/simple/1.png","images/simple/6.png","images/simple/16.png,images/simple/9.png,images/simple/15.png,images/simple/4.png,images/simple/3.png,images/simple/14.png,images/simple/2.png","1","null","","200","498.5100000005332","","","","background","",""
"","null","html-keyboard-response","206","319145","0.0-17.0-0.46","SS1604590327829","","null","","","","","","","","","","","","<img src=images/blank.png width =""500"" height = ""500"" style=""border:5px solid black"">","","",""
"","299.66000000422355","stimulus-presentation","207","319676","0.0-17.0-1.46","SS1604590327829","<img src='images/simple/6.png' width ='500' height = '500' style='border:5px solid black'>","40","all_simple","images/simple/1.png","images/simple/6.png","images/simple/16.png,images/simple/9.png,images/simple/15.png,images/simple/4.png,images/simple/3.png,images/simple/14.png,images/simple/2.png","1","null","","200","499.66000000422355","","","","background","",""
"","null","html-keyboard-response","208","320589","0.0-17.0-0.47","SS1604590327829","","null","","","","","","","","","","","","<img src=images/blank.png width =""500"" height = ""500"" style=""border:5px solid black"">","","",""
"","228.67499999847496","stimulus-presentation","209","321034","0.0-17.0-1.47","SS1604590327829","<img src='images/simple/6.png' width ='500' height = '500' style='border:5px solid black'>","40","all_simple","images/simple/1.png","images/simple/6.png","images/simple/16.png,images/simple/9.png,images/simple/15.png,images/simple/4.png,images/simple/3.png,images/simple/14.png,images/simple/2.png","1","null","","200","428.67499999847496","","","","background","",""
"","null","html-keyboard-response","210","321874","0.0-17.0-0.48","SS1604590327829","","null","","","","","","","","","","","","<img src=images/blank.png width =""500"" height = ""500"" style=""border:5px solid black"">","","",""
"","231.13500000181375","stimulus-presentation","211","322315","0.0-17.0-1.48","SS1604590327829","<img src='images/simple/6.png' width ='500' height = '500' style='border:5px solid black'>","40","all_simple","images/simple/1.png","images/simple/6.png","images/simple/16.png,images/simple/9.png,images/simple/15.png,images/simple/4.png,images/simple/3.png,images/simple/14.png,images/simple/2.png","1","null","","200","431.13500000181375","","","","background","",""
"[{""page_index"":0,""viewing_time"":2596}]","2596","task-instructions","212","324922","0.0-18.0","SS1604590327829","","","","","","","","","","","","","","","","",""
"[{""page_index"":0,""viewing_time"":865.2950000032433},{""page_index"":1,""viewing_time"":3214.0199999994365},{""page_index"":2,""viewing_time"":2121.7000000033295}]","6201.630000003206","instructions","213","331132","0.0-19.0","SS1604590327829","","","","","","","","","","","","","","","","",""
"","null","html-keyboard-response","214","332027","0.0-20.0-0.0","SS1604590327829","","null","","","","","","","","","","","","<img src=images/blank.png width =""500"" height = ""500"" style=""border:5px solid black"">","","",""
"","1250.6799999973737","stimulus-presentation","215","333488","0.0-20.0-1.0","SS1604590327829","<img src='images/simple/8.png' width ='500' height = '500' style='border:5px solid black'>","40","mixed_complex_deviant","images/simple/10.png","images/simple/8.png","images/complex/9.png,images/complex/17.png,images/complex/1.png,images/complex/2.png,images/complex/15.png,images/complex/11.png,images/complex/10.png","2","null","","200","1450.6799999973737","","","","background","",""
"","null","html-keyboard-response","216","334776","0.0-20.0-0.1","SS1604590327829","","null","","","","","","","","","","","","<img src=images/blank.png width =""500"" height = ""500"" style=""border:5px solid black"">","","",""
"","1077.1899999963352","stimulus-presentation","217","336065","0.0-20.0-1.1","SS1604590327829","<img src='images/simple/10.png' width ='500' height = '500' style='border:5px solid black'>","40","mixed_complex_deviant","images/simple/10.png","images/simple/8.png","images/complex/9.png,images/complex/17.png,images/complex/1.png,images/complex/2.png,images/complex/15.png,images/complex/11.png,images/complex/10.png","2","null","","200","1277.1899999963352","yes","516.9600000008359","","target","",""
"","null","html-keyboard-response","218","337333","0.0-20.0-0.2","SS1604590327829","","null","","","","","","","","","","","","<img src=images/blank.png width =""500"" height = ""500"" style=""border:5px solid black"">","","",""
"","384.08999999955995","stimulus-presentation","219","337931","0.0-20.0-1.2","SS1604590327829","<img src='images/complex/11.png' width ='500' height = '500' style='border:5px solid black'>","40","mixed_complex_deviant","images/simple/10.png","images/simple/8.png","images/complex/9.png,images/complex/17.png,images/complex/1.png,images/complex/2.png,images/complex/15.png,images/complex/11.png,images/complex/10.png","2","null","","200","584.08999999956","","","","deviant","",""
"","null","html-keyboard-response","220","339111","0.0-20.0-0.3","SS1604590327829","","null","","","","","","","","","","","","<img src=images/blank.png width =""500"" height = ""500"" style=""border:5px solid black"">","","",""
"","483.02500000136206","stimulus-presentation","221","339810","0.0-20.0-1.3","SS1604590327829","<img src='images/simple/8.png' width ='500' height = '500' style='border:5px solid black'>","40","mixed_complex_deviant","images/simple/10.png","images/simple/8.png","images/complex/9.png,images/complex/17.png,images/complex/1.png,images/complex/2.png,images/complex/15.png,images/complex/11.png,images/complex/10.png","2","null","","200","683.0250000013621","","","","background","",""
"","null","html-keyboard-response","222","341037","0.0-20.0-0.4","SS1604590327829","","null","","","","","","","","","","","","<img src=images/blank.png width =""500"" height = ""500"" style=""border:5px solid black"">","","",""
"","327.08500000444474","stimulus-presentation","223","341586","0.0-20.0-1.4","SS1604590327829","<img src='images/simple/8.png' width ='500' height = '500' style='border:5px solid black'>","40","mixed_complex_deviant","images/simple/10.png","images/simple/8.png","images/complex/9.png,images/complex/17.png,images/complex/1.png,images/complex/2.png,images/complex/15.png,images/complex/11.png,images/complex/10.png","2","null","","200","527.0850000044447","","","","background","",""
"","null","html-keyboard-response","224","342660","0.0-20.0-0.5","SS1604590327829","","null","","","","","","","","","","","","<img src=images/blank.png width =""500"" height = ""500"" style=""border:5px solid black"">","","",""
"","239.93499999778578","stimulus-presentation","225","343121","0.0-20.0-1.5","SS1604590327829","<img src='images/simple/8.png' width ='500' height = '500' style='border:5px solid black'>","40","mixed_complex_deviant","images/simple/10.png","images/simple/8.png","images/complex/9.png,images/complex/17.png,images/complex/1.png,images/complex/2.png,images/complex/15.png,images/complex/11.png,images/complex/10.png","2","null","","200","439.9349999977858","","","","background","",""
"","null","html-keyboard-response","226","344337","0.0-20.0-0.6","SS1604590327829","","null","","","","","","","","","","","","<img src=images/blank.png width =""500"" height = ""500"" style=""border:5px solid black"">","","",""
"","526.3850000046659","stimulus-presentation","227","345076","0.0-20.0-1.6","SS1604590327829","<img src='images/complex/2.png' width ='500' height = '500' style='border:5px solid black'>","40","mixed_complex_deviant","images/simple/10.png","images/simple/8.png","images/complex/9.png,images/complex/17.png,images/complex/1.png,images/complex/2.png,images/complex/15.png,images/complex/11.png,images/complex/10.png","2","null","","200","726.3850000046659","","","","deviant","",""
"","null","html-keyboard-response","228","345934","0.0-20.0-0.7","SS1604590327829","","null","","","","","","","","","","","","<img src=images/blank.png width =""500"" height = ""500"" style=""border:5px solid black"">","","",""
"","391.7199999996228","stimulus-presentation","229","346546","0.0-20.0-1.7","SS1604590327829","<img src='images/simple/8.png' width ='500' height = '500' style='border:5px solid black'>","40","mixed_complex_deviant","images/simple/10.png","images/simple/8.png","images/complex/9.png,images/complex/17.png,images/complex/1.png,images/complex/2.png,images/complex/15.png,images/complex/11.png,images/complex/10.png","2","null","","200","591.7199999996228","","","","background","",""
"","null","html-keyboard-response","230","347630","0.0-20.0-0.8","SS1604590327829","","null","","","","","","","","","","","","<img src=images/blank.png width =""500"" height = ""500"" style=""border:5px solid black"">","","",""
"","264.55499999428866","stimulus-presentation","231","348110","0.0-20.0-1.8","SS1604590327829","<img src='images/complex/1.png' width ='500' height = '500' style='border:5px solid black'>","40","mixed_complex_deviant","images/simple/10.png","images/simple/8.png","images/complex/9.png,images/complex/17.png,images/complex/1.png,images/complex/2.png,images/complex/15.png,images/complex/11.png,images/complex/10.png","2","null","","200","464.55499999428866","","","","deviant","",""
"","null","html-keyboard-response","232","349344","0.0-20.0-0.9","SS1604590327829","","null","","","","","","","","","","","","<img src=images/blank.png width =""500"" height = ""500"" style=""border:5px solid black"">","","",""
"","244.3700000003446","stimulus-presentation","233","349800","0.0-20.0-1.9","SS1604590327829","<img src='images/simple/8.png' width ='500' height = '500' style='border:5px solid black'>","40","mixed_complex_deviant","images/simple/10.png","images/simple/8.png","images/complex/9.png,images/complex/17.png,images/complex/1.png,images/complex/2.png,images/complex/15.png,images/complex/11.png,images/complex/10.png","2","null","","200","444.3700000003446","","","","background","",""
"","null","html-keyboard-response","234","350770","0.0-20.0-0.10","SS1604590327829","","null","","","","","","","","","","","","<img src=images/blank.png width =""500"" height = ""500"" style=""border:5px solid black"">","","",""
"","257.9699999987497","stimulus-presentation","235","351242","0.0-20.0-1.10","SS1604590327829","<img src='images/simple/8.png' width ='500' height = '500' style='border:5px solid black'>","40","mixed_complex_deviant","images/simple/10.png","images/simple/8.png","images/complex/9.png,images/complex/17.png,images/complex/1.png,images/complex/2.png,images/complex/15.png,images/complex/11.png,images/complex/10.png","2","null","","200","457.9699999987497","","","","background","",""
"","null","html-keyboard-response","236","352230","0.0-20.0-0.11","SS1604590327829","","null","","","","","","","","","","","","<img src=images/blank.png width =""500"" height = ""500"" style=""border:5px solid black"">","","",""
"","244.42999999882886","stimulus-presentation","237","352690","0.0-20.0-1.11","SS1604590327829","<img src='images/simple/8.png' width ='500' height = '500' style='border:5px solid black'>","40","mixed_complex_deviant","images/simple/10.png","images/simple/8.png","images/complex/9.png,images/complex/17.png,images/complex/1.png,images/complex/2.png,images/complex/15.png,images/complex/11.png,images/complex/10.png","2","null","","200","444.42999999882886","","","","background","",""
"","null","html-keyboard-response","238","353675","0.0-20.0-0.12","SS1604590327829","","null","","","","","","","","","","","","<img src=images/blank.png width =""500"" height = ""500"" style=""border:5px solid black"">","","",""
"","244.1850000031991","stimulus-presentation","239","354137","0.0-20.0-1.12","SS1604590327829","<img src='images/simple/8.png' width ='500' height = '500' style='border:5px solid black'>","40","mixed_complex_deviant","images/simple/10.png","images/simple/8.png","images/complex/9.png,images/complex/17.png,images/complex/1.png,images/complex/2.png,images/complex/15.png,images/complex/11.png,images/complex/10.png","2","null","","200","444.1850000031991","","","","background","",""
"","null","html-keyboard-response","240","355245","0.0-20.0-0.13","SS1604590327829","","null","","","","","","","","","","","","<img src=images/blank.png width =""500"" height = ""500"" style=""border:5px solid black"">","","",""
"","247.8449999980512","stimulus-presentation","241","355709","0.0-20.0-1.13","SS1604590327829","<img src='images/simple/8.png' width ='500' height = '500' style='border:5px solid black'>","40","mixed_complex_deviant","images/simple/10.png","images/simple/8.png","images/complex/9.png,images/complex/17.png,images/complex/1.png,images/complex/2.png,images/complex/15.png,images/complex/11.png,images/complex/10.png","2","null","","200","447.8449999980512","","","","background","",""
"","null","html-keyboard-response","242","356751","0.0-20.0-0.14","SS1604590327829","","null","","","","","","","","","","","","<img src=images/blank.png width =""500"" height = ""500"" style=""border:5px solid black"">","","",""
"","387.4599999981001","stimulus-presentation","243","357354","0.0-20.0-1.14","SS1604590327829","<img src='images/complex/10.png' width ='500' height = '500' style='border:5px solid black'>","40","mixed_complex_deviant","images/simple/10.png","images/simple/8.png","images/complex/9.png,images/complex/17.png,images/complex/1.png,images/complex/2.png,images/complex/15.png,images/complex/11.png,images/complex/10.png","2","null","","200","587.4599999981001","","","","deviant","",""
"","null","html-keyboard-response","244","358374","0.0-20.0-0.15","SS1604590327829","","null","","","","","","","","","","","","<img src=images/blank.png width =""500"" height = ""500"" style=""border:5px solid black"">","","",""
"","221.4349999994738","stimulus-presentation","245","358809","0.0-20.0-1.15","SS1604590327829","<img src='images/simple/8.png' width ='500' height = '500' style='border:5px solid black'>","40","mixed_complex_deviant","images/simple/10.png","images/simple/8.png","images/complex/9.png,images/complex/17.png,images/complex/1.png,images/complex/2.png,images/complex/15.png,images/complex/11.png,images/complex/10.png","2","null","","200","421.4349999994738","","","","background","",""
"","null","html-keyboard-response","246","360109","0.0-20.0-0.16","SS1604590327829","","null","","","","","","","","","","","","<img src=images/blank.png width =""500"" height = ""500"" style=""border:5px solid black"">","","",""
"","238.57000000134576","stimulus-presentation","247","360562","0.0-20.0-1.16","SS1604590327829","<img src='images/simple/8.png' width ='500' height = '500' style='border:5px solid black'>","40","mixed_complex_deviant","images/simple/10.png","images/simple/8.png","images/complex/9.png,images/complex/17.png,images/complex/1.png,images/complex/2.png,images/complex/15.png,images/complex/11.png,images/complex/10.png","2","null","","200","438.57000000134576","","","","background","",""
"","null","html-keyboard-response","248","361392","0.0-20.0-0.17","SS1604590327829","","null","","","","","","","","","","","","<img src=images/blank.png width =""500"" height = ""500"" style=""border:5px solid black"">","","",""
"","773.6050000021351","stimulus-presentation","249","362378","0.0-20.0-1.17","SS1604590327829","<img src='images/simple/10.png' width ='500' height = '500' style='border:5px solid black'>","40","mixed_complex_deviant","images/simple/10.png","images/simple/8.png","images/complex/9.png,images/complex/17.png,images/complex/1.png,images/complex/2.png,images/complex/15.png,images/complex/11.png,images/complex/10.png","2","null","","200","973.6050000021351","yes","412.1000000013737","","target","",""
"","null","html-keyboard-response","250","363592","0.0-20.0-0.18","SS1604590327829","","null","","","","","","","","","","","","<img src=images/blank.png width =""500"" height = ""500"" style=""border:5px solid black"">","","",""
"","307.4500000002445","stimulus-presentation","251","364122","0.0-20.0-1.18","SS1604590327829","<img src='images/simple/8.png' width ='500' height = '500' style='border:5px solid black'>","40","mixed_complex_deviant","images/simple/10.png","images/simple/8.png","images/complex/9.png,images/complex/17.png,images/complex/1.png,images/complex/2.png,images/complex/15.png,images/complex/11.png,images/complex/10.png","2","null","","200","507.4500000002445","","","","background","",""
"","null","html-keyboard-response","252","365203","0.0-20.0-0.19","SS1604590327829","","null","","","","","","","","","","","","<img src=images/blank.png width =""500"" height = ""500"" style=""border:5px solid black"">","","",""
"","214.01000000332715","stimulus-presentation","253","365643","0.0-20.0-1.19","SS1604590327829","<img src='images/simple/8.png' width ='500' height = '500' style='border:5px solid black'>","40","mixed_complex_deviant","images/simple/10.png","images/simple/8.png","images/complex/9.png,images/complex/17.png,images/complex/1.png,images/complex/2.png,images/complex/15.png,images/complex/11.png,images/complex/10.png","2","null","","200","414.01000000332715","","","","background","",""
"","null","html-keyboard-response","254","366784","0.0-20.0-0.20","SS1604590327829","","null","","","","","","","","","","","","<img src=images/blank.png width =""500"" height = ""500"" style=""border:5px solid black"">","","",""
"","251.76500000088708","stimulus-presentation","255","367266","0.0-20.0-1.20","SS1604590327829","<img src='images/simple/8.png' width ='500' height = '500' style='border:5px solid black'>","40","mixed_complex_deviant","images/simple/10.png","images/simple/8.png","images/complex/9.png,images/complex/17.png,images/complex/1.png,images/complex/2.png,images/complex/15.png,images/complex/11.png,images/complex/10.png","2","null","","200","451.7650000008871","","","","background","",""
"","null","html-keyboard-response","256","368201","0.0-20.0-0.21","SS1604590327829","","null","","","","","","","","","","","","<img src=images/blank.png width =""500"" height = ""500"" style=""border:5px solid black"">","","",""
"","213.0749999996624","stimulus-presentation","257","368642","0.0-20.0-1.21","SS1604590327829","<img src='images/simple/8.png' width ='500' height = '500' style='border:5px solid black'>","40","mixed_complex_deviant","images/simple/10.png","images/simple/8.png","images/complex/9.png,images/complex/17.png,images/complex/1.png,images/complex/2.png,images/complex/15.png,images/complex/11.png,images/complex/10.png","2","null","","200","413.0749999996624","","","","background","",""
"","null","html-keyboard-response","258","369471","0.0-20.0-0.22","SS1604590327829","","null","","","","","","","","","","","","<img src=images/blank.png width =""500"" height = ""500"" style=""border:5px solid black"">","","",""
"","203.02000000083353","stimulus-presentation","259","369892","0.0-20.0-1.22","SS1604590327829","<img src='images/simple/8.png' width ='500' height = '500' style='border:5px solid black'>","40","mixed_complex_deviant","images/simple/10.png","images/simple/8.png","images/complex/9.png,images/complex/17.png,images/complex/1.png,images/complex/2.png,images/complex/15.png,images/complex/11.png,images/complex/10.png","2","null","","200","403.02000000083353","","","","background","",""
"","null","html-keyboard-response","260","371151","0.0-20.0-0.23","SS1604590327829","","null","","","","","","","","","","","","<img src=images/blank.png width =""500"" height = ""500"" style=""border:5px solid black"">","","",""
"","671.1050000012619","stimulus-presentation","261","372041","0.0-20.0-1.23","SS1604590327829","<img src='images/simple/10.png' width ='500' height = '500' style='border:5px solid black'>","40","mixed_complex_deviant","images/simple/10.png","images/simple/8.png","images/complex/9.png,images/complex/17.png,images/complex/1.png,images/complex/2.png,images/complex/15.png,images/complex/11.png,images/complex/10.png","2","null","","200","871.1050000012619","yes","328.23500000085915","","target","",""
"","null","html-keyboard-response","262","373045","0.0-20.0-0.24","SS1604590327829","","null","","","","","","","","","","","","<img src=images/blank.png width =""500"" height = ""500"" style=""border:5px solid black"">","","",""
"","258.38999999541556","stimulus-presentation","263","373536","0.0-20.0-1.24","SS1604590327829","<img src='images/simple/8.png' width ='500' height = '500' style='border:5px solid black'>","40","mixed_complex_deviant","images/simple/10.png","images/simple/8.png","images/complex/9.png,images/complex/17.png,images/complex/1.png,images/complex/2.png,images/complex/15.png,images/complex/11.png,images/complex/10.png","2","null","","200","458.38999999541556","","","","background","",""
"","null","html-keyboard-response","264","374379","0.0-20.0-0.25","SS1604590327829","","null","","","","","","","","","","","","<img src=images/blank.png width =""500"" height = ""500"" style=""border:5px solid black"">","","",""
"","201.8549999993411","stimulus-presentation","265","374802","0.0-20.0-1.25","SS1604590327829","<img src='images/simple/8.png' width ='500' height = '500' style='border:5px solid black'>","40","mixed_complex_deviant","images/simple/10.png","images/simple/8.png","images/complex/9.png,images/complex/17.png,images/complex/1.png,images/complex/2.png,images/complex/15.png,images/complex/11.png,images/complex/10.png","2","null","","200","401.8549999993411","","","","background","",""
"","null","html-keyboard-response","266","375719","0.0-20.0-0.26","SS1604590327829","","null","","","","","","","","","","","","<img src=images/blank.png width =""500"" height = ""500"" style=""border:5px solid black"">","","",""
"","202.45499999873573","stimulus-presentation","267","376139","0.0-20.0-1.26","SS1604590327829","<img src='images/simple/8.png' width ='500' height = '500' style='border:5px solid black'>","40","mixed_complex_deviant","images/simple/10.png","images/simple/8.png","images/complex/9.png,images/complex/17.png,images/complex/1.png,images/complex/2.png,images/complex/15.png,images/complex/11.png,images/complex/10.png","2","null","","200","402.45499999873573","","","","background","",""
"","null","html-keyboard-response","268","377059","0.0-20.0-0.27","SS1604590327829","","null","","","","","","","","","","","","<img src=images/blank.png width =""500"" height = ""500"" style=""border:5px solid black"">","","",""
"","546.2250000055064","stimulus-presentation","269","377826","0.0-20.0-1.27","SS1604590327829","<img src='images/complex/15.png' width ='500' height = '500' style='border:5px solid black'>","40","mixed_complex_deviant","images/simple/10.png","images/simple/8.png","images/complex/9.png,images/complex/17.png,images/complex/1.png,images/complex/2.png,images/complex/15.png,images/complex/11.png,images/complex/10.png","2","null","","200","746.2250000055064","","","","deviant","",""
"","null","html-keyboard-response","270","378742","0.0-20.0-0.28","SS1604590327829","","null","","","","","","","","","","","","<img src=images/blank.png width =""500"" height = ""500"" style=""border:5px solid black"">","","",""
"","221.8700000012177","stimulus-presentation","271","379187","0.0-20.0-1.28","SS1604590327829","<img src='images/simple/8.png' width ='500' height = '500' style='border:5px solid black'>","40","mixed_complex_deviant","images/simple/10.png","images/simple/8.png","images/complex/9.png,images/complex/17.png,images/complex/1.png,images/complex/2.png,images/complex/15.png,images/complex/11.png,images/complex/10.png","2","null","","200","421.8700000012177","","","","background","",""
"","null","html-keyboard-response","272","380198","0.0-20.0-0.29","SS1604590327829","","null","","","","","","","","","","","","<img src=images/blank.png width =""500"" height = ""500"" style=""border:5px solid black"">","","",""
"","210.3900000001886","stimulus-presentation","273","380638","0.0-20.0-1.29","SS1604590327829","<img src='images/simple/8.png' width ='500' height = '500' style='border:5px solid black'>","40","mixed_complex_deviant","images/simple/10.png","images/simple/8.png","images/complex/9.png,images/complex/17.png,images/complex/1.png,images/complex/2.png,images/complex/15.png,images/complex/11.png,images/complex/10.png","2","null","","200","410.3900000001886","","","","background","",""
"","null","html-keyboard-response","274","381635","0.0-20.0-0.30","SS1604590327829","","null","","","","","","","","","","","","<img src=images/blank.png width =""500"" height = ""500"" style=""border:5px solid black"">","","",""
"","194.2300000009709","stimulus-presentation","275","382050","0.0-20.0-1.30","SS1604590327829","<img src='images/simple/8.png' width ='500' height = '500' style='border:5px solid black'>","40","mixed_complex_deviant","images/simple/10.png","images/simple/8.png","images/complex/9.png,images/complex/17.png,images/complex/1.png,images/complex/2.png,images/complex/15.png,images/complex/11.png,images/complex/10.png","2","null","","200","394.2300000009709","","","","background","",""
"","null","html-keyboard-response","276","383265","0.0-20.0-0.31","SS1604590327829","","null","","","","","","","","","","","","<img src=images/blank.png width =""500"" height = ""500"" style=""border:5px solid black"">","","",""
"","407.98999999969965","stimulus-presentation","277","383897","0.0-20.0-1.31","SS1604590327829","<img src='images/complex/17.png' width ='500' height = '500' style='border:5px solid black'>","40","mixed_complex_deviant","images/simple/10.png","images/simple/8.png","images/complex/9.png,images/complex/17.png,images/complex/1.png,images/complex/2.png,images/complex/15.png,images/complex/11.png,images/complex/10.png","2","null","","200","607.9899999996996","","","","deviant","",""
"","null","html-keyboard-response","278","384761","0.0-20.0-0.32","SS1604590327829","","null","","","","","","","","","","","","<img src=images/blank.png width =""500"" height = ""500"" style=""border:5px solid black"">","","",""
"","260.6000000014319","stimulus-presentation","279","385250","0.0-20.0-1.32","SS1604590327829","<img src='images/simple/8.png' width ='500' height = '500' style='border:5px solid black'>","40","mixed_complex_deviant","images/simple/10.png","images/simple/8.png","images/complex/9.png,images/complex/17.png,images/complex/1.png,images/complex/2.png,images/complex/15.png,images/complex/11.png,images/complex/10.png","2","null","","200","460.6000000014319","","","","background","",""
"","null","html-keyboard-response","280","386551","0.0-20.0-0.33","SS1604590327829","","null","","","","","","","","","","","","<img src=images/blank.png width =""500"" height = ""500"" style=""border:5px solid black"">","","",""
"","236.7549999980838","stimulus-presentation","281","387019","0.0-20.0-1.33","SS1604590327829","<img src='images/simple/8.png' width ='500' height = '500' style='border:5px solid black'>","40","mixed_complex_deviant","images/simple/10.png","images/simple/8.png","images/complex/9.png,images/complex/17.png,images/complex/1.png,images/complex/2.png,images/complex/15.png,images/complex/11.png,images/complex/10.png","2","null","","200","436.7549999980838","","","","background","",""
"","null","html-keyboard-response","282","387845","0.0-20.0-0.34","SS1604590327829","","null","","","","","","","","","","","","<img src=images/blank.png width =""500"" height = ""500"" style=""border:5px solid black"">","","",""
"","752.970000001369","stimulus-presentation","283","388816","0.0-20.0-1.34","SS1604590327829","<img src='images/simple/10.png' width ='500' height = '500' style='border:5px solid black'>","40","mixed_complex_deviant","images/simple/10.png","images/simple/8.png","images/complex/9.png,images/complex/17.png,images/complex/1.png,images/complex/2.png,images/complex/15.png,images/complex/11.png,images/complex/10.png","2","null","","200","952.970000001369","yes","298.0500000048778","","target","",""
"","null","html-keyboard-response","284","390125","0.0-20.0-0.35","SS1604590327829","","null","","","","","","","","","","","","<img src=images/blank.png width =""500"" height = ""500"" style=""border:5px solid black"">","","",""
