"view_history","rt","trial_type","trial_index","time_elapsed","internal_node_id","subject","trial_stimulus","key_press","task_type","task_target_stimulus","task_background_stimulus","task_deviant_stimuli","task_order_number","block_order_number","trial_order_number","minimum_viewing_duration","trial_looking_time","trial_pressed_space_bar","trial_space_bar_rt","stimulus","trial_stimulus_type","responses","question_order"
"[{""page_index"":0,""viewing_time"":1714.3750000013824}]","1714.8850000012317","instructions","0","1733","0.0-0.0","SS1604513288123","","","","","","","","","","","","","","","","",""
"[{""page_index"":0,""viewing_time"":15014.01000000078},{""page_index"":1,""viewing_time"":14469.864999999118},{""page_index"":2,""viewing_time"":3159.045000000333},{""page_index"":3,""viewing_time"":20771.310000000085},{""page_index"":4,""viewing_time"":7659.819999998945},{""page_index"":5,""viewing_time"":3990.235000001121},{""page_index"":6,""viewing_time"":2437.9250000001775},{""page_index"":7,""viewing_time"":3381.905000000188},{""page_index"":8,""viewing_time"":1620.054999999411}]","72504.59500000034","instructions","1","74243","0.0-1.0","SS1604513288123","","","","","","","","","","","","","","","","",""
"[{""page_index"":0,""viewing_time"":3425.554999999804},{""page_index"":1,""viewing_time"":6031.935000000885},{""page_index"":2,""viewing_time"":2448.8899999996647}]","11906.764999999723","instructions","2","86152","0.0-2.0","SS1604513288123","","","","","","","","","","","","","","","","",""
"","4621.194999999716","practice-block","3","90978","0.0-3.0","SS1604513288123","<img src='images/practice/practice_background.jpeg' width ='500' height = '500' style='border:5px solid black'>","40","null","images/practice/practice_target.jpg","null","null","null","null","","200","4821.194999999716","","","","","",""
"","null","html-keyboard-response","4","92261","0.0-4.0","SS1604513288123","","null","","","","","","","","","","","","<img src=images/blank.png width =""500"" height = ""500"" style=""border:5px solid black"">","","",""
"","1625.8749999997235","practice-block","5","94090","0.0-5.0","SS1604513288123","<img src='images/practice/practice_background.jpeg' width ='500' height = '500' style='border:5px solid black'>","40","null","images/practice/practice_target.jpg","null","null","null","null","","200","1825.8749999997235","","","","","",""
"","null","html-keyboard-response","6","95249","0.0-6.0","SS1604513288123","","null","","","","","","","","","","","","<img src=images/blank.png width =""500"" height = ""500"" style=""border:5px solid black"">","","",""
"","4426.724999999351","practice-block","7","99882","0.0-7.0","SS1604513288123","<img src='images/practice/practice_deviant.jpeg' width ='500' height = '500' style='border:5px solid black'>","40","null","images/practice/practice_target.jpg","null","null","null","null","","200","4626.724999999351","","","","","",""
"","null","html-keyboard-response","8","101138","0.0-8.0","SS1604513288123","","null","","","","","","","","","","","","<img src=images/blank.png width =""500"" height = ""500"" style=""border:5px solid black"">","","",""
"","2621.3499999994383","practice-block","9","108268","0.0-9.0-0.0","SS1604513288123","<img src='images/practice/practice_target.jpg' width ='500' height = '500' style='border:5px solid black'>","40","null","images/practice/practice_target.jpg","null","null","null","null","","200","2821.3499999994383","","","","","",""
"","26017.16499999931","practice-block","10","134490","0.0-9.1-0.1","SS1604513288123","<img src='images/practice/practice_target.jpg' width ='500' height = '500' style='border:5px solid black'>","40","null","images/practice/practice_target.jpg","null","null","null","null","","200","26217.16499999931","yes","679.2949999999109","","","",""
"","null","html-keyboard-response","11","135630","0.0-10.0","SS1604513288123","","null","","","","","","","","","","","","<img src=images/blank.png width =""500"" height = ""500"" style=""border:5px solid black"">","","",""
"","2354.8399999999674","practice-block","12","138192","0.0-11.0","SS1604513288123","<img src='images/practice/practice_background.jpeg' width ='500' height = '500' style='border:5px solid black'>","40","null","images/practice/practice_target.jpg","null","null","null","null","","200","2554.8399999999674","","","","","",""
"[{""page_index"":0,""viewing_time"":2658}]","2658","task-instructions","13","140852","0.0-12.0","SS1604513288123","","","","","","","","","","","","","","","","",""
"[{""page_index"":0,""viewing_time"":1917.6999999999534},{""page_index"":1,""viewing_time"":10439.430000000342},{""page_index"":2,""viewing_time"":2630.284999999276}]","14987.810000000522","instructions","14","155842","0.0-13.0","SS1604513288123","","","","","","","","","","","","","","","","",""
"","null","html-keyboard-response","15","156927","0.0-14.0-0.0","SS1604513288123","","null","","","","","","","","","","","","<img src=images/blank.png width =""500"" height = ""500"" style=""border:5px solid black"">","","",""
"","2540.510000000737","stimulus-presentation","16","159681","0.0-14.0-1.0","SS1604513288123","<img src='images/complex/4.png' width ='500' height = '500' style='border:5px solid black'>","40","mixed_simple_deviant","images/complex/3.png","images/complex/4.png","images/simple/4.png,images/simple/11.png,images/simple/10.png,images/simple/2.png,images/simple/17.png,images/simple/16.png,images/simple/1.png","0","null","","200","2740.510000000737","","","","background","",""
"","null","html-keyboard-response","17","160860","0.0-14.0-0.1","SS1604513288123","","null","","","","","","","","","","","","<img src=images/blank.png width =""500"" height = ""500"" style=""border:5px solid black"">","","",""
"","1187.58999999956","stimulus-presentation","18","162262","0.0-14.0-1.1","SS1604513288123","<img src='images/simple/10.png' width ='500' height = '500' style='border:5px solid black'>","40","mixed_simple_deviant","images/complex/3.png","images/complex/4.png","images/simple/4.png,images/simple/11.png,images/simple/10.png,images/simple/2.png,images/simple/17.png,images/simple/16.png,images/simple/1.png","0","null","","200","1387.58999999956","","","","deviant","",""
"","null","html-keyboard-response","19","163204","0.0-14.0-0.2","SS1604513288123","","null","","","","","","","","","","","","<img src=images/blank.png width =""500"" height = ""500"" style=""border:5px solid black"">","","",""
"","929.7249999999767","stimulus-presentation","20","164342","0.0-14.0-1.2","SS1604513288123","<img src='images/complex/4.png' width ='500' height = '500' style='border:5px solid black'>","40","mixed_simple_deviant","images/complex/3.png","images/complex/4.png","images/simple/4.png,images/simple/11.png,images/simple/10.png,images/simple/2.png,images/simple/17.png,images/simple/16.png,images/simple/1.png","0","null","","200","1129.7249999999767","","","","background","",""
"","null","html-keyboard-response","21","165573","0.0-14.0-0.3","SS1604513288123","","null","","","","","","","","","","","","<img src=images/blank.png width =""500"" height = ""500"" style=""border:5px solid black"">","","",""
"","1132.2550000004412","stimulus-presentation","22","166912","0.0-14.0-1.3","SS1604513288123","<img src='images/complex/4.png' width ='500' height = '500' style='border:5px solid black'>","40","mixed_simple_deviant","images/complex/3.png","images/complex/4.png","images/simple/4.png,images/simple/11.png,images/simple/10.png,images/simple/2.png,images/simple/17.png,images/simple/16.png,images/simple/1.png","0","null","","200","1332.2550000004412","","","","background","",""
"","null","html-keyboard-response","23","168165","0.0-14.0-0.4","SS1604513288123","","null","","","","","","","","","","","","<img src=images/blank.png width =""500"" height = ""500"" style=""border:5px solid black"">","","",""
"","889.5850000008068","stimulus-presentation","24","169262","0.0-14.0-1.4","SS1604513288123","<img src='images/complex/4.png' width ='500' height = '500' style='border:5px solid black'>","40","mixed_simple_deviant","images/complex/3.png","images/complex/4.png","images/simple/4.png,images/simple/11.png,images/simple/10.png,images/simple/2.png,images/simple/17.png,images/simple/16.png,images/simple/1.png","0","null","","200","1089.5850000008068","","","","background","",""
"","null","html-keyboard-response","25","170193","0.0-14.0-0.5","SS1604513288123","","null","","","","","","","","","","","","<img src=images/blank.png width =""500"" height = ""500"" style=""border:5px solid black"">","","",""
"","792.9199999998673","stimulus-presentation","26","171193","0.0-14.0-1.5","SS1604513288123","<img src='images/complex/4.png' width ='500' height = '500' style='border:5px solid black'>","40","mixed_simple_deviant","images/complex/3.png","images/complex/4.png","images/simple/4.png,images/simple/11.png,images/simple/10.png,images/simple/2.png,images/simple/17.png,images/simple/16.png,images/simple/1.png","0","null","","200","992.9199999998673","","","","background","",""
"","null","html-keyboard-response","27","172460","0.0-14.0-0.6","SS1604513288123","","null","","","","","","","","","","","","<img src=images/blank.png width =""500"" height = ""500"" style=""border:5px solid black"">","","",""
"","3776.329999998794","stimulus-presentation","28","176443","0.0-14.0-1.6","SS1604513288123","<img src='images/simple/2.png' width ='500' height = '500' style='border:5px solid black'>","40","mixed_simple_deviant","images/complex/3.png","images/complex/4.png","images/simple/4.png,images/simple/11.png,images/simple/10.png,images/simple/2.png,images/simple/17.png,images/simple/16.png,images/simple/1.png","0","null","","200","3976.329999998794","","","","deviant","",""
"","null","html-keyboard-response","29","177285","0.0-14.0-0.7","SS1604513288123","","null","","","","","","","","","","","","<img src=images/blank.png width =""500"" height = ""500"" style=""border:5px solid black"">","","",""
"","849.6700000014098","stimulus-presentation","30","178342","0.0-14.0-1.7","SS1604513288123","<img src='images/complex/4.png' width ='500' height = '500' style='border:5px solid black'>","40","mixed_simple_deviant","images/complex/3.png","images/complex/4.png","images/simple/4.png,images/simple/11.png,images/simple/10.png,images/simple/2.png,images/simple/17.png,images/simple/16.png,images/simple/1.png","0","null","","200","1049.6700000014098","","","","background","",""
"","null","html-keyboard-response","31","179526","0.0-14.0-0.8","SS1604513288123","","null","","","","","","","","","","","","<img src=images/blank.png width =""500"" height = ""500"" style=""border:5px solid black"">","","",""
"","929.109999999142","stimulus-presentation","32","180662","0.0-14.0-1.8","SS1604513288123","<img src='images/complex/4.png' width ='500' height = '500' style='border:5px solid black'>","40","mixed_simple_deviant","images/complex/3.png","images/complex/4.png","images/simple/4.png,images/simple/11.png,images/simple/10.png,images/simple/2.png,images/simple/17.png,images/simple/16.png,images/simple/1.png","0","null","","200","1129.109999999142","","","","background","",""
"","null","html-keyboard-response","33","181946","0.0-14.0-0.9","SS1604513288123","","null","","","","","","","","","","","","<img src=images/blank.png width =""500"" height = ""500"" style=""border:5px solid black"">","","",""
"","1226.2649999993446","stimulus-presentation","34","183378","0.0-14.0-1.9","SS1604513288123","<img src='images/complex/3.png' width ='500' height = '500' style='border:5px solid black'>","40","mixed_simple_deviant","images/complex/3.png","images/complex/4.png","images/simple/4.png,images/simple/11.png,images/simple/10.png,images/simple/2.png,images/simple/17.png,images/simple/16.png,images/simple/1.png","0","null","","200","1426.2649999993446","","","","target","",""
"","null","html-keyboard-response","35","184318","0.0-14.0-0.10","SS1604513288123","","null","","","","","","","","","","","","<img src=images/blank.png width =""500"" height = ""500"" style=""border:5px solid black"">","","",""
"","1078.639999999723","stimulus-presentation","36","185603","0.0-14.0-1.10","SS1604513288123","<img src='images/complex/4.png' width ='500' height = '500' style='border:5px solid black'>","40","mixed_simple_deviant","images/complex/3.png","images/complex/4.png","images/simple/4.png,images/simple/11.png,images/simple/10.png,images/simple/2.png,images/simple/17.png,images/simple/16.png,images/simple/1.png","0","null","","200","1278.639999999723","","","","background","",""
"","null","html-keyboard-response","37","186468","0.0-14.0-0.11","SS1604513288123","","null","","","","","","","","","","","","<img src=images/blank.png width =""500"" height = ""500"" style=""border:5px solid black"">","","",""
"","535.7450000010431","stimulus-presentation","38","187212","0.0-14.0-1.11","SS1604513288123","<img src='images/complex/4.png' width ='500' height = '500' style='border:5px solid black'>","40","mixed_simple_deviant","images/complex/3.png","images/complex/4.png","images/simple/4.png,images/simple/11.png,images/simple/10.png,images/simple/2.png,images/simple/17.png,images/simple/16.png,images/simple/1.png","0","null","","200","735.7450000010431","","","","background","",""
"","null","html-keyboard-response","39","188411","0.0-14.0-0.12","SS1604513288123","","null","","","","","","","","","","","","<img src=images/blank.png width =""500"" height = ""500"" style=""border:5px solid black"">","","",""
"","736.7199999989534","stimulus-presentation","40","189352","0.0-14.0-1.12","SS1604513288123","<img src='images/complex/4.png' width ='500' height = '500' style='border:5px solid black'>","40","mixed_simple_deviant","images/complex/3.png","images/complex/4.png","images/simple/4.png,images/simple/11.png,images/simple/10.png,images/simple/2.png,images/simple/17.png,images/simple/16.png,images/simple/1.png","0","null","","200","936.7199999989534","","","","background","",""
"","null","html-keyboard-response","41","190473","0.0-14.0-0.13","SS1604513288123","","null","","","","","","","","","","","","<img src=images/blank.png width =""500"" height = ""500"" style=""border:5px solid black"">","","",""
"","1461.2550000001793","stimulus-presentation","42","192142","0.0-14.0-1.13","SS1604513288123","<img src='images/complex/3.png' width ='500' height = '500' style='border:5px solid black'>","40","mixed_simple_deviant","images/complex/3.png","images/complex/4.png","images/simple/4.png,images/simple/11.png,images/simple/10.png,images/simple/2.png,images/simple/17.png,images/simple/16.png,images/simple/1.png","0","null","","200","1661.2550000001793","","","","target","",""
"","null","html-keyboard-response","43","193251","0.0-14.0-0.14","SS1604513288123","","null","","","","","","","","","","","","<img src=images/blank.png width =""500"" height = ""500"" style=""border:5px solid black"">","","",""
"","722.4100000003236","stimulus-presentation","44","194180","0.0-14.0-1.14","SS1604513288123","<img src='images/complex/4.png' width ='500' height = '500' style='border:5px solid black'>","40","mixed_simple_deviant","images/complex/3.png","images/complex/4.png","images/simple/4.png,images/simple/11.png,images/simple/10.png,images/simple/2.png,images/simple/17.png,images/simple/16.png,images/simple/1.png","0","null","","200","922.4100000003236","","","","background","",""
"","null","html-keyboard-response","45","195226","0.0-14.0-0.15","SS1604513288123","","null","","","","","","","","","","","","<img src=images/blank.png width =""500"" height = ""500"" style=""border:5px solid black"">","","",""
"","889.1899999998568","stimulus-presentation","46","196321","0.0-14.0-1.15","SS1604513288123","<img src='images/simple/16.png' width ='500' height = '500' style='border:5px solid black'>","40","mixed_simple_deviant","images/complex/3.png","images/complex/4.png","images/simple/4.png,images/simple/11.png,images/simple/10.png,images/simple/2.png,images/simple/17.png,images/simple/16.png,images/simple/1.png","0","null","","200","1089.1899999998568","","","","deviant","",""
"","null","html-keyboard-response","47","197406","0.0-14.0-0.16","SS1604513288123","","null","","","","","","","","","","","","<img src=images/blank.png width =""500"" height = ""500"" style=""border:5px solid black"">","","",""
"","659.5249999991502","stimulus-presentation","48","198271","0.0-14.0-1.16","SS1604513288123","<img src='images/complex/4.png' width ='500' height = '500' style='border:5px solid black'>","40","mixed_simple_deviant","images/complex/3.png","images/complex/4.png","images/simple/4.png,images/simple/11.png,images/simple/10.png,images/simple/2.png,images/simple/17.png,images/simple/16.png,images/simple/1.png","0","null","","200","859.5249999991502","","","","background","",""
"","null","html-keyboard-response","49","199562","0.0-14.0-0.17","SS1604513288123","","null","","","","","","","","","","","","<img src=images/blank.png width =""500"" height = ""500"" style=""border:5px solid black"">","","",""
"","1011.2000000008265","stimulus-presentation","50","200780","0.0-14.0-1.17","SS1604513288123","<img src='images/complex/4.png' width ='500' height = '500' style='border:5px solid black'>","40","mixed_simple_deviant","images/complex/3.png","images/complex/4.png","images/simple/4.png,images/simple/11.png,images/simple/10.png,images/simple/2.png,images/simple/17.png,images/simple/16.png,images/simple/1.png","0","null","","200","1211.2000000008265","","","","background","",""
"","null","html-keyboard-response","51","202037","0.0-14.0-0.18","SS1604513288123","","null","","","","","","","","","","","","<img src=images/blank.png width =""500"" height = ""500"" style=""border:5px solid black"">","","",""
"","686.8200000007928","stimulus-presentation","52","202932","0.0-14.0-1.18","SS1604513288123","<img src='images/complex/4.png' width ='500' height = '500' style='border:5px solid black'>","40","mixed_simple_deviant","images/complex/3.png","images/complex/4.png","images/simple/4.png,images/simple/11.png,images/simple/10.png,images/simple/2.png,images/simple/17.png,images/simple/16.png,images/simple/1.png","0","null","","200","886.8200000007928","","","","background","",""
"","null","html-keyboard-response","53","203748","0.0-14.0-0.19","SS1604513288123","","null","","","","","","","","","","","","<img src=images/blank.png width =""500"" height = ""500"" style=""border:5px solid black"">","","",""
"","777.2800000002317","stimulus-presentation","54","204732","0.0-14.0-1.19","SS1604513288123","<img src='images/complex/4.png' width ='500' height = '500' style='border:5px solid black'>","40","mixed_simple_deviant","images/complex/3.png","images/complex/4.png","images/simple/4.png,images/simple/11.png,images/simple/10.png,images/simple/2.png,images/simple/17.png,images/simple/16.png,images/simple/1.png","0","null","","200","977.2800000002317","","","","background","",""
"","null","html-keyboard-response","55","205882","0.0-14.0-0.20","SS1604513288123","","null","","","","","","","","","","","","<img src=images/blank.png width =""500"" height = ""500"" style=""border:5px solid black"">","","",""
"","501.0249999995576","stimulus-presentation","56","206591","0.0-14.0-1.20","SS1604513288123","<img src='images/simple/17.png' width ='500' height = '500' style='border:5px solid black'>","40","mixed_simple_deviant","images/complex/3.png","images/complex/4.png","images/simple/4.png,images/simple/11.png,images/simple/10.png,images/simple/2.png,images/simple/17.png,images/simple/16.png,images/simple/1.png","0","null","","200","701.0249999995576","","","","deviant","",""
"","null","html-keyboard-response","57","207425","0.0-14.0-0.21","SS1604513288123","","null","","","","","","","","","","","","<img src=images/blank.png width =""500"" height = ""500"" style=""border:5px solid black"">","","",""
"","748.0850000010978","stimulus-presentation","58","208379","0.0-14.0-1.21","SS1604513288123","<img src='images/complex/4.png' width ='500' height = '500' style='border:5px solid black'>","40","mixed_simple_deviant","images/complex/3.png","images/complex/4.png","images/simple/4.png,images/simple/11.png,images/simple/10.png,images/simple/2.png,images/simple/17.png,images/simple/16.png,images/simple/1.png","0","null","","200","948.0850000010978","","","","background","",""
"","null","html-keyboard-response","59","209282","0.0-14.0-0.22","SS1604513288123","","null","","","","","","","","","","","","<img src=images/blank.png width =""500"" height = ""500"" style=""border:5px solid black"">","","",""
"","647.0349999999453","stimulus-presentation","60","210137","0.0-14.0-1.22","SS1604513288123","<img src='images/complex/4.png' width ='500' height = '500' style='border:5px solid black'>","40","mixed_simple_deviant","images/complex/3.png","images/complex/4.png","images/simple/4.png,images/simple/11.png,images/simple/10.png,images/simple/2.png,images/simple/17.png,images/simple/16.png,images/simple/1.png","0","null","","200","847.0349999999453","","","","background","",""
"","null","html-keyboard-response","61","211287","0.0-14.0-0.23","SS1604513288123","","null","","","","","","","","","","","","<img src=images/blank.png width =""500"" height = ""500"" style=""border:5px solid black"">","","",""
"","958.5799999986193","stimulus-presentation","62","212451","0.0-14.0-1.23","SS1604513288123","<img src='images/complex/4.png' width ='500' height = '500' style='border:5px solid black'>","40","mixed_simple_deviant","images/complex/3.png","images/complex/4.png","images/simple/4.png,images/simple/11.png,images/simple/10.png,images/simple/2.png,images/simple/17.png,images/simple/16.png,images/simple/1.png","0","null","","200","1158.5799999986193","","","","background","",""
"","null","html-keyboard-response","63","213407","0.0-14.0-0.24","SS1604513288123","","null","","","","","","","","","","","","<img src=images/blank.png width =""500"" height = ""500"" style=""border:5px solid black"">","","",""
"","537.7700000008044","stimulus-presentation","64","214152","0.0-14.0-1.24","SS1604513288123","<img src='images/complex/4.png' width ='500' height = '500' style='border:5px solid black'>","40","mixed_simple_deviant","images/complex/3.png","images/complex/4.png","images/simple/4.png,images/simple/11.png,images/simple/10.png,images/simple/2.png,images/simple/17.png,images/simple/16.png,images/simple/1.png","0","null","","200","737.7700000008044","","","","background","",""
"","null","html-keyboard-response","65","215390","0.0-14.0-0.25","SS1604513288123","","null","","","","","","","","","","","","<img src=images/blank.png width =""500"" height = ""500"" style=""border:5px solid black"">","","",""
"","504.42499999917345","stimulus-presentation","66","216102","0.0-14.0-1.25","SS1604513288123","<img src='images/complex/4.png' width ='500' height = '500' style='border:5px solid black'>","40","mixed_simple_deviant","images/complex/3.png","images/complex/4.png","images/simple/4.png,images/simple/11.png,images/simple/10.png,images/simple/2.png,images/simple/17.png,images/simple/16.png,images/simple/1.png","0","null","","200","704.4249999991735","","","","background","",""
"","null","html-keyboard-response","67","217252","0.0-14.0-0.26","SS1604513288123","","null","","","","","","","","","","","","<img src=images/blank.png width =""500"" height = ""500"" style=""border:5px solid black"">","","",""
"","371.83499999993364","stimulus-presentation","68","217831","0.0-14.0-1.26","SS1604513288123","<img src='images/complex/4.png' width ='500' height = '500' style='border:5px solid black'>","40","mixed_simple_deviant","images/complex/3.png","images/complex/4.png","images/simple/4.png,images/simple/11.png,images/simple/10.png,images/simple/2.png,images/simple/17.png,images/simple/16.png,images/simple/1.png","0","null","","200","571.8349999999336","","","","background","",""
"","null","html-keyboard-response","69","218841","0.0-14.0-0.27","SS1604513288123","","null","","","","","","","","","","","","<img src=images/blank.png width =""500"" height = ""500"" style=""border:5px solid black"">","","",""
"","1212.2500000004948","stimulus-presentation","70","220299","0.0-14.0-1.27","SS1604513288123","<img src='images/complex/4.png' width ='500' height = '500' style='border:5px solid black'>","40","mixed_simple_deviant","images/complex/3.png","images/complex/4.png","images/simple/4.png,images/simple/11.png,images/simple/10.png,images/simple/2.png,images/simple/17.png,images/simple/16.png,images/simple/1.png","0","null","","200","1412.2500000004948","","","","background","",""
"","null","html-keyboard-response","71","221442","0.0-14.0-0.28","SS1604513288123","","null","","","","","","","","","","","","<img src=images/blank.png width =""500"" height = ""500"" style=""border:5px solid black"">","","",""
"","1284.004999999539","stimulus-presentation","72","222932","0.0-14.0-1.28","SS1604513288123","<img src='images/complex/3.png' width ='500' height = '500' style='border:5px solid black'>","40","mixed_simple_deviant","images/complex/3.png","images/complex/4.png","images/simple/4.png,images/simple/11.png,images/simple/10.png,images/simple/2.png,images/simple/17.png,images/simple/16.png,images/simple/1.png","0","null","","200","1484.004999999539","","","","target","",""
"","null","html-keyboard-response","73","224052","0.0-14.0-0.29","SS1604513288123","","null","","","","","","","","","","","","<img src=images/blank.png width =""500"" height = ""500"" style=""border:5px solid black"">","","",""
"","956.9599999995553","stimulus-presentation","74","225212","0.0-14.0-1.29","SS1604513288123","<img src='images/complex/4.png' width ='500' height = '500' style='border:5px solid black'>","40","mixed_simple_deviant","images/complex/3.png","images/complex/4.png","images/simple/4.png,images/simple/11.png,images/simple/10.png,images/simple/2.png,images/simple/17.png,images/simple/16.png,images/simple/1.png","0","null","","200","1156.9599999995553","","","","background","",""
"","null","html-keyboard-response","75","226059","0.0-14.0-0.30","SS1604513288123","","null","","","","","","","","","","","","<img src=images/blank.png width =""500"" height = ""500"" style=""border:5px solid black"">","","",""
"","2495.5750000008265","stimulus-presentation","76","228762","0.0-14.0-1.30","SS1604513288123","<img src='images/simple/1.png' width ='500' height = '500' style='border:5px solid black'>","40","mixed_simple_deviant","images/complex/3.png","images/complex/4.png","images/simple/4.png,images/simple/11.png,images/simple/10.png,images/simple/2.png,images/simple/17.png,images/simple/16.png,images/simple/1.png","0","null","","200","2695.5750000008265","","","","deviant","",""
"","null","html-keyboard-response","77","229735","0.0-14.0-0.31","SS1604513288123","","null","","","","","","","","","","","","<img src=images/blank.png width =""500"" height = ""500"" style=""border:5px solid black"">","","",""
"","967.4700000013981","stimulus-presentation","78","230911","0.0-14.0-1.31","SS1604513288123","<img src='images/complex/3.png' width ='500' height = '500' style='border:5px solid black'>","40","mixed_simple_deviant","images/complex/3.png","images/complex/4.png","images/simple/4.png,images/simple/11.png,images/simple/10.png,images/simple/2.png,images/simple/17.png,images/simple/16.png,images/simple/1.png","0","null","","200","1167.4700000013981","","","","target","",""
"","null","html-keyboard-response","79","231931","0.0-14.0-0.32","SS1604513288123","","null","","","","","","","","","","","","<img src=images/blank.png width =""500"" height = ""500"" style=""border:5px solid black"">","","",""
"","775.1900000002934","stimulus-presentation","80","232914","0.0-14.0-1.32","SS1604513288123","<img src='images/complex/4.png' width ='500' height = '500' style='border:5px solid black'>","40","mixed_simple_deviant","images/complex/3.png","images/complex/4.png","images/simple/4.png,images/simple/11.png,images/simple/10.png,images/simple/2.png,images/simple/17.png,images/simple/16.png,images/simple/1.png","0","null","","200","975.1900000002934","","","","background","",""
"","null","html-keyboard-response","81","234030","0.0-14.0-0.33","SS1604513288123","","null","","","","","","","","","","","","<img src=images/blank.png width =""500"" height = ""500"" style=""border:5px solid black"">","","",""
"","1483.8049999998184","stimulus-presentation","82","235722","0.0-14.0-1.33","SS1604513288123","<img src='images/complex/4.png' width ='500' height = '500' style='border:5px solid black'>","40","mixed_simple_deviant","images/complex/3.png","images/complex/4.png","images/simple/4.png,images/simple/11.png,images/simple/10.png,images/simple/2.png,images/simple/17.png,images/simple/16.png,images/simple/1.png","0","null","","200","1683.8049999998184","","","","background","",""
"","null","html-keyboard-response","83","236843","0.0-14.0-0.34","SS1604513288123","","null","","","","","","","","","","","","<img src=images/blank.png width =""500"" height = ""500"" style=""border:5px solid black"">","","",""
"","760.2100000003702","stimulus-presentation","84","237869","0.0-14.0-1.34","SS1604513288123","<img src='images/complex/3.png' width ='500' height = '500' style='border:5px solid black'>","40","mixed_simple_deviant","images/complex/3.png","images/complex/4.png","images/simple/4.png,images/simple/11.png,images/simple/10.png,images/simple/2.png,images/simple/17.png,images/simple/16.png,images/simple/1.png","0","null","","200","960.2100000003702","","","","target","",""
"","null","html-keyboard-response","85","238798","0.0-14.0-0.35","SS1604513288123","","null","","","","","","","","","","","","<img src=images/blank.png width =""500"" height = ""500"" style=""border:5px solid black"">","","",""
"","503.4649999997637","stimulus-presentation","86","239510","0.0-14.0-1.35","SS1604513288123","<img src='images/complex/4.png' width ='500' height = '500' style='border:5px solid black'>","40","mixed_simple_deviant","images/complex/3.png","images/complex/4.png","images/simple/4.png,images/simple/11.png,images/simple/10.png,images/simple/2.png,images/simple/17.png,images/simple/16.png,images/simple/1.png","0","null","","200","703.4649999997637","","","","background","",""
"","null","html-keyboard-response","87","240548","0.0-14.0-0.36","SS1604513288123","","null","","","","","","","","","","","","<img src=images/blank.png width =""500"" height = ""500"" style=""border:5px solid black"">","","",""
"","705.735000001383","stimulus-presentation","88","241461","0.0-14.0-1.36","SS1604513288123","<img src='images/complex/3.png' width ='500' height = '500' style='border:5px solid black'>","40","mixed_simple_deviant","images/complex/3.png","images/complex/4.png","images/simple/4.png,images/simple/11.png,images/simple/10.png,images/simple/2.png,images/simple/17.png,images/simple/16.png,images/simple/1.png","0","null","","200","905.735000001383","","","","target","",""
"","null","html-keyboard-response","89","242478","0.0-14.0-0.37","SS1604513288123","","null","","","","","","","","","","","","<img src=images/blank.png width =""500"" height = ""500"" style=""border:5px solid black"">","","",""
"","2904.594999999972","stimulus-presentation","90","245590","0.0-14.0-1.37","SS1604513288123","<img src='images/simple/11.png' width ='500' height = '500' style='border:5px solid black'>","40","mixed_simple_deviant","images/complex/3.png","images/complex/4.png","images/simple/4.png,images/simple/11.png,images/simple/10.png,images/simple/2.png,images/simple/17.png,images/simple/16.png,images/simple/1.png","0","null","","200","3104.594999999972","","","","deviant","",""
"","null","html-keyboard-response","91","246522","0.0-14.0-0.38","SS1604513288123","","null","","","","","","","","","","","","<img src=images/blank.png width =""500"" height = ""500"" style=""border:5px solid black"">","","",""
"","981.9150000002992","stimulus-presentation","92","247712","0.0-14.0-1.38","SS1604513288123","<img src='images/complex/4.png' width ='500' height = '500' style='border:5px solid black'>","40","mixed_simple_deviant","images/complex/3.png","images/complex/4.png","images/simple/4.png,images/simple/11.png,images/simple/10.png,images/simple/2.png,images/simple/17.png,images/simple/16.png,images/simple/1.png","0","null","","200","1181.9150000002992","","","","background","",""
"","null","html-keyboard-response","93","249054","0.0-14.0-0.39","SS1604513288123","","null","","","","","","","","","","","","<img src=images/blank.png width =""500"" height = ""500"" style=""border:5px solid black"">","","",""
"","1944.1999999999243","stimulus-presentation","94","251240","0.0-14.0-1.39","SS1604513288123","<img src='images/complex/3.png' width ='500' height = '500' style='border:5px solid black'>","40","mixed_simple_deviant","images/complex/3.png","images/complex/4.png","images/simple/4.png,images/simple/11.png,images/simple/10.png,images/simple/2.png,images/simple/17.png,images/simple/16.png,images/simple/1.png","0","null","","200","2144.1999999999243","","","","target","",""
"","null","html-keyboard-response","95","252222","0.0-14.0-0.40","SS1604513288123","","null","","","","","","","","","","","","<img src=images/blank.png width =""500"" height = ""500"" style=""border:5px solid black"">","","",""
"","1020.4149999990477","stimulus-presentation","96","253452","0.0-14.0-1.40","SS1604513288123","<img src='images/complex/4.png' width ='500' height = '500' style='border:5px solid black'>","40","mixed_simple_deviant","images/complex/3.png","images/complex/4.png","images/simple/4.png,images/simple/11.png,images/simple/10.png,images/simple/2.png,images/simple/17.png,images/simple/16.png,images/simple/1.png","0","null","","200","1220.4149999990477","","","","background","",""
"","null","html-keyboard-response","97","254443","0.0-14.0-0.41","SS1604513288123","","null","","","","","","","","","","","","<img src=images/blank.png width =""500"" height = ""500"" style=""border:5px solid black"">","","",""
"","1251.524999999674","stimulus-presentation","98","255902","0.0-14.0-1.41","SS1604513288123","<img src='images/simple/4.png' width ='500' height = '500' style='border:5px solid black'>","40","mixed_simple_deviant","images/complex/3.png","images/complex/4.png","images/simple/4.png,images/simple/11.png,images/simple/10.png,images/simple/2.png,images/simple/17.png,images/simple/16.png,images/simple/1.png","0","null","","200","1451.524999999674","","","","deviant","",""
"","null","html-keyboard-response","99","256955","0.0-14.0-0.42","SS1604513288123","","null","","","","","","","","","","","","<img src=images/blank.png width =""500"" height = ""500"" style=""border:5px solid black"">","","",""
"","696.1099999989383","stimulus-presentation","100","257860","0.0-14.0-1.42","SS1604513288123","<img src='images/complex/4.png' width ='500' height = '500' style='border:5px solid black'>","40","mixed_simple_deviant","images/complex/3.png","images/complex/4.png","images/simple/4.png,images/simple/11.png,images/simple/10.png,images/simple/2.png,images/simple/17.png,images/simple/16.png,images/simple/1.png","0","null","","200","896.1099999989383","","","","background","",""
"","null","html-keyboard-response","101","258876","0.0-14.0-0.43","SS1604513288123","","null","","","","","","","","","","","","<img src=images/blank.png width =""500"" height = ""500"" style=""border:5px solid black"">","","",""
"","709.9999999991269","stimulus-presentation","102","259793","0.0-14.0-1.43","SS1604513288123","<img src='images/complex/4.png' width ='500' height = '500' style='border:5px solid black'>","40","mixed_simple_deviant","images/complex/3.png","images/complex/4.png","images/simple/4.png,images/simple/11.png,images/simple/10.png,images/simple/2.png,images/simple/17.png,images/simple/16.png,images/simple/1.png","0","null","","200","909.9999999991269","","","","background","",""
"","null","html-keyboard-response","103","260609","0.0-14.0-0.44","SS1604513288123","","null","","","","","","","","","","","","<img src=images/blank.png width =""500"" height = ""500"" style=""border:5px solid black"">","","",""
"","604.245000000461","stimulus-presentation","104","261422","0.0-14.0-1.44","SS1604513288123","<img src='images/complex/4.png' width ='500' height = '500' style='border:5px solid black'>","40","mixed_simple_deviant","images/complex/3.png","images/complex/4.png","images/simple/4.png,images/simple/11.png,images/simple/10.png,images/simple/2.png,images/simple/17.png,images/simple/16.png,images/simple/1.png","0","null","","200","804.245000000461","","","","background","",""
"","null","html-keyboard-response","105","262259","0.0-14.0-0.45","SS1604513288123","","null","","","","","","","","","","","","<img src=images/blank.png width =""500"" height = ""500"" style=""border:5px solid black"">","","",""
"","894.1399999985588","stimulus-presentation","106","263362","0.0-14.0-1.45","SS1604513288123","<img src='images/complex/4.png' width ='500' height = '500' style='border:5px solid black'>","40","mixed_simple_deviant","images/complex/3.png","images/complex/4.png","images/simple/4.png,images/simple/11.png,images/simple/10.png,images/simple/2.png,images/simple/17.png,images/simple/16.png,images/simple/1.png","0","null","","200","1094.1399999985588","","","","background","",""
"","null","html-keyboard-response","107","264447","0.0-14.0-0.46","SS1604513288123","","null","","","","","","","","","","","","<img src=images/blank.png width =""500"" height = ""500"" style=""border:5px solid black"">","","",""
"","975.5700000005309","stimulus-presentation","108","265632","0.0-14.0-1.46","SS1604513288123","<img src='images/complex/4.png' width ='500' height = '500' style='border:5px solid black'>","40","mixed_simple_deviant","images/complex/3.png","images/complex/4.png","images/simple/4.png,images/simple/11.png,images/simple/10.png,images/simple/2.png,images/simple/17.png,images/simple/16.png,images/simple/1.png","0","null","","200","1175.5700000005309","","","","background","",""
"","null","html-keyboard-response","109","266471","0.0-14.0-0.47","SS1604513288123","","null","","","","","","","","","","","","<img src=images/blank.png width =""500"" height = ""500"" style=""border:5px solid black"">","","",""
"","1553.8550000000978","stimulus-presentation","110","268234","0.0-14.0-1.47","SS1604513288123","<img src='images/complex/4.png' width ='500' height = '500' style='border:5px solid black'>","40","mixed_simple_deviant","images/complex/3.png","images/complex/4.png","images/simple/4.png,images/simple/11.png,images/simple/10.png,images/simple/2.png,images/simple/17.png,images/simple/16.png,images/simple/1.png","0","null","","200","1753.8550000000978","","","","background","",""
"","null","html-keyboard-response","111","269135","0.0-14.0-0.48","SS1604513288123","","null","","","","","","","","","","","","<img src=images/blank.png width =""500"" height = ""500"" style=""border:5px solid black"">","","",""
"","737.2100000011269","stimulus-presentation","112","270080","0.0-14.0-1.48","SS1604513288123","<img src='images/complex/4.png' width ='500' height = '500' style='border:5px solid black'>","40","mixed_simple_deviant","images/complex/3.png","images/complex/4.png","images/simple/4.png,images/simple/11.png,images/simple/10.png,images/simple/2.png,images/simple/17.png,images/simple/16.png,images/simple/1.png","0","null","","200","937.2100000011269","","","","background","",""
"[{""page_index"":0,""viewing_time"":6876}]","6877","task-instructions","113","276960","0.0-15.0","SS1604513288123","","","","","","","","","","","","","","","","",""
"[{""page_index"":0,""viewing_time"":8286.040000000852},{""page_index"":1,""viewing_time"":7009.674999999348},{""page_index"":2,""viewing_time"":2940.3349999993225}]","18236.554999999527","instructions","114","295200","0.0-16.0","SS1604513288123","","","","","","","","","","","","","","","","",""
"","null","html-keyboard-response","115","296486","0.0-17.0-0.0","SS1604513288123","","null","","","","","","","","","","","","<img src=images/blank.png width =""500"" height = ""500"" style=""border:5px solid black"">","","",""
"","1499.8100000011618","stimulus-presentation","116","298195","0.0-17.0-1.0","SS1604513288123","<img src='images/simple/5.png' width ='500' height = '500' style='border:5px solid black'>","40","mixed_complex_deviant","images/simple/13.png","images/simple/5.png","images/complex/8.png,images/complex/10.png,images/complex/12.png,images/complex/13.png,images/complex/17.png,images/complex/5.png,images/complex/14.png","1","null","","200","1699.8100000011618","","","","background","",""
"","null","html-keyboard-response","117","299032","0.0-17.0-0.1","SS1604513288123","","null","","","","","","","","","","","","<img src=images/blank.png width =""500"" height = ""500"" style=""border:5px solid black"">","","",""
"","1141.8599999997532","stimulus-presentation","118","300382","0.0-17.0-1.1","SS1604513288123","<img src='images/simple/5.png' width ='500' height = '500' style='border:5px solid black'>","40","mixed_complex_deviant","images/simple/13.png","images/simple/5.png","images/complex/8.png,images/complex/10.png,images/complex/12.png,images/complex/13.png,images/complex/17.png,images/complex/5.png,images/complex/14.png","1","null","","200","1341.8599999997532","","","","background","",""
"","null","html-keyboard-response","119","301556","0.0-17.0-0.2","SS1604513288123","","null","","","","","","","","","","","","<img src=images/blank.png width =""500"" height = ""500"" style=""border:5px solid black"">","","",""
"","1014.0800000008312","stimulus-presentation","120","302779","0.0-17.0-1.2","SS1604513288123","<img src='images/simple/5.png' width ='500' height = '500' style='border:5px solid black'>","40","mixed_complex_deviant","images/simple/13.png","images/simple/5.png","images/complex/8.png,images/complex/10.png,images/complex/12.png,images/complex/13.png,images/complex/17.png,images/complex/5.png,images/complex/14.png","1","null","","200","1214.0800000008312","","","","background","",""
"","null","html-keyboard-response","121","304042","0.0-17.0-0.3","SS1604513288123","","null","","","","","","","","","","","","<img src=images/blank.png width =""500"" height = ""500"" style=""border:5px solid black"">","","",""
"","2082.910000001022","stimulus-presentation","122","306331","0.0-17.0-1.3","SS1604513288123","<img src='images/complex/12.png' width ='500' height = '500' style='border:5px solid black'>","40","mixed_complex_deviant","images/simple/13.png","images/simple/5.png","images/complex/8.png,images/complex/10.png,images/complex/12.png,images/complex/13.png,images/complex/17.png,images/complex/5.png,images/complex/14.png","1","null","","200","2282.910000001022","","","","deviant","",""
"","null","html-keyboard-response","123","307519","0.0-17.0-0.4","SS1604513288123","","null","","","","","","","","","","","","<img src=images/blank.png width =""500"" height = ""500"" style=""border:5px solid black"">","","",""
"","634.0999999993364","stimulus-presentation","124","308361","0.0-17.0-1.4","SS1604513288123","<img src='images/simple/5.png' width ='500' height = '500' style='border:5px solid black'>","40","mixed_complex_deviant","images/simple/13.png","images/simple/5.png","images/complex/8.png,images/complex/10.png,images/complex/12.png,images/complex/13.png,images/complex/17.png,images/complex/5.png,images/complex/14.png","1","null","","200","834.0999999993364","","","","background","",""
"","null","html-keyboard-response","125","309285","0.0-17.0-0.5","SS1604513288123","","null","","","","","","","","","","","","<img src=images/blank.png width =""500"" height = ""500"" style=""border:5px solid black"">","","",""
"","1716.8999999994412","stimulus-presentation","126","311212","0.0-17.0-1.5","SS1604513288123","<img src='images/simple/13.png' width ='500' height = '500' style='border:5px solid black'>","40","mixed_complex_deviant","images/simple/13.png","images/simple/5.png","images/complex/8.png,images/complex/10.png,images/complex/12.png,images/complex/13.png,images/complex/17.png,images/complex/5.png,images/complex/14.png","1","null","","200","1916.8999999994412","","","","target","",""
"","null","html-keyboard-response","127","312287","0.0-17.0-0.6","SS1604513288123","","null","","","","","","","","","","","","<img src=images/blank.png width =""500"" height = ""500"" style=""border:5px solid black"">","","",""
"","2446.0149999995483","stimulus-presentation","128","314941","0.0-17.0-1.6","SS1604513288123","<img src='images/complex/13.png' width ='500' height = '500' style='border:5px solid black'>","40","mixed_complex_deviant","images/simple/13.png","images/simple/5.png","images/complex/8.png,images/complex/10.png,images/complex/12.png,images/complex/13.png,images/complex/17.png,images/complex/5.png,images/complex/14.png","1","null","","200","2646.0149999995483","","","","deviant","",""
"","null","html-keyboard-response","129","315984","0.0-17.0-0.7","SS1604513288123","","null","","","","","","","","","","","","<img src=images/blank.png width =""500"" height = ""500"" style=""border:5px solid black"">","","",""
"","1147.764999999723","stimulus-presentation","130","317341","0.0-17.0-1.7","SS1604513288123","<img src='images/simple/5.png' width ='500' height = '500' style='border:5px solid black'>","40","mixed_complex_deviant","images/simple/13.png","images/simple/5.png","images/complex/8.png,images/complex/10.png,images/complex/12.png,images/complex/13.png,images/complex/17.png,images/complex/5.png,images/complex/14.png","1","null","","200","1347.764999999723","","","","background","",""
"","null","html-keyboard-response","131","318227","0.0-17.0-0.8","SS1604513288123","","null","","","","","","","","","","","","<img src=images/blank.png width =""500"" height = ""500"" style=""border:5px solid black"">","","",""
"","914.2599999995437","stimulus-presentation","132","319349","0.0-17.0-1.8","SS1604513288123","<img src='images/simple/13.png' width ='500' height = '500' style='border:5px solid black'>","40","mixed_complex_deviant","images/simple/13.png","images/simple/5.png","images/complex/8.png,images/complex/10.png,images/complex/12.png,images/complex/13.png,images/complex/17.png,images/complex/5.png,images/complex/14.png","1","null","","200","1114.2599999995437","","","","target","",""
"","null","html-keyboard-response","133","320276","0.0-17.0-0.9","SS1604513288123","","null","","","","","","","","","","","","<img src=images/blank.png width =""500"" height = ""500"" style=""border:5px solid black"">","","",""
"","617.3049999997602","stimulus-presentation","134","321101","0.0-17.0-1.9","SS1604513288123","<img src='images/simple/5.png' width ='500' height = '500' style='border:5px solid black'>","40","mixed_complex_deviant","images/simple/13.png","images/simple/5.png","images/complex/8.png,images/complex/10.png,images/complex/12.png,images/complex/13.png,images/complex/17.png,images/complex/5.png,images/complex/14.png","1","null","","200","817.3049999997602","","","","background","",""
"","null","html-keyboard-response","135","322296","0.0-17.0-0.10","SS1604513288123","","null","","","","","","","","","","","","<img src=images/blank.png width =""500"" height = ""500"" style=""border:5px solid black"">","","",""
"","536.2900000000373","stimulus-presentation","136","323042","0.0-17.0-1.10","SS1604513288123","<img src='images/simple/5.png' width ='500' height = '500' style='border:5px solid black'>","40","mixed_complex_deviant","images/simple/13.png","images/simple/5.png","images/complex/8.png,images/complex/10.png,images/complex/12.png,images/complex/13.png,images/complex/17.png,images/complex/5.png,images/complex/14.png","1","null","","200","736.2900000000373","","","","background","",""
"","null","html-keyboard-response","137","324183","0.0-17.0-0.11","SS1604513288123","","null","","","","","","","","","","","","<img src=images/blank.png width =""500"" height = ""500"" style=""border:5px solid black"">","","",""
"","490.43000000168104","stimulus-presentation","138","324881","0.0-17.0-1.11","SS1604513288123","<img src='images/simple/5.png' width ='500' height = '500' style='border:5px solid black'>","40","mixed_complex_deviant","images/simple/13.png","images/simple/5.png","images/complex/8.png,images/complex/10.png,images/complex/12.png,images/complex/13.png,images/complex/17.png,images/complex/5.png,images/complex/14.png","1","null","","200","690.430000001681","","","","background","",""
"","null","html-keyboard-response","139","326061","0.0-17.0-0.12","SS1604513288123","","null","","","","","","","","","","","","<img src=images/blank.png width =""500"" height = ""500"" style=""border:5px solid black"">","","",""
"","1111.2299999985844","stimulus-presentation","140","327381","0.0-17.0-1.12","SS1604513288123","<img src='images/simple/13.png' width ='500' height = '500' style='border:5px solid black'>","40","mixed_complex_deviant","images/simple/13.png","images/simple/5.png","images/complex/8.png,images/complex/10.png,images/complex/12.png,images/complex/13.png,images/complex/17.png,images/complex/5.png,images/complex/14.png","1","null","","200","1311.2299999985844","","","","target","",""
"","null","html-keyboard-response","141","328556","0.0-17.0-0.13","SS1604513288123","","null","","","","","","","","","","","","<img src=images/blank.png width =""500"" height = ""500"" style=""border:5px solid black"">","","",""
"","534.8950000006589","stimulus-presentation","142","329301","0.0-17.0-1.13","SS1604513288123","<img src='images/simple/5.png' width ='500' height = '500' style='border:5px solid black'>","40","mixed_complex_deviant","images/simple/13.png","images/simple/5.png","images/complex/8.png,images/complex/10.png,images/complex/12.png,images/complex/13.png,images/complex/17.png,images/complex/5.png,images/complex/14.png","1","null","","200","734.8950000006589","","","","background","",""
"","null","html-keyboard-response","143","330387","0.0-17.0-0.14","SS1604513288123","","null","","","","","","","","","","","","<img src=images/blank.png width =""500"" height = ""500"" style=""border:5px solid black"">","","",""
"","804.0899999996764","stimulus-presentation","144","331399","0.0-17.0-1.14","SS1604513288123","<img src='images/simple/5.png' width ='500' height = '500' style='border:5px solid black'>","40","mixed_complex_deviant","images/simple/13.png","images/simple/5.png","images/complex/8.png,images/complex/10.png,images/complex/12.png,images/complex/13.png,images/complex/17.png,images/complex/5.png,images/complex/14.png","1","null","","200","1004.0899999996764","","","","background","",""
"","null","html-keyboard-response","145","332321","0.0-17.0-0.15","SS1604513288123","","null","","","","","","","","","","","","<img src=images/blank.png width =""500"" height = ""500"" style=""border:5px solid black"">","","",""
"","591.0600000006962","stimulus-presentation","146","333122","0.0-17.0-1.15","SS1604513288123","<img src='images/simple/5.png' width ='500' height = '500' style='border:5px solid black'>","40","mixed_complex_deviant","images/simple/13.png","images/simple/5.png","images/complex/8.png,images/complex/10.png,images/complex/12.png,images/complex/13.png,images/complex/17.png,images/complex/5.png,images/complex/14.png","1","null","","200","791.0600000006962","","","","background","",""
"","null","html-keyboard-response","147","334304","0.0-17.0-0.16","SS1604513288123","","null","","","","","","","","","","","","<img src=images/blank.png width =""500"" height = ""500"" style=""border:5px solid black"">","","",""
"","466.24500000145053","stimulus-presentation","148","334979","0.0-17.0-1.16","SS1604513288123","<img src='images/complex/14.png' width ='500' height = '500' style='border:5px solid black'>","40","mixed_complex_deviant","images/simple/13.png","images/simple/5.png","images/complex/8.png,images/complex/10.png,images/complex/12.png,images/complex/13.png,images/complex/17.png,images/complex/5.png,images/complex/14.png","1","null","","200","666.2450000014505","","","","deviant","",""
"","null","html-keyboard-response","149","336090","0.0-17.0-0.17","SS1604513288123","","null","","","","","","","","","","","","<img src=images/blank.png width =""500"" height = ""500"" style=""border:5px solid black"">","","",""
"","759.265000000596","stimulus-presentation","150","337059","0.0-17.0-1.17","SS1604513288123","<img src='images/simple/5.png' width ='500' height = '500' style='border:5px solid black'>","40","mixed_complex_deviant","images/simple/13.png","images/simple/5.png","images/complex/8.png,images/complex/10.png,images/complex/12.png,images/complex/13.png,images/complex/17.png,images/complex/5.png,images/complex/14.png","1","null","","200","959.265000000596","","","","background","",""
"","null","html-keyboard-response","151","338248","0.0-17.0-0.18","SS1604513288123","","null","","","","","","","","","","","","<img src=images/blank.png width =""500"" height = ""500"" style=""border:5px solid black"">","","",""
"","612.5750000010594","stimulus-presentation","152","339069","0.0-17.0-1.18","SS1604513288123","<img src='images/simple/5.png' width ='500' height = '500' style='border:5px solid black'>","40","mixed_complex_deviant","images/simple/13.png","images/simple/5.png","images/complex/8.png,images/complex/10.png,images/complex/12.png,images/complex/13.png,images/complex/17.png,images/complex/5.png,images/complex/14.png","1","null","","200","812.5750000010594","","","","background","",""
"","null","html-keyboard-response","153","340267","0.0-17.0-0.19","SS1604513288123","","null","","","","","","","","","","","","<img src=images/blank.png width =""500"" height = ""500"" style=""border:5px solid black"">","","",""
"","1825.6750000000466","stimulus-presentation","154","342302","0.0-17.0-1.19","SS1604513288123","<img src='images/complex/10.png' width ='500' height = '500' style='border:5px solid black'>","40","mixed_complex_deviant","images/simple/13.png","images/simple/5.png","images/complex/8.png,images/complex/10.png,images/complex/12.png,images/complex/13.png,images/complex/17.png,images/complex/5.png,images/complex/14.png","1","null","","200","2025.6750000000466","","","","deviant","",""
"","null","html-keyboard-response","155","343580","0.0-17.0-0.20","SS1604513288123","","null","","","","","","","","","","","","<img src=images/blank.png width =""500"" height = ""500"" style=""border:5px solid black"">","","",""
"","873.054999999993","stimulus-presentation","156","344662","0.0-17.0-1.20","SS1604513288123","<img src='images/simple/5.png' width ='500' height = '500' style='border:5px solid black'>","40","mixed_complex_deviant","images/simple/13.png","images/simple/5.png","images/complex/8.png,images/complex/10.png,images/complex/12.png,images/complex/13.png,images/complex/17.png,images/complex/5.png,images/complex/14.png","1","null","","200","1073.054999999993","","","","background","",""
"","null","html-keyboard-response","157","345905","0.0-17.0-0.21","SS1604513288123","","null","","","","","","","","","","","","<img src=images/blank.png width =""500"" height = ""500"" style=""border:5px solid black"">","","",""
"","678.6799999990617","stimulus-presentation","158","346791","0.0-17.0-1.21","SS1604513288123","<img src='images/simple/5.png' width ='500' height = '500' style='border:5px solid black'>","40","mixed_complex_deviant","images/simple/13.png","images/simple/5.png","images/complex/8.png,images/complex/10.png,images/complex/12.png,images/complex/13.png,images/complex/17.png,images/complex/5.png,images/complex/14.png","1","null","","200","878.6799999990617","","","","background","",""
"","null","html-keyboard-response","159","347656","0.0-17.0-0.22","SS1604513288123","","null","","","","","","","","","","","","<img src=images/blank.png width =""500"" height = ""500"" style=""border:5px solid black"">","","",""
"","1125.809999999532","stimulus-presentation","160","348991","0.0-17.0-1.22","SS1604513288123","<img src='images/complex/17.png' width ='500' height = '500' style='border:5px solid black'>","40","mixed_complex_deviant","images/simple/13.png","images/simple/5.png","images/complex/8.png,images/complex/10.png,images/complex/12.png,images/complex/13.png,images/complex/17.png,images/complex/5.png,images/complex/14.png","1","null","","200","1325.809999999532","","","","deviant","",""
"","null","html-keyboard-response","161","349888","0.0-17.0-0.23","SS1604513288123","","null","","","","","","","","","","","","<img src=images/blank.png width =""500"" height = ""500"" style=""border:5px solid black"">","","",""
"","804.5700000002398","stimulus-presentation","162","350902","0.0-17.0-1.23","SS1604513288123","<img src='images/simple/5.png' width ='500' height = '500' style='border:5px solid black'>","40","mixed_complex_deviant","images/simple/13.png","images/simple/5.png","images/complex/8.png,images/complex/10.png,images/complex/12.png,images/complex/13.png,images/complex/17.png,images/complex/5.png,images/complex/14.png","1","null","","200","1004.5700000002398","","","","background","",""
"","null","html-keyboard-response","163","352014","0.0-17.0-0.24","SS1604513288123","","null","","","","","","","","","","","","<img src=images/blank.png width =""500"" height = ""500"" style=""border:5px solid black"">","","",""
"","573.7499999995925","stimulus-presentation","164","352901","0.0-17.0-1.24","SS1604513288123","<img src='images/simple/13.png' width ='500' height = '500' style='border:5px solid black'>","40","mixed_complex_deviant","images/simple/13.png","images/simple/5.png","images/complex/8.png,images/complex/10.png,images/complex/12.png,images/complex/13.png,images/complex/17.png,images/complex/5.png,images/complex/14.png","1","null","","200","773.7499999995925","","","","target","",""
"","null","html-keyboard-response","165","353813","0.0-17.0-0.25","SS1604513288123","","null","","","","","","","","","","","","<img src=images/blank.png width =""500"" height = ""500"" style=""border:5px solid black"">","","",""
"","749.970000000787","stimulus-presentation","166","354772","0.0-17.0-1.25","SS1604513288123","<img src='images/simple/5.png' width ='500' height = '500' style='border:5px solid black'>","40","mixed_complex_deviant","images/simple/13.png","images/simple/5.png","images/complex/8.png,images/complex/10.png,images/complex/12.png,images/complex/13.png,images/complex/17.png,images/complex/5.png,images/complex/14.png","1","null","","200","949.970000000787","","","","background","",""
"","null","html-keyboard-response","167","355712","0.0-17.0-0.26","SS1604513288123","","null","","","","","","","","","","","","<img src=images/blank.png width =""500"" height = ""500"" style=""border:5px solid black"">","","",""
"","800.1850000000559","stimulus-presentation","168","356721","0.0-17.0-1.26","SS1604513288123","<img src='images/simple/5.png' width ='500' height = '500' style='border:5px solid black'>","40","mixed_complex_deviant","images/simple/13.png","images/simple/5.png","images/complex/8.png,images/complex/10.png,images/complex/12.png,images/complex/13.png,images/complex/17.png,images/complex/5.png,images/complex/14.png","1","null","","200","1000.1850000000559","","","","background","",""
"","null","html-keyboard-response","169","357788","0.0-17.0-0.27","SS1604513288123","","null","","","","","","","","","","","","<img src=images/blank.png width =""500"" height = ""500"" style=""border:5px solid black"">","","",""
"","744.0650000008172","stimulus-presentation","170","358742","0.0-17.0-1.27","SS1604513288123","<img src='images/simple/5.png' width ='500' height = '500' style='border:5px solid black'>","40","mixed_complex_deviant","images/simple/13.png","images/simple/5.png","images/complex/8.png,images/complex/10.png,images/complex/12.png,images/complex/13.png,images/complex/17.png,images/complex/5.png,images/complex/14.png","1","null","","200","944.0650000008172","","","","background","",""
"","null","html-keyboard-response","171","359784","0.0-17.0-0.28","SS1604513288123","","null","","","","","","","","","","","","<img src=images/blank.png width =""500"" height = ""500"" style=""border:5px solid black"">","","",""
"","848.7700000005425","stimulus-presentation","172","360841","0.0-17.0-1.28","SS1604513288123","<img src='images/simple/5.png' width ='500' height = '500' style='border:5px solid black'>","40","mixed_complex_deviant","images/simple/13.png","images/simple/5.png","images/complex/8.png,images/complex/10.png,images/complex/12.png,images/complex/13.png,images/complex/17.png,images/complex/5.png,images/complex/14.png","1","null","","200","1048.7700000005425","","","","background","",""
"","null","html-keyboard-response","173","362048","0.0-17.0-0.29","SS1604513288123","","null","","","","","","","","","","","","<img src=images/blank.png width =""500"" height = ""500"" style=""border:5px solid black"">","","",""
"","1474.194999998901","stimulus-presentation","174","363731","0.0-17.0-1.29","SS1604513288123","<img src='images/complex/5.png' width ='500' height = '500' style='border:5px solid black'>","40","mixed_complex_deviant","images/simple/13.png","images/simple/5.png","images/complex/8.png,images/complex/10.png,images/complex/12.png,images/complex/13.png,images/complex/17.png,images/complex/5.png,images/complex/14.png","1","null","","200","1674.194999998901","","","","deviant","",""
"","null","html-keyboard-response","175","364669","0.0-17.0-0.30","SS1604513288123","","null","","","","","","","","","","","","<img src=images/blank.png width =""500"" height = ""500"" style=""border:5px solid black"">","","",""
"","933.4650000000838","stimulus-presentation","176","365811","0.0-17.0-1.30","SS1604513288123","<img src='images/simple/5.png' width ='500' height = '500' style='border:5px solid black'>","40","mixed_complex_deviant","images/simple/13.png","images/simple/5.png","images/complex/8.png,images/complex/10.png,images/complex/12.png,images/complex/13.png,images/complex/17.png,images/complex/5.png,images/complex/14.png","1","null","","200","1133.4650000000838","","","","background","",""
"","null","html-keyboard-response","177","366689","0.0-17.0-0.31","SS1604513288123","","null","","","","","","","","","","","","<img src=images/blank.png width =""500"" height = ""500"" style=""border:5px solid black"">","","",""
"","930.4199999988195","stimulus-presentation","178","367829","0.0-17.0-1.31","SS1604513288123","<img src='images/simple/5.png' width ='500' height = '500' style='border:5px solid black'>","40","mixed_complex_deviant","images/simple/13.png","images/simple/5.png","images/complex/8.png,images/complex/10.png,images/complex/12.png,images/complex/13.png,images/complex/17.png,images/complex/5.png,images/complex/14.png","1","null","","200","1130.4199999988195","","","","background","",""
"","null","html-keyboard-response","179","368655","0.0-17.0-0.32","SS1604513288123","","null","","","","","","","","","","","","<img src=images/blank.png width =""500"" height = ""500"" style=""border:5px solid black"">","","",""
"","675.7550000001793","stimulus-presentation","180","369541","0.0-17.0-1.32","SS1604513288123","<img src='images/simple/5.png' width ='500' height = '500' style='border:5px solid black'>","40","mixed_complex_deviant","images/simple/13.png","images/simple/5.png","images/complex/8.png,images/complex/10.png,images/complex/12.png,images/complex/13.png,images/complex/17.png,images/complex/5.png,images/complex/14.png","1","null","","200","875.7550000001793","","","","background","",""
"","null","html-keyboard-response","181","370376","0.0-17.0-0.33","SS1604513288123","","null","","","","","","","","","","","","<img src=images/blank.png width =""500"" height = ""500"" style=""border:5px solid black"">","","",""
"","625.804999999702","stimulus-presentation","182","371211","0.0-17.0-1.33","SS1604513288123","<img src='images/simple/5.png' width ='500' height = '500' style='border:5px solid black'>","40","mixed_complex_deviant","images/simple/13.png","images/simple/5.png","images/complex/8.png,images/complex/10.png,images/complex/12.png,images/complex/13.png,images/complex/17.png,images/complex/5.png,images/complex/14.png","1","null","","200","825.804999999702","","","","background","",""
"","null","html-keyboard-response","183","372206","0.0-17.0-0.34","SS1604513288123","","null","","","","","","","","","","","","<img src=images/blank.png width =""500"" height = ""500"" style=""border:5px solid black"">","","",""
"","607.7800000002608","stimulus-presentation","184","373021","0.0-17.0-1.34","SS1604513288123","<img src='images/simple/5.png' width ='500' height = '500' style='border:5px solid black'>","40","mixed_complex_deviant","images/simple/13.png","images/simple/5.png","images/complex/8.png,images/complex/10.png,images/complex/12.png,images/complex/13.png,images/complex/17.png,images/complex/5.png,images/complex/14.png","1","null","","200","807.7800000002608","","","","background","",""
"","null","html-keyboard-response","185","374064","0.0-17.0-0.35","SS1604513288123","","null","","","","","","","","","","","","<img src=images/blank.png width =""500"" height = ""500"" style=""border:5px solid black"">","","",""
"","748.459999998915","stimulus-presentation","186","375021","0.0-17.0-1.35","SS1604513288123","<img src='images/simple/5.png' width ='500' height = '500' style='border:5px solid black'>","40","mixed_complex_deviant","images/simple/13.png","images/simple/5.png","images/complex/8.png,images/complex/10.png,images/complex/12.png,images/complex/13.png,images/complex/17.png,images/complex/5.png,images/complex/14.png","1","null","","200","948.459999998915","","","","background","",""
"","null","html-keyboard-response","187","376080","0.0-17.0-0.36","SS1604513288123","","null","","","","","","","","","","","","<img src=images/blank.png width =""500"" height = ""500"" style=""border:5px solid black"">","","",""
"","502.09499999979744","stimulus-presentation","188","376823","0.0-17.0-1.36","SS1604513288123","<img src='images/simple/5.png' width ='500' height = '500' style='border:5px solid black'>","40","mixed_complex_deviant","images/simple/13.png","images/simple/5.png","images/complex/8.png,images/complex/10.png,images/complex/12.png,images/complex/13.png,images/complex/17.png,images/complex/5.png,images/complex/14.png","1","null","","200","702.0949999997974","","","","background","",""
"","null","html-keyboard-response","189","378105","0.0-17.0-0.37","SS1604513288123","","null","","","","","","","","","","","","<img src=images/blank.png width =""500"" height = ""500"" style=""border:5px solid black"">","","",""
"","746.395000000135","stimulus-presentation","190","379061","0.0-17.0-1.37","SS1604513288123","<img src='images/simple/13.png' width ='500' height = '500' style='border:5px solid black'>","40","mixed_complex_deviant","images/simple/13.png","images/simple/5.png","images/complex/8.png,images/complex/10.png,images/complex/12.png,images/complex/13.png,images/complex/17.png,images/complex/5.png,images/complex/14.png","1","null","","200","946.395000000135","","","","target","",""
"","null","html-keyboard-response","191","380190","0.0-17.0-0.38","SS1604513288123","","null","","","","","","","","","","","","<img src=images/blank.png width =""500"" height = ""500"" style=""border:5px solid black"">","","",""
"","542.8599999995204","stimulus-presentation","192","380971","0.0-17.0-1.38","SS1604513288123","<img src='images/complex/8.png' width ='500' height = '500' style='border:5px solid black'>","40","mixed_complex_deviant","images/simple/13.png","images/simple/5.png","images/complex/8.png,images/complex/10.png,images/complex/12.png,images/complex/13.png,images/complex/17.png,images/complex/5.png,images/complex/14.png","1","null","","200","742.8599999995204","","","","deviant","",""
"","null","html-keyboard-response","193","381928","0.0-17.0-0.39","SS1604513288123","","null","","","","","","","","","","","","<img src=images/blank.png width =""500"" height = ""500"" style=""border:5px solid black"">","","",""
"","782.7500000003492","stimulus-presentation","194","382921","0.0-17.0-1.39","SS1604513288123","<img src='images/simple/5.png' width ='500' height = '500' style='border:5px solid black'>","40","mixed_complex_deviant","images/simple/13.png","images/simple/5.png","images/complex/8.png,images/complex/10.png,images/complex/12.png,images/complex/13.png,images/complex/17.png,images/complex/5.png,images/complex/14.png","1","null","","200","982.7500000003492","","","","background","",""
"","null","html-keyboard-response","195","384135","0.0-17.0-0.40","SS1604513288123","","null","","","","","","","","","","","","<img src=images/blank.png width =""500"" height = ""500"" style=""border:5px solid black"">","","",""
"","853.2849999992177","stimulus-presentation","196","385199","0.0-17.0-1.40","SS1604513288123","<img src='images/simple/5.png' width ='500' height = '500' style='border:5px solid black'>","40","mixed_complex_deviant","images/simple/13.png","images/simple/5.png","images/complex/8.png,images/complex/10.png,images/complex/12.png,images/complex/13.png,images/complex/17.png,images/complex/5.png,images/complex/14.png","1","null","","200","1053.2849999992177","","","","background","",""
"","null","html-keyboard-response","197","386262","0.0-17.0-0.41","SS1604513288123","","null","","","","","","","","","","","","<img src=images/blank.png width =""500"" height = ""500"" style=""border:5px solid black"">","","",""
"","618.6049999996321","stimulus-presentation","198","387091","0.0-17.0-1.41","SS1604513288123","<img src='images/simple/13.png' width ='500' height = '500' style='border:5px solid black'>","40","mixed_complex_deviant","images/simple/13.png","images/simple/5.png","images/complex/8.png,images/complex/10.png,images/complex/12.png,images/complex/13.png,images/complex/17.png,images/complex/5.png,images/complex/14.png","1","null","","200","818.6049999996321","","","","target","",""
"","null","html-keyboard-response","199","388096","0.0-17.0-0.42","SS1604513288123","","null","","","","","","","","","","","","<img src=images/blank.png width =""500"" height = ""500"" style=""border:5px solid black"">","","",""
"","667.7500000004657","stimulus-presentation","200","388979","0.0-17.0-1.42","SS1604513288123","<img src='images/simple/5.png' width ='500' height = '500' style='border:5px solid black'>","40","mixed_complex_deviant","images/simple/13.png","images/simple/5.png","images/complex/8.png,images/complex/10.png,images/complex/12.png,images/complex/13.png,images/complex/17.png,images/complex/5.png,images/complex/14.png","1","null","","200","867.7500000004657","","","","background","",""
"","null","html-keyboard-response","201","390012","0.0-17.0-0.43","SS1604513288123","","null","","","","","","","","","","","","<img src=images/blank.png width =""500"" height = ""500"" style=""border:5px solid black"">","","",""
"","759.2500000009895","stimulus-presentation","202","390981","0.0-17.0-1.43","SS1604513288123","<img src='images/simple/5.png' width ='500' height = '500' style='border:5px solid black'>","40","mixed_complex_deviant","images/simple/13.png","images/simple/5.png","images/complex/8.png,images/complex/10.png,images/complex/12.png,images/complex/13.png,images/complex/17.png,images/complex/5.png,images/complex/14.png","1","null","","200","959.2500000009895","","","","background","",""
"","null","html-keyboard-response","203","391802","0.0-17.0-0.44","SS1604513288123","","null","","","","","","","","","","","","<img src=images/blank.png width =""500"" height = ""500"" style=""border:5px solid black"">","","",""
"","829.024999999092","stimulus-presentation","204","392841","0.0-17.0-1.44","SS1604513288123","<img src='images/simple/5.png' width ='500' height = '500' style='border:5px solid black'>","40","mixed_complex_deviant","images/simple/13.png","images/simple/5.png","images/complex/8.png,images/complex/10.png,images/complex/12.png,images/complex/13.png,images/complex/17.png,images/complex/5.png,images/complex/14.png","1","null","","200","1029.024999999092","","","","background","",""
"","null","html-keyboard-response","205","393753","0.0-17.0-0.45","SS1604513288123","","null","","","","","","","","","","","","<img src=images/blank.png width =""500"" height = ""500"" style=""border:5px solid black"">","","",""
"","774.1749999986496","stimulus-presentation","206","394739","0.0-17.0-1.45","SS1604513288123","<img src='images/simple/5.png' width ='500' height = '500' style='border:5px solid black'>","40","mixed_complex_deviant","images/simple/13.png","images/simple/5.png","images/complex/8.png,images/complex/10.png,images/complex/12.png,images/complex/13.png,images/complex/17.png,images/complex/5.png,images/complex/14.png","1","null","","200","974.1749999986496","","","","background","",""
"","null","html-keyboard-response","207","395901","0.0-17.0-0.46","SS1604513288123","","null","","","","","","","","","","","","<img src=images/blank.png width =""500"" height = ""500"" style=""border:5px solid black"">","","",""
"","647.5949999985169","stimulus-presentation","208","396759","0.0-17.0-1.46","SS1604513288123","<img src='images/simple/5.png' width ='500' height = '500' style='border:5px solid black'>","40","mixed_complex_deviant","images/simple/13.png","images/simple/5.png","images/complex/8.png,images/complex/10.png,images/complex/12.png,images/complex/13.png,images/complex/17.png,images/complex/5.png,images/complex/14.png","1","null","","200","847.5949999985169","","","","background","",""
"","null","html-keyboard-response","209","397795","0.0-17.0-0.47","SS1604513288123","","null","","","","","","","","","","","","<img src=images/blank.png width =""500"" height = ""500"" style=""border:5px solid black"">","","",""
"","606.4050000004354","stimulus-presentation","210","398611","0.0-17.0-1.47","SS1604513288123","<img src='images/simple/5.png' width ='500' height = '500' style='border:5px solid black'>","40","mixed_complex_deviant","images/simple/13.png","images/simple/5.png","images/complex/8.png,images/complex/10.png,images/complex/12.png,images/complex/13.png,images/complex/17.png,images/complex/5.png,images/complex/14.png","1","null","","200","806.4050000004354","","","","background","",""
"","null","html-keyboard-response","211","399623","0.0-17.0-0.48","SS1604513288123","","null","","","","","","","","","","","","<img src=images/blank.png width =""500"" height = ""500"" style=""border:5px solid black"">","","",""
"","667.7449999988312","stimulus-presentation","212","400501","0.0-17.0-1.48","SS1604513288123","<img src='images/simple/13.png' width ='500' height = '500' style='border:5px solid black'>","40","mixed_complex_deviant","images/simple/13.png","images/simple/5.png","images/complex/8.png,images/complex/10.png,images/complex/12.png,images/complex/13.png,images/complex/17.png,images/complex/5.png,images/complex/14.png","1","null","","200","867.7449999988312","","","","target","",""
"[{""page_index"":0,""viewing_time"":3574}]","3574","task-instructions","213","404079","0.0-18.0","SS1604513288123","","","","","","","","","","","","","","","","",""
"[{""page_index"":0,""viewing_time"":3416.360000001092},{""page_index"":1,""viewing_time"":5989.679999998771},{""page_index"":2,""viewing_time"":2930.4300000003423}]","12336.880000000761","instructions","214","416421","0.0-19.0","SS1604513288123","","","","","","","","","","","","","","","","",""
"","null","html-keyboard-response","215","417617","0.0-20.0-0.0","SS1604513288123","","null","","","","","","","","","","","","<img src=images/blank.png width =""500"" height = ""500"" style=""border:5px solid black"">","","",""
"","2004.7549999999464","stimulus-presentation","216","419831","0.0-20.0-1.0","SS1604513288123","<img src='images/simple/12.png' width ='500' height = '500' style='border:5px solid black'>","40","all_simple","images/simple/3.png","images/simple/12.png","images/simple/7.png,images/simple/15.png,images/simple/6.png,images/simple/9.png,images/simple/18.png,images/simple/8.png,images/simple/14.png","2","null","","200","2204.7549999999464","","","","background","",""
"","null","html-keyboard-response","217","421101","0.0-20.0-0.1","SS1604513288123","","null","","","","","","","","","","","","<img src=images/blank.png width =""500"" height = ""500"" style=""border:5px solid black"">","","",""
"","590.594999999681","stimulus-presentation","218","421901","0.0-20.0-1.1","SS1604513288123","<img src='images/simple/12.png' width ='500' height = '500' style='border:5px solid black'>","40","all_simple","images/simple/3.png","images/simple/12.png","images/simple/7.png,images/simple/15.png,images/simple/6.png,images/simple/9.png,images/simple/18.png,images/simple/8.png,images/simple/14.png","2","null","","200","790.594999999681","","","","background","",""
"","null","html-keyboard-response","219","423005","0.0-20.0-0.2","SS1604513288123","","null","","","","","","","","","","","","<img src=images/blank.png width =""500"" height = ""500"" style=""border:5px solid black"">","","",""
"","604.1999999997206","stimulus-presentation","220","423820","0.0-20.0-1.2","SS1604513288123","<img src='images/simple/12.png' width ='500' height = '500' style='border:5px solid black'>","40","all_simple","images/simple/3.png","images/simple/12.png","images/simple/7.png,images/simple/15.png,images/simple/6.png,images/simple/9.png,images/simple/18.png,images/simple/8.png,images/simple/14.png","2","null","","200","804.1999999997206","","","","background","",""
"","null","html-keyboard-response","221","424778","0.0-20.0-0.3","SS1604513288123","","null","","","","","","","","","","","","<img src=images/blank.png width =""500"" height = ""500"" style=""border:5px solid black"">","","",""
"","1371.6100000001607","stimulus-presentation","222","426360","0.0-20.0-1.3","SS1604513288123","<img src='images/simple/3.png' width ='500' height = '500' style='border:5px solid black'>","40","all_simple","images/simple/3.png","images/simple/12.png","images/simple/7.png,images/simple/15.png,images/simple/6.png,images/simple/9.png,images/simple/18.png,images/simple/8.png,images/simple/14.png","2","null","","200","1571.6100000001607","","","","target","",""
"","null","html-keyboard-response","223","427220","0.0-20.0-0.4","SS1604513288123","","null","","","","","","","","","","","","<img src=images/blank.png width =""500"" height = ""500"" style=""border:5px solid black"">","","",""
"","769.5050000002375","stimulus-presentation","224","428200","0.0-20.0-1.4","SS1604513288123","<img src='images/simple/6.png' width ='500' height = '500' style='border:5px solid black'>","40","all_simple","images/simple/3.png","images/simple/12.png","images/simple/7.png,images/simple/15.png,images/simple/6.png,images/simple/9.png,images/simple/18.png,images/simple/8.png,images/simple/14.png","2","null","","200","969.5050000002375","","","","deviant","",""
"","null","html-keyboard-response","225","429047","0.0-20.0-0.5","SS1604513288123","","null","","","","","","","","","","","","<img src=images/blank.png width =""500"" height = ""500"" style=""border:5px solid black"">","","",""
"","682.9999999991269","stimulus-presentation","226","429940","0.0-20.0-1.5","SS1604513288123","<img src='images/simple/12.png' width ='500' height = '500' style='border:5px solid black'>","40","all_simple","images/simple/3.png","images/simple/12.png","images/simple/7.png,images/simple/15.png,images/simple/6.png,images/simple/9.png,images/simple/18.png,images/simple/8.png,images/simple/14.png","2","null","","200","882.9999999991269","","","","background","",""
"","null","html-keyboard-response","227","431223","0.0-20.0-0.6","SS1604513288123","","null","","","","","","","","","","","","<img src=images/blank.png width =""500"" height = ""500"" style=""border:5px solid black"">","","",""
"","704.9999999998836","stimulus-presentation","228","432138","0.0-20.0-1.6","SS1604513288123","<img src='images/simple/12.png' width ='500' height = '500' style='border:5px solid black'>","40","all_simple","images/simple/3.png","images/simple/12.png","images/simple/7.png,images/simple/15.png,images/simple/6.png,images/simple/9.png,images/simple/18.png,images/simple/8.png,images/simple/14.png","2","null","","200","904.9999999998836","","","","background","",""
"","null","html-keyboard-response","229","433233","0.0-20.0-0.7","SS1604513288123","","null","","","","","","","","","","","","<img src=images/blank.png width =""500"" height = ""500"" style=""border:5px solid black"">","","",""
"","578.8250000004773","stimulus-presentation","230","434020","0.0-20.0-1.7","SS1604513288123","<img src='images/simple/3.png' width ='500' height = '500' style='border:5px solid black'>","40","all_simple","images/simple/3.png","images/simple/12.png","images/simple/7.png,images/simple/15.png,images/simple/6.png,images/simple/9.png,images/simple/18.png,images/simple/8.png,images/simple/14.png","2","null","","200","778.8250000004773","","","","target","",""
"","null","html-keyboard-response","231","435158","0.0-20.0-0.8","SS1604513288123","","null","","","","","","","","","","","","<img src=images/blank.png width =""500"" height = ""500"" style=""border:5px solid black"">","","",""
"","891.5749999996624","stimulus-presentation","232","436260","0.0-20.0-1.8","SS1604513288123","<img src='images/simple/15.png' width ='500' height = '500' style='border:5px solid black'>","40","all_simple","images/simple/3.png","images/simple/12.png","images/simple/7.png,images/simple/15.png,images/simple/6.png,images/simple/9.png,images/simple/18.png,images/simple/8.png,images/simple/14.png","2","null","","200","1091.5749999996624","","","","deviant","",""
"","null","html-keyboard-response","233","437477","0.0-20.0-0.9","SS1604513288123","","null","","","","","","","","","","","","<img src=images/blank.png width =""500"" height = ""500"" style=""border:5px solid black"">","","",""
"","1052.2250000012573","stimulus-presentation","234","438740","0.0-20.0-1.9","SS1604513288123","<img src='images/simple/12.png' width ='500' height = '500' style='border:5px solid black'>","40","all_simple","images/simple/3.png","images/simple/12.png","images/simple/7.png,images/simple/15.png,images/simple/6.png,images/simple/9.png,images/simple/18.png,images/simple/8.png,images/simple/14.png","2","null","","200","1252.2250000012573","","","","background","",""
"","null","html-keyboard-response","235","439913","0.0-20.0-0.10","SS1604513288123","","null","","","","","","","","","","","","<img src=images/blank.png width =""500"" height = ""500"" style=""border:5px solid black"">","","",""
"","752.8750000001164","stimulus-presentation","236","440938","0.0-20.0-1.10","SS1604513288123","<img src='images/simple/3.png' width ='500' height = '500' style='border:5px solid black'>","40","all_simple","images/simple/3.png","images/simple/12.png","images/simple/7.png,images/simple/15.png,images/simple/6.png,images/simple/9.png,images/simple/18.png,images/simple/8.png,images/simple/14.png","2","null","","200","952.8750000001164","","","","target","",""
"","null","html-keyboard-response","237","442005","0.0-20.0-0.11","SS1604513288123","","null","","","","","","","","","","","","<img src=images/blank.png width =""500"" height = ""500"" style=""border:5px solid black"">","","",""
"","673.8050000003423","stimulus-presentation","238","442890","0.0-20.0-1.11","SS1604513288123","<img src='images/simple/12.png' width ='500' height = '500' style='border:5px solid black'>","40","all_simple","images/simple/3.png","images/simple/12.png","images/simple/7.png,images/simple/15.png,images/simple/6.png,images/simple/9.png,images/simple/18.png,images/simple/8.png,images/simple/14.png","2","null","","200","873.8050000003423","","","","background","",""
"","null","html-keyboard-response","239","443762","0.0-20.0-0.12","SS1604513288123","","null","","","","","","","","","","","","<img src=images/blank.png width =""500"" height = ""500"" style=""border:5px solid black"">","","",""
"","848.0800000015297","stimulus-presentation","240","444950","0.0-20.0-1.12","SS1604513288123","<img src='images/simple/14.png' width ='500' height = '500' style='border:5px solid black'>","40","all_simple","images/simple/3.png","images/simple/12.png","images/simple/7.png,images/simple/15.png,images/simple/6.png,images/simple/9.png,images/simple/18.png,images/simple/8.png,images/simple/14.png","2","null","","200","1048.0800000015297","","","","deviant","",""
"","null","html-keyboard-response","241","446036","0.0-20.0-0.13","SS1604513288123","","null","","","","","","","","","","","","<img src=images/blank.png width =""500"" height = ""500"" style=""border:5px solid black"">","","",""
"","843.5250000001979","stimulus-presentation","242","447090","0.0-20.0-1.13","SS1604513288123","<img src='images/simple/12.png' width ='500' height = '500' style='border:5px solid black'>","40","all_simple","images/simple/3.png","images/simple/12.png","images/simple/7.png,images/simple/15.png,images/simple/6.png,images/simple/9.png,images/simple/18.png,images/simple/8.png,images/simple/14.png","2","null","","200","1043.525000000198","","","","background","",""
"","null","html-keyboard-response","243","448268","0.0-20.0-0.14","SS1604513288123","","null","","","","","","","","","","","","<img src=images/blank.png width =""500"" height = ""500"" style=""border:5px solid black"">","","",""
"","800.079999999085","stimulus-presentation","244","449280","0.0-20.0-1.14","SS1604513288123","<img src='images/simple/12.png' width ='500' height = '500' style='border:5px solid black'>","40","all_simple","images/simple/3.png","images/simple/12.png","images/simple/7.png,images/simple/15.png,images/simple/6.png,images/simple/9.png,images/simple/18.png,images/simple/8.png,images/simple/14.png","2","null","","200","1000.079999999085","","","","background","",""
"","null","html-keyboard-response","245","450439","0.0-20.0-0.15","SS1604513288123","","null","","","","","","","","","","","","<img src=images/blank.png width =""500"" height = ""500"" style=""border:5px solid black"">","","",""
"","837.2549999985495","stimulus-presentation","246","451488","0.0-20.0-1.15","SS1604513288123","<img src='images/simple/12.png' width ='500' height = '500' style='border:5px solid black'>","40","all_simple","images/simple/3.png","images/simple/12.png","images/simple/7.png,images/simple/15.png,images/simple/6.png,images/simple/9.png,images/simple/18.png,images/simple/8.png,images/simple/14.png","2","null","","200","1037.2549999985495","","","","background","",""
"","null","html-keyboard-response","247","452440","0.0-20.0-0.16","SS1604513288123","","null","","","","","","","","","","","","<img src=images/blank.png width =""500"" height = ""500"" style=""border:5px solid black"">","","",""
"","706.4849999988219","stimulus-presentation","248","453360","0.0-20.0-1.16","SS1604513288123","<img src='images/simple/12.png' width ='500' height = '500' style='border:5px solid black'>","40","all_simple","images/simple/3.png","images/simple/12.png","images/simple/7.png,images/simple/15.png,images/simple/6.png,images/simple/9.png,images/simple/18.png,images/simple/8.png,images/simple/14.png","2","null","","200","906.4849999988219","","","","background","",""
"","null","html-keyboard-response","249","454261","0.0-20.0-0.17","SS1604513288123","","null","","","","","","","","","","","","<img src=images/blank.png width =""500"" height = ""500"" style=""border:5px solid black"">","","",""
"","558.2000000012922","stimulus-presentation","250","455030","0.0-20.0-1.17","SS1604513288123","<img src='images/simple/12.png' width ='500' height = '500' style='border:5px solid black'>","40","all_simple","images/simple/3.png","images/simple/12.png","images/simple/7.png,images/simple/15.png,images/simple/6.png,images/simple/9.png,images/simple/18.png,images/simple/8.png,images/simple/14.png","2","null","","200","758.2000000012922","","","","background","",""
"","null","html-keyboard-response","251","456190","0.0-20.0-0.18","SS1604513288123","","null","","","","","","","","","","","","<img src=images/blank.png width =""500"" height = ""500"" style=""border:5px solid black"">","","",""
"","607.370000001567","stimulus-presentation","252","457008","0.0-20.0-1.18","SS1604513288123","<img src='images/simple/12.png' width ='500' height = '500' style='border:5px solid black'>","40","all_simple","images/simple/3.png","images/simple/12.png","images/simple/7.png,images/simple/15.png,images/simple/6.png,images/simple/9.png,images/simple/18.png,images/simple/8.png,images/simple/14.png","2","null","","200","807.370000001567","","","","background","",""
"","null","html-keyboard-response","253","458114","0.0-20.0-0.19","SS1604513288123","","null","","","","","","","","","","","","<img src=images/blank.png width =""500"" height = ""500"" style=""border:5px solid black"">","","",""
"","564.3749999999418","stimulus-presentation","254","458890","0.0-20.0-1.19","SS1604513288123","<img src='images/simple/3.png' width ='500' height = '500' style='border:5px solid black'>","40","all_simple","images/simple/3.png","images/simple/12.png","images/simple/7.png,images/simple/15.png,images/simple/6.png,images/simple/9.png,images/simple/18.png,images/simple/8.png,images/simple/14.png","2","null","","200","764.3749999999418","","","","target","",""
"","null","html-keyboard-response","255","460105","0.0-20.0-0.20","SS1604513288123","","null","","","","","","","","","","","","<img src=images/blank.png width =""500"" height = ""500"" style=""border:5px solid black"">","","",""
"","572.659999999858","stimulus-presentation","256","460940","0.0-20.0-1.20","SS1604513288123","<img src='images/simple/12.png' width ='500' height = '500' style='border:5px solid black'>","40","all_simple","images/simple/3.png","images/simple/12.png","images/simple/7.png,images/simple/15.png,images/simple/6.png,images/simple/9.png,images/simple/18.png,images/simple/8.png,images/simple/14.png","2","null","","200","772.659999999858","","","","background","",""
"","null","html-keyboard-response","257","462218","0.0-20.0-0.21","SS1604513288123","","null","","","","","","","","","","","","<img src=images/blank.png width =""500"" height = ""500"" style=""border:5px solid black"">","","",""
"","852.0699999989592","stimulus-presentation","258","463280","0.0-20.0-1.21","SS1604513288123","<img src='images/simple/12.png' width ='500' height = '500' style='border:5px solid black'>","40","all_simple","images/simple/3.png","images/simple/12.png","images/simple/7.png,images/simple/15.png,images/simple/6.png,images/simple/9.png,images/simple/18.png,images/simple/8.png,images/simple/14.png","2","null","","200","1052.0699999989592","","","","background","",""
"","null","html-keyboard-response","259","464191","0.0-20.0-0.22","SS1604513288123","","null","","","","","","","","","","","","<img src=images/blank.png width =""500"" height = ""500"" style=""border:5px solid black"">","","",""
"","1017.1150000005728","stimulus-presentation","260","465420","0.0-20.0-1.22","SS1604513288123","<img src='images/simple/3.png' width ='500' height = '500' style='border:5px solid black'>","40","all_simple","images/simple/3.png","images/simple/12.png","images/simple/7.png,images/simple/15.png,images/simple/6.png,images/simple/9.png,images/simple/18.png,images/simple/8.png,images/simple/14.png","2","null","","200","1217.1150000005728","","","","target","",""
"","null","html-keyboard-response","261","466448","0.0-20.0-0.23","SS1604513288123","","null","","","","","","","","","","","","<img src=images/blank.png width =""500"" height = ""500"" style=""border:5px solid black"">","","",""
"","733.4150000006193","stimulus-presentation","262","467393","0.0-20.0-1.23","SS1604513288123","<img src='images/simple/12.png' width ='500' height = '500' style='border:5px solid black'>","40","all_simple","images/simple/3.png","images/simple/12.png","images/simple/7.png,images/simple/15.png,images/simple/6.png,images/simple/9.png,images/simple/18.png,images/simple/8.png,images/simple/14.png","2","null","","200","933.4150000006193","","","","background","",""
"","null","html-keyboard-response","263","468302","0.0-20.0-0.24","SS1604513288123","","null","","","","","","","","","","","","<img src=images/blank.png width =""500"" height = ""500"" style=""border:5px solid black"">","","",""
"","588.2500000006985","stimulus-presentation","264","469100","0.0-20.0-1.24","SS1604513288123","<img src='images/simple/8.png' width ='500' height = '500' style='border:5px solid black'>","40","all_simple","images/simple/3.png","images/simple/12.png","images/simple/7.png,images/simple/15.png,images/simple/6.png,images/simple/9.png,images/simple/18.png,images/simple/8.png,images/simple/14.png","2","null","","200","788.2500000006985","","","","deviant","",""
"","null","html-keyboard-response","265","469999","0.0-20.0-0.25","SS1604513288123","","null","","","","","","","","","","","","<img src=images/blank.png width =""500"" height = ""500"" style=""border:5px solid black"">","","",""
"","662.8600000003935","stimulus-presentation","266","470928","0.0-20.0-1.25","SS1604513288123","<img src='images/simple/12.png' width ='500' height = '500' style='border:5px solid black'>","40","all_simple","images/simple/3.png","images/simple/12.png","images/simple/7.png,images/simple/15.png,images/simple/6.png,images/simple/9.png,images/simple/18.png,images/simple/8.png,images/simple/14.png","2","null","","200","862.8600000003935","","","","background","",""
"","null","html-keyboard-response","267","472207","0.0-20.0-0.26","SS1604513288123","","null","","","","","","","","","","","","<img src=images/blank.png width =""500"" height = ""500"" style=""border:5px solid black"">","","",""
"","381.7550000003539","stimulus-presentation","268","472800","0.0-20.0-1.26","SS1604513288123","<img src='images/simple/12.png' width ='500' height = '500' style='border:5px solid black'>","40","all_simple","images/simple/3.png","images/simple/12.png","images/simple/7.png,images/simple/15.png,images/simple/6.png,images/simple/9.png,images/simple/18.png,images/simple/8.png,images/simple/14.png","2","null","","200","581.7550000003539","","","","background","",""
"","null","html-keyboard-response","269","473978","0.0-20.0-0.27","SS1604513288123","","null","","","","","","","","","","","","<img src=images/blank.png width =""500"" height = ""500"" style=""border:5px solid black"">","","",""
"","480.1800000005169","stimulus-presentation","270","474670","0.0-20.0-1.27","SS1604513288123","<img src='images/simple/12.png' width ='500' height = '500' style='border:5px solid black'>","40","all_simple","images/simple/3.png","images/simple/12.png","images/simple/7.png,images/simple/15.png,images/simple/6.png,images/simple/9.png,images/simple/18.png,images/simple/8.png,images/simple/14.png","2","null","","200","680.1800000005169","","","","background","",""
"","null","html-keyboard-response","271","475887","0.0-20.0-0.28","SS1604513288123","","null","","","","","","","","","","","","<img src=images/blank.png width =""500"" height = ""500"" style=""border:5px solid black"">","","",""
"","1104.8850000006496","stimulus-presentation","272","477261","0.0-20.0-1.28","SS1604513288123","<img src='images/simple/12.png' width ='500' height = '500' style='border:5px solid black'>","40","all_simple","images/simple/3.png","images/simple/12.png","images/simple/7.png,images/simple/15.png,images/simple/6.png,images/simple/9.png,images/simple/18.png,images/simple/8.png,images/simple/14.png","2","null","","200","1304.8850000006496","","","","background","",""
"","null","html-keyboard-response","273","478383","0.0-20.0-0.29","SS1604513288123","","null","","","","","","","","","","","","<img src=images/blank.png width =""500"" height = ""500"" style=""border:5px solid black"">","","",""
"","664.6999999993714","stimulus-presentation","274","479258","0.0-20.0-1.29","SS1604513288123","<img src='images/simple/12.png' width ='500' height = '500' style='border:5px solid black'>","40","all_simple","images/simple/3.png","images/simple/12.png","images/simple/7.png,images/simple/15.png,images/simple/6.png,images/simple/9.png,images/simple/18.png,images/simple/8.png,images/simple/14.png","2","null","","200","864.6999999993714","","","","background","",""
"","null","html-keyboard-response","275","480351","0.0-20.0-0.30","SS1604513288123","","null","","","","","","","","","","","","<img src=images/blank.png width =""500"" height = ""500"" style=""border:5px solid black"">","","",""
"","597.4600000008941","stimulus-presentation","276","481160","0.0-20.0-1.30","SS1604513288123","<img src='images/simple/12.png' width ='500' height = '500' style='border:5px solid black'>","40","all_simple","images/simple/3.png","images/simple/12.png","images/simple/7.png,images/simple/15.png,images/simple/6.png,images/simple/9.png,images/simple/18.png,images/simple/8.png,images/simple/14.png","2","null","","200","797.4600000008941","","","","background","",""
"","null","html-keyboard-response","277","482232","0.0-20.0-0.31","SS1604513288123","","null","","","","","","","","","","","","<img src=images/blank.png width =""500"" height = ""500"" style=""border:5px solid black"">","","",""
"","642.8550000000396","stimulus-presentation","278","483119","0.0-20.0-1.31","SS1604513288123","<img src='images/simple/12.png' width ='500' height = '500' style='border:5px solid black'>","40","all_simple","images/simple/3.png","images/simple/12.png","images/simple/7.png,images/simple/15.png,images/simple/6.png,images/simple/9.png,images/simple/18.png,images/simple/8.png,images/simple/14.png","2","null","","200","842.8550000000396","","","","background","",""
"","null","html-keyboard-response","279","484398","0.0-20.0-0.32","SS1604513288123","","null","","","","","","","","","","","","<img src=images/blank.png width =""500"" height = ""500"" style=""border:5px solid black"">","","",""
"","548.4850000011502","stimulus-presentation","280","485157","0.0-20.0-1.32","SS1604513288123","<img src='images/simple/12.png' width ='500' height = '500' style='border:5px solid black'>","40","all_simple","images/simple/3.png","images/simple/12.png","images/simple/7.png,images/simple/15.png,images/simple/6.png,images/simple/9.png,images/simple/18.png,images/simple/8.png,images/simple/14.png","2","null","","200","748.4850000011502","","","","background","",""
"","null","html-keyboard-response","281","486381","0.0-20.0-0.33","SS1604513288123","","null","","","","","","","","","","","","<img src=images/blank.png width =""500"" height = ""500"" style=""border:5px solid black"">","","",""
"","534.7650000003632","stimulus-presentation","282","487129","0.0-20.0-1.33","SS1604513288123","<img src='images/simple/12.png' width ='500' height = '500' style='border:5px solid black'>","40","all_simple","images/simple/3.png","images/simple/12.png","images/simple/7.png,images/simple/15.png,images/simple/6.png,images/simple/9.png,images/simple/18.png,images/simple/8.png,images/simple/14.png","2","null","","200","734.7650000003632","","","","background","",""
"","null","html-keyboard-response","283","487949","0.0-20.0-0.34","SS1604513288123","","null","","","","","","","","","","","","<img src=images/blank.png width =""500"" height = ""500"" style=""border:5px solid black"">","","",""
"","1050.4100000016042","stimulus-presentation","284","489270","0.0-20.0-1.34","SS1604513288123","<img src='images/simple/9.png' width ='500' height = '500' style='border:5px solid black'>","40","all_simple","images/simple/3.png","images/simple/12.png","images/simple/7.png,images/simple/15.png,images/simple/6.png,images/simple/9.png,images/simple/18.png,images/simple/8.png,images/simple/14.png","2","null","","200","1250.4100000016042","","","","deviant","",""
