"view_history","rt","trial_type","trial_index","time_elapsed","internal_node_id","subject","trial_stimulus","key_press","task_type","task_target_stimulus","task_background_stimulus","task_deviant_stimuli","task_order_number","block_order_number","trial_order_number","minimum_viewing_duration","trial_looking_time","trial_pressed_space_bar","trial_space_bar_rt","stimulus","trial_stimulus_type","responses","question_order"
"[{""page_index"":0,""viewing_time"":3194.9400000157766}]","3196.265000035055","instructions","0","3244","0.0-0.0","SS1603400523565","","","","","","","","","","","","","","","","",""
"[{""page_index"":0,""viewing_time"":13115.300000004936},{""page_index"":1,""viewing_time"":4147.989999968559},{""page_index"":2,""viewing_time"":4125.059999991208},{""page_index"":3,""viewing_time"":6338.295000023209},{""page_index"":4,""viewing_time"":3188.5550000006333},{""page_index"":5,""viewing_time"":4677.484999992885},{""page_index"":6,""viewing_time"":1877.3749999818392},{""page_index"":7,""viewing_time"":4646.2650000466965},{""page_index"":8,""viewing_time"":1528.9649999467656}]","43645.96499997424","instructions","1","46892","0.0-1.0","SS1603400523565","","","","","","","","","","","","","","","","",""
"[{""page_index"":0,""viewing_time"":1913.7899999623187},{""page_index"":1,""viewing_time"":9104.634999996051},{""page_index"":2,""viewing_time"":1309.1650000424124}]","12328.23499996448","instructions","2","59223","0.0-2.0","SS1603400523565","","","","","","","","","","","","","","","","",""
"","1381.7599999601953","practice-block","3","60811","0.0-3.0","SS1603400523565","<img src='images/practice/practice_background.jpeg' width ='500' height = '500' style='border:5px solid black'>","40","null","images/practice/practice_target.jpg","null","null","null","null","","200","1581.7599999601953","","","","","",""
"","null","html-keyboard-response","4","62082","0.0-4.0","SS1603400523565","","null","","","","","","","","","","","","<img src=images/blank.png width =""500"" height = ""500"" style=""border:5px solid black"">","","",""
"","567.3250000108965","practice-block","5","62870","0.0-5.0","SS1603400523565","<img src='images/practice/practice_background.jpeg' width ='500' height = '500' style='border:5px solid black'>","40","null","images/practice/practice_target.jpg","null","null","null","null","","200","767.3250000108965","","","","","",""
"","null","html-keyboard-response","6","63721","0.0-6.0","SS1603400523565","","null","","","","","","","","","","","","<img src=images/blank.png width =""500"" height = ""500"" style=""border:5px solid black"">","","",""
"","359.4499999890104","practice-block","7","64300","0.0-7.0","SS1603400523565","<img src='images/practice/practice_deviant.jpeg' width ='500' height = '500' style='border:5px solid black'>","40","null","images/practice/practice_target.jpg","null","null","null","null","","200","559.4499999890104","","","","","",""
"","null","html-keyboard-response","8","65302","0.0-8.0","SS1603400523565","","null","","","","","","","","","","","","<img src=images/blank.png width =""500"" height = ""500"" style=""border:5px solid black"">","","",""
"","3530.8749999967404","practice-block","9","69052","0.0-9.0-0.0","SS1603400523565","<img src='images/practice/practice_target.jpg' width ='500' height = '500' style='border:5px solid black'>","40","null","images/practice/practice_target.jpg","null","null","null","null","","200","3730.8749999967404","yes","420.8399999770336","","","",""
"","null","html-keyboard-response","10","70250","0.0-10.0","SS1603400523565","","null","","","","","","","","","","","","<img src=images/blank.png width =""500"" height = ""500"" style=""border:5px solid black"">","","",""
"","502.19500000821427","practice-block","11","70957","0.0-11.0","SS1603400523565","<img src='images/practice/practice_background.jpeg' width ='500' height = '500' style='border:5px solid black'>","40","null","images/practice/practice_target.jpg","null","null","null","null","","200","702.1950000082143","","","","","",""
"[{""page_index"":0,""viewing_time"":1768}]","1768","task-instructions","12","72729","0.0-12.0","SS1603400523565","","","","","","","","","","","","","","","","",""
"[{""page_index"":0,""viewing_time"":3747.1950000035577},{""page_index"":1,""viewing_time"":3966.7800000170246},{""page_index"":2,""viewing_time"":1337.0599999907427}]","9051.650000037625","instructions","13","81782","0.0-13.0","SS1603400523565","","","","","","","","","","","","","","","","",""
"","null","html-keyboard-response","14","82959","0.0-14.0-0.0","SS1603400523565","","null","","","","","","","","","","","","<img src=images/blank.png width =""500"" height = ""500"" style=""border:5px solid black"">","","",""
"","2135.7300000381656","stimulus-presentation","15","85301","0.0-14.0-1.0","SS1603400523565","<img src='images/simple/6.png' width ='500' height = '500' style='border:5px solid black'>","40","all_simple","images/simple/6.png","images/simple/5.png","images/simple/14.png,images/simple/2.png,images/simple/16.png,images/simple/11.png,images/simple/10.png,images/simple/1.png,images/simple/9.png","0","null","","200","2335.7300000381656","","","","target","",""
"","null","html-keyboard-response","16","86447","0.0-14.0-0.1","SS1603400523565","","null","","","","","","","","","","","","<img src=images/blank.png width =""500"" height = ""500"" style=""border:5px solid black"">","","",""
"","1830.664999957662","stimulus-presentation","17","88482","0.0-14.0-1.1","SS1603400523565","<img src='images/simple/5.png' width ='500' height = '500' style='border:5px solid black'>","40","all_simple","images/simple/6.png","images/simple/5.png","images/simple/14.png,images/simple/2.png,images/simple/16.png,images/simple/11.png,images/simple/10.png,images/simple/1.png,images/simple/9.png","0","null","","200","2030.664999957662","","","","background","",""
"","null","html-keyboard-response","18","89368","0.0-14.0-0.2","SS1603400523565","","null","","","","","","","","","","","","<img src=images/blank.png width =""500"" height = ""500"" style=""border:5px solid black"">","","",""
"","685.1600000518374","stimulus-presentation","19","90271","0.0-14.0-1.2","SS1603400523565","<img src='images/simple/5.png' width ='500' height = '500' style='border:5px solid black'>","40","all_simple","images/simple/6.png","images/simple/5.png","images/simple/14.png,images/simple/2.png,images/simple/16.png,images/simple/11.png,images/simple/10.png,images/simple/1.png,images/simple/9.png","0","null","","200","885.1600000518374","","","","background","",""
"","null","html-keyboard-response","20","91572","0.0-14.0-0.3","SS1603400523565","","null","","","","","","","","","","","","<img src=images/blank.png width =""500"" height = ""500"" style=""border:5px solid black"">","","",""
"","1548.2100000372157","stimulus-presentation","21","93338","0.0-14.0-1.3","SS1603400523565","<img src='images/simple/6.png' width ='500' height = '500' style='border:5px solid black'>","40","all_simple","images/simple/6.png","images/simple/5.png","images/simple/14.png,images/simple/2.png,images/simple/16.png,images/simple/11.png,images/simple/10.png,images/simple/1.png,images/simple/9.png","0","null","","200","1748.2100000372157","yes","300.84999999962747","","target","",""
"","null","html-keyboard-response","22","94249","0.0-14.0-0.4","SS1603400523565","","null","","","","","","","","","","","","<img src=images/blank.png width =""500"" height = ""500"" style=""border:5px solid black"">","","",""
"","952.4450000026263","stimulus-presentation","23","95419","0.0-14.0-1.4","SS1603400523565","<img src='images/simple/5.png' width ='500' height = '500' style='border:5px solid black'>","40","all_simple","images/simple/6.png","images/simple/5.png","images/simple/14.png,images/simple/2.png,images/simple/16.png,images/simple/11.png,images/simple/10.png,images/simple/1.png,images/simple/9.png","0","null","","200","1152.4450000026263","","","","background","",""
"","null","html-keyboard-response","24","96438","0.0-14.0-0.5","SS1603400523565","","null","","","","","","","","","","","","<img src=images/blank.png width =""500"" height = ""500"" style=""border:5px solid black"">","","",""
"","821.7399999848567","stimulus-presentation","25","97465","0.0-14.0-1.5","SS1603400523565","<img src='images/simple/5.png' width ='500' height = '500' style='border:5px solid black'>","40","all_simple","images/simple/6.png","images/simple/5.png","images/simple/14.png,images/simple/2.png,images/simple/16.png,images/simple/11.png,images/simple/10.png,images/simple/1.png,images/simple/9.png","0","null","","200","1021.7399999848567","","","","background","",""
"","null","html-keyboard-response","26","98634","0.0-14.0-0.6","SS1603400523565","","null","","","","","","","","","","","","<img src=images/blank.png width =""500"" height = ""500"" style=""border:5px solid black"">","","",""
"","1375.7699999841861","stimulus-presentation","27","100215","0.0-14.0-1.6","SS1603400523565","<img src='images/simple/6.png' width ='500' height = '500' style='border:5px solid black'>","40","all_simple","images/simple/6.png","images/simple/5.png","images/simple/14.png,images/simple/2.png,images/simple/16.png,images/simple/11.png,images/simple/10.png,images/simple/1.png,images/simple/9.png","0","null","","200","1575.7699999841861","yes","318.764999974519","","target","",""
"","null","html-keyboard-response","28","101483","0.0-14.0-0.7","SS1603400523565","","null","","","","","","","","","","","","<img src=images/blank.png width =""500"" height = ""500"" style=""border:5px solid black"">","","",""
"","599.2249999544583","stimulus-presentation","29","102302","0.0-14.0-1.7","SS1603400523565","<img src='images/simple/5.png' width ='500' height = '500' style='border:5px solid black'>","40","all_simple","images/simple/6.png","images/simple/5.png","images/simple/14.png,images/simple/2.png,images/simple/16.png,images/simple/11.png,images/simple/10.png,images/simple/1.png,images/simple/9.png","0","null","","200","799.2249999544583","","","","background","",""
"","null","html-keyboard-response","30","103209","0.0-14.0-0.8","SS1603400523565","","null","","","","","","","","","","","","<img src=images/blank.png width =""500"" height = ""500"" style=""border:5px solid black"">","","",""
"","476.82500001974404","stimulus-presentation","31","103905","0.0-14.0-1.8","SS1603400523565","<img src='images/simple/5.png' width ='500' height = '500' style='border:5px solid black'>","40","all_simple","images/simple/6.png","images/simple/5.png","images/simple/14.png,images/simple/2.png,images/simple/16.png,images/simple/11.png,images/simple/10.png,images/simple/1.png,images/simple/9.png","0","null","","200","676.825000019744","","","","background","",""
"","null","html-keyboard-response","32","104946","0.0-14.0-0.9","SS1603400523565","","null","","","","","","","","","","","","<img src=images/blank.png width =""500"" height = ""500"" style=""border:5px solid black"">","","",""
"","736.2450000364333","stimulus-presentation","33","105887","0.0-14.0-1.9","SS1603400523565","<img src='images/simple/14.png' width ='500' height = '500' style='border:5px solid black'>","40","all_simple","images/simple/6.png","images/simple/5.png","images/simple/14.png,images/simple/2.png,images/simple/16.png,images/simple/11.png,images/simple/10.png,images/simple/1.png,images/simple/9.png","0","null","","200","936.2450000364333","","","","deviant","",""
"","null","html-keyboard-response","34","106766","0.0-14.0-0.10","SS1603400523565","","null","","","","","","","","","","","","<img src=images/blank.png width =""500"" height = ""500"" style=""border:5px solid black"">","","",""
"","402.8200000175275","stimulus-presentation","35","107388","0.0-14.0-1.10","SS1603400523565","<img src='images/simple/5.png' width ='500' height = '500' style='border:5px solid black'>","40","all_simple","images/simple/6.png","images/simple/5.png","images/simple/14.png,images/simple/2.png,images/simple/16.png,images/simple/11.png,images/simple/10.png,images/simple/1.png,images/simple/9.png","0","null","","200","602.8200000175275","","","","background","",""
"","null","html-keyboard-response","36","108621","0.0-14.0-0.11","SS1603400523565","","null","","","","","","","","","","","","<img src=images/blank.png width =""500"" height = ""500"" style=""border:5px solid black"">","","",""
"","570.4050000058487","stimulus-presentation","37","109397","0.0-14.0-1.11","SS1603400523565","<img src='images/simple/5.png' width ='500' height = '500' style='border:5px solid black'>","40","all_simple","images/simple/6.png","images/simple/5.png","images/simple/14.png,images/simple/2.png,images/simple/16.png,images/simple/11.png,images/simple/10.png,images/simple/1.png,images/simple/9.png","0","null","","200","770.4050000058487","","","","background","",""
"","null","html-keyboard-response","38","110695","0.0-14.0-0.12","SS1603400523565","","null","","","","","","","","","","","","<img src=images/blank.png width =""500"" height = ""500"" style=""border:5px solid black"">","","",""
"","1450.2549999742769","stimulus-presentation","39","112365","0.0-14.0-1.12","SS1603400523565","<img src='images/simple/6.png' width ='500' height = '500' style='border:5px solid black'>","40","all_simple","images/simple/6.png","images/simple/5.png","images/simple/14.png,images/simple/2.png,images/simple/16.png,images/simple/11.png,images/simple/10.png,images/simple/1.png,images/simple/9.png","0","null","","200","1650.2549999742769","yes","496.75499997101724","","target","",""
"","null","html-keyboard-response","40","113272","0.0-14.0-0.13","SS1603400523565","","null","","","","","","","","","","","","<img src=images/blank.png width =""500"" height = ""500"" style=""border:5px solid black"">","","",""
"","645.6350000225939","stimulus-presentation","41","114124","0.0-14.0-1.13","SS1603400523565","<img src='images/simple/5.png' width ='500' height = '500' style='border:5px solid black'>","40","all_simple","images/simple/6.png","images/simple/5.png","images/simple/14.png,images/simple/2.png,images/simple/16.png,images/simple/11.png,images/simple/10.png,images/simple/1.png,images/simple/9.png","0","null","","200","845.6350000225939","","","","background","",""
"","null","html-keyboard-response","42","115148","0.0-14.0-0.14","SS1603400523565","","null","","","","","","","","","","","","<img src=images/blank.png width =""500"" height = ""500"" style=""border:5px solid black"">","","",""
"","348.2150000054389","stimulus-presentation","43","115701","0.0-14.0-1.14","SS1603400523565","<img src='images/simple/5.png' width ='500' height = '500' style='border:5px solid black'>","40","all_simple","images/simple/6.png","images/simple/5.png","images/simple/14.png,images/simple/2.png,images/simple/16.png,images/simple/11.png,images/simple/10.png,images/simple/1.png,images/simple/9.png","0","null","","200","548.2150000054389","","","","background","",""
"","null","html-keyboard-response","44","116543","0.0-14.0-0.15","SS1603400523565","","null","","","","","","","","","","","","<img src=images/blank.png width =""500"" height = ""500"" style=""border:5px solid black"">","","",""
"","256.63999997777864","stimulus-presentation","45","117019","0.0-14.0-1.15","SS1603400523565","<img src='images/simple/5.png' width ='500' height = '500' style='border:5px solid black'>","40","all_simple","images/simple/6.png","images/simple/5.png","images/simple/14.png,images/simple/2.png,images/simple/16.png,images/simple/11.png,images/simple/10.png,images/simple/1.png,images/simple/9.png","0","null","","200","456.63999997777864","","","","background","",""
"","null","html-keyboard-response","46","118237","0.0-14.0-0.16","SS1603400523565","","null","","","","","","","","","","","","<img src=images/blank.png width =""500"" height = ""500"" style=""border:5px solid black"">","","",""
"","708.6650000419468","stimulus-presentation","47","119164","0.0-14.0-1.16","SS1603400523565","<img src='images/simple/11.png' width ='500' height = '500' style='border:5px solid black'>","40","all_simple","images/simple/6.png","images/simple/5.png","images/simple/14.png,images/simple/2.png,images/simple/16.png,images/simple/11.png,images/simple/10.png,images/simple/1.png,images/simple/9.png","0","null","","200","908.6650000419468","","","","deviant","",""
"","null","html-keyboard-response","48","120173","0.0-14.0-0.17","SS1603400523565","","null","","","","","","","","","","","","<img src=images/blank.png width =""500"" height = ""500"" style=""border:5px solid black"">","","",""
"","372.47500004014","stimulus-presentation","49","120765","0.0-14.0-1.17","SS1603400523565","<img src='images/simple/5.png' width ='500' height = '500' style='border:5px solid black'>","40","all_simple","images/simple/6.png","images/simple/5.png","images/simple/14.png,images/simple/2.png,images/simple/16.png,images/simple/11.png,images/simple/10.png,images/simple/1.png,images/simple/9.png","0","null","","200","572.47500004014","","","","background","",""
"","null","html-keyboard-response","50","121586","0.0-14.0-0.18","SS1603400523565","","null","","","","","","","","","","","","<img src=images/blank.png width =""500"" height = ""500"" style=""border:5px solid black"">","","",""
"","435.0900000426918","stimulus-presentation","51","122225","0.0-14.0-1.18","SS1603400523565","<img src='images/simple/5.png' width ='500' height = '500' style='border:5px solid black'>","40","all_simple","images/simple/6.png","images/simple/5.png","images/simple/14.png,images/simple/2.png,images/simple/16.png,images/simple/11.png,images/simple/10.png,images/simple/1.png,images/simple/9.png","0","null","","200","635.0900000426918","","","","background","",""
"","null","html-keyboard-response","52","123240","0.0-14.0-0.19","SS1603400523565","","null","","","","","","","","","","","","<img src=images/blank.png width =""500"" height = ""500"" style=""border:5px solid black"">","","",""
"","437.6349999802187","stimulus-presentation","53","123897","0.0-14.0-1.19","SS1603400523565","<img src='images/simple/1.png' width ='500' height = '500' style='border:5px solid black'>","40","all_simple","images/simple/6.png","images/simple/5.png","images/simple/14.png,images/simple/2.png,images/simple/16.png,images/simple/11.png,images/simple/10.png,images/simple/1.png,images/simple/9.png","0","null","","200","637.6349999802187","","","","deviant","",""
"","null","html-keyboard-response","54","124892","0.0-14.0-0.20","SS1603400523565","","null","","","","","","","","","","","","<img src=images/blank.png width =""500"" height = ""500"" style=""border:5px solid black"">","","",""
"","205.97500004805624","stimulus-presentation","55","125304","0.0-14.0-1.20","SS1603400523565","<img src='images/simple/5.png' width ='500' height = '500' style='border:5px solid black'>","40","all_simple","images/simple/6.png","images/simple/5.png","images/simple/14.png,images/simple/2.png,images/simple/16.png,images/simple/11.png,images/simple/10.png,images/simple/1.png,images/simple/9.png","0","null","","200","405.97500004805624","","","","background","",""
"","null","html-keyboard-response","56","126301","0.0-14.0-0.21","SS1603400523565","","null","","","","","","","","","","","","<img src=images/blank.png width =""500"" height = ""500"" style=""border:5px solid black"">","","",""
"","288.0750000476837","stimulus-presentation","57","126809","0.0-14.0-1.21","SS1603400523565","<img src='images/simple/5.png' width ='500' height = '500' style='border:5px solid black'>","40","all_simple","images/simple/6.png","images/simple/5.png","images/simple/14.png,images/simple/2.png,images/simple/16.png,images/simple/11.png,images/simple/10.png,images/simple/1.png,images/simple/9.png","0","null","","200","488.0750000476837","","","","background","",""
"","null","html-keyboard-response","58","128066","0.0-14.0-0.22","SS1603400523565","","null","","","","","","","","","","","","<img src=images/blank.png width =""500"" height = ""500"" style=""border:5px solid black"">","","",""
"","213.71000004000962","stimulus-presentation","59","128498","0.0-14.0-1.22","SS1603400523565","<img src='images/simple/5.png' width ='500' height = '500' style='border:5px solid black'>","40","all_simple","images/simple/6.png","images/simple/5.png","images/simple/14.png,images/simple/2.png,images/simple/16.png,images/simple/11.png,images/simple/10.png,images/simple/1.png,images/simple/9.png","0","null","","200","413.7100000400096","","","","background","",""
"","null","html-keyboard-response","60","129665","0.0-14.0-0.23","SS1603400523565","","null","","","","","","","","","","","","<img src=images/blank.png width =""500"" height = ""500"" style=""border:5px solid black"">","","",""
"","189.4050000119023","stimulus-presentation","61","130075","0.0-14.0-1.23","SS1603400523565","<img src='images/simple/5.png' width ='500' height = '500' style='border:5px solid black'>","40","all_simple","images/simple/6.png","images/simple/5.png","images/simple/14.png,images/simple/2.png,images/simple/16.png,images/simple/11.png,images/simple/10.png,images/simple/1.png,images/simple/9.png","0","null","","200","389.4050000119023","","","","background","",""
"","null","html-keyboard-response","62","131325","0.0-14.0-0.24","SS1603400523565","","null","","","","","","","","","","","","<img src=images/blank.png width =""500"" height = ""500"" style=""border:5px solid black"">","","",""
"","1028.1100000138395","stimulus-presentation","63","132572","0.0-14.0-1.24","SS1603400523565","<img src='images/simple/6.png' width ='500' height = '500' style='border:5px solid black'>","40","all_simple","images/simple/6.png","images/simple/5.png","images/simple/14.png,images/simple/2.png,images/simple/16.png,images/simple/11.png,images/simple/10.png,images/simple/1.png,images/simple/9.png","0","null","","200","1228.1100000138395","yes","324.02499997988343","","target","",""
"","null","html-keyboard-response","64","133547","0.0-14.0-0.25","SS1603400523565","","null","","","","","","","","","","","","<img src=images/blank.png width =""500"" height = ""500"" style=""border:5px solid black"">","","",""
"","475.1950000063516","stimulus-presentation","65","134240","0.0-14.0-1.25","SS1603400523565","<img src='images/simple/10.png' width ='500' height = '500' style='border:5px solid black'>","40","all_simple","images/simple/6.png","images/simple/5.png","images/simple/14.png,images/simple/2.png,images/simple/16.png,images/simple/11.png,images/simple/10.png,images/simple/1.png,images/simple/9.png","0","null","","200","675.1950000063516","","","","deviant","",""
"","null","html-keyboard-response","66","135079","0.0-14.0-0.26","SS1603400523565","","null","","","","","","","","","","","","<img src=images/blank.png width =""500"" height = ""500"" style=""border:5px solid black"">","","",""
"","1063.8899999903515","stimulus-presentation","67","136360","0.0-14.0-1.26","SS1603400523565","<img src='images/simple/6.png' width ='500' height = '500' style='border:5px solid black'>","40","all_simple","images/simple/6.png","images/simple/5.png","images/simple/14.png,images/simple/2.png,images/simple/16.png,images/simple/11.png,images/simple/10.png,images/simple/1.png,images/simple/9.png","0","null","","200","1263.8899999903515","yes","330.454999988433","","target","",""
"","null","html-keyboard-response","68","137445","0.0-14.0-0.27","SS1603400523565","","null","","","","","","","","","","","","<img src=images/blank.png width =""500"" height = ""500"" style=""border:5px solid black"">","","",""
"","231.2899999669753","stimulus-presentation","69","137897","0.0-14.0-1.27","SS1603400523565","<img src='images/simple/5.png' width ='500' height = '500' style='border:5px solid black'>","40","all_simple","images/simple/6.png","images/simple/5.png","images/simple/14.png,images/simple/2.png,images/simple/16.png,images/simple/11.png,images/simple/10.png,images/simple/1.png,images/simple/9.png","0","null","","200","431.2899999669753","","","","background","",""
"","null","html-keyboard-response","70","138939","0.0-14.0-0.28","SS1603400523565","","null","","","","","","","","","","","","<img src=images/blank.png width =""500"" height = ""500"" style=""border:5px solid black"">","","",""
"","276.4200000092387","stimulus-presentation","71","139434","0.0-14.0-1.28","SS1603400523565","<img src='images/simple/5.png' width ='500' height = '500' style='border:5px solid black'>","40","all_simple","images/simple/6.png","images/simple/5.png","images/simple/14.png,images/simple/2.png,images/simple/16.png,images/simple/11.png,images/simple/10.png,images/simple/1.png,images/simple/9.png","0","null","","200","476.4200000092387","","","","background","",""
"","null","html-keyboard-response","72","140627","0.0-14.0-0.29","SS1603400523565","","null","","","","","","","","","","","","<img src=images/blank.png width =""500"" height = ""500"" style=""border:5px solid black"">","","",""
"","251.12000002991408","stimulus-presentation","73","141083","0.0-14.0-1.29","SS1603400523565","<img src='images/simple/2.png' width ='500' height = '500' style='border:5px solid black'>","40","all_simple","images/simple/6.png","images/simple/5.png","images/simple/14.png,images/simple/2.png,images/simple/16.png,images/simple/11.png,images/simple/10.png,images/simple/1.png,images/simple/9.png","0","null","","200","451.1200000299141","","","","deviant","",""
"","null","html-keyboard-response","74","142218","0.0-14.0-0.30","SS1603400523565","","null","","","","","","","","","","","","<img src=images/blank.png width =""500"" height = ""500"" style=""border:5px solid black"">","","",""
"","255.10999996913597","stimulus-presentation","75","142691","0.0-14.0-1.30","SS1603400523565","<img src='images/simple/5.png' width ='500' height = '500' style='border:5px solid black'>","40","all_simple","images/simple/6.png","images/simple/5.png","images/simple/14.png,images/simple/2.png,images/simple/16.png,images/simple/11.png,images/simple/10.png,images/simple/1.png,images/simple/9.png","0","null","","200","455.10999996913597","","","","background","",""
"","null","html-keyboard-response","76","143863","0.0-14.0-0.31","SS1603400523565","","null","","","","","","","","","","","","<img src=images/blank.png width =""500"" height = ""500"" style=""border:5px solid black"">","","",""
"","154.04499997384846","stimulus-presentation","77","144221","0.0-14.0-1.31","SS1603400523565","<img src='images/simple/5.png' width ='500' height = '500' style='border:5px solid black'>","40","all_simple","images/simple/6.png","images/simple/5.png","images/simple/14.png,images/simple/2.png,images/simple/16.png,images/simple/11.png,images/simple/10.png,images/simple/1.png,images/simple/9.png","0","null","","200","354.04499997384846","","","","background","",""
"","null","html-keyboard-response","78","145464","0.0-14.0-0.32","SS1603400523565","","null","","","","","","","","","","","","<img src=images/blank.png width =""500"" height = ""500"" style=""border:5px solid black"">","","",""
"","241.73499998869374","stimulus-presentation","79","145910","0.0-14.0-1.32","SS1603400523565","<img src='images/simple/5.png' width ='500' height = '500' style='border:5px solid black'>","40","all_simple","images/simple/6.png","images/simple/5.png","images/simple/14.png,images/simple/2.png,images/simple/16.png,images/simple/11.png,images/simple/10.png,images/simple/1.png,images/simple/9.png","0","null","","200","441.73499998869374","","","","background","",""
"","null","html-keyboard-response","80","147167","0.0-14.0-0.33","SS1603400523565","","null","","","","","","","","","","","","<img src=images/blank.png width =""500"" height = ""500"" style=""border:5px solid black"">","","",""
"","338.98000000044703","stimulus-presentation","81","147711","0.0-14.0-1.33","SS1603400523565","<img src='images/simple/5.png' width ='500' height = '500' style='border:5px solid black'>","40","all_simple","images/simple/6.png","images/simple/5.png","images/simple/14.png,images/simple/2.png,images/simple/16.png,images/simple/11.png,images/simple/10.png,images/simple/1.png,images/simple/9.png","0","null","","200","538.980000000447","","","","background","",""
"","null","html-keyboard-response","82","148698","0.0-14.0-0.34","SS1603400523565","","null","","","","","","","","","","","","<img src=images/blank.png width =""500"" height = ""500"" style=""border:5px solid black"">","","",""
"","404.8400000319816","stimulus-presentation","83","149321","0.0-14.0-1.34","SS1603400523565","<img src='images/simple/9.png' width ='500' height = '500' style='border:5px solid black'>","40","all_simple","images/simple/6.png","images/simple/5.png","images/simple/14.png,images/simple/2.png,images/simple/16.png,images/simple/11.png,images/simple/10.png,images/simple/1.png,images/simple/9.png","0","null","","200","604.8400000319816","","","","deviant","",""
"","null","html-keyboard-response","84","150527","0.0-14.0-0.35","SS1603400523565","","null","","","","","","","","","","","","<img src=images/blank.png width =""500"" height = ""500"" style=""border:5px solid black"">","","",""
"","913.0400000140071","stimulus-presentation","85","151643","0.0-14.0-1.35","SS1603400523565","<img src='images/simple/6.png' width ='500' height = '500' style='border:5px solid black'>","40","all_simple","images/simple/6.png","images/simple/5.png","images/simple/14.png,images/simple/2.png,images/simple/16.png,images/simple/11.png,images/simple/10.png,images/simple/1.png,images/simple/9.png","0","null","","200","1113.040000014007","yes","188.19499999517575","","target","",""
"","null","html-keyboard-response","86","152860","0.0-14.0-0.36","SS1603400523565","","null","","","","","","","","","","","","<img src=images/blank.png width =""500"" height = ""500"" style=""border:5px solid black"">","","",""
"","216.2599999574013","stimulus-presentation","87","153295","0.0-14.0-1.36","SS1603400523565","<img src='images/simple/5.png' width ='500' height = '500' style='border:5px solid black'>","40","all_simple","images/simple/6.png","images/simple/5.png","images/simple/14.png,images/simple/2.png,images/simple/16.png,images/simple/11.png,images/simple/10.png,images/simple/1.png,images/simple/9.png","0","null","","200","416.2599999574013","","","","background","",""
"","null","html-keyboard-response","88","154383","0.0-14.0-0.37","SS1603400523565","","null","","","","","","","","","","","","<img src=images/blank.png width =""500"" height = ""500"" style=""border:5px solid black"">","","",""
"","237.00999998254701","stimulus-presentation","89","154826","0.0-14.0-1.37","SS1603400523565","<img src='images/simple/5.png' width ='500' height = '500' style='border:5px solid black'>","40","all_simple","images/simple/6.png","images/simple/5.png","images/simple/14.png,images/simple/2.png,images/simple/16.png,images/simple/11.png,images/simple/10.png,images/simple/1.png,images/simple/9.png","0","null","","200","437.009999982547","","","","background","",""
"","null","html-keyboard-response","90","155769","0.0-14.0-0.38","SS1603400523565","","null","","","","","","","","","","","","<img src=images/blank.png width =""500"" height = ""500"" style=""border:5px solid black"">","","",""
"","243.38999995961785","stimulus-presentation","91","156218","0.0-14.0-1.38","SS1603400523565","<img src='images/simple/5.png' width ='500' height = '500' style='border:5px solid black'>","40","all_simple","images/simple/6.png","images/simple/5.png","images/simple/14.png,images/simple/2.png,images/simple/16.png,images/simple/11.png,images/simple/10.png,images/simple/1.png,images/simple/9.png","0","null","","200","443.38999995961785","","","","background","",""
"","null","html-keyboard-response","92","157164","0.0-14.0-0.39","SS1603400523565","","null","","","","","","","","","","","","<img src=images/blank.png width =""500"" height = ""500"" style=""border:5px solid black"">","","",""
"","268.4350000345148","stimulus-presentation","93","157653","0.0-14.0-1.39","SS1603400523565","<img src='images/simple/5.png' width ='500' height = '500' style='border:5px solid black'>","40","all_simple","images/simple/6.png","images/simple/5.png","images/simple/14.png,images/simple/2.png,images/simple/16.png,images/simple/11.png,images/simple/10.png,images/simple/1.png,images/simple/9.png","0","null","","200","468.4350000345148","","","","background","",""
"","null","html-keyboard-response","94","158485","0.0-14.0-0.40","SS1603400523565","","null","","","","","","","","","","","","<img src=images/blank.png width =""500"" height = ""500"" style=""border:5px solid black"">","","",""
"","941.8050000094809","stimulus-presentation","95","159643","0.0-14.0-1.40","SS1603400523565","<img src='images/simple/16.png' width ='500' height = '500' style='border:5px solid black'>","40","all_simple","images/simple/6.png","images/simple/5.png","images/simple/14.png,images/simple/2.png,images/simple/16.png,images/simple/11.png,images/simple/10.png,images/simple/1.png,images/simple/9.png","0","null","","200","1141.8050000094809","","","","deviant","",""
"","null","html-keyboard-response","96","160877","0.0-14.0-0.41","SS1603400523565","","null","","","","","","","","","","","","<img src=images/blank.png width =""500"" height = ""500"" style=""border:5px solid black"">","","",""
"","375.63500000396743","stimulus-presentation","97","161462","0.0-14.0-1.41","SS1603400523565","<img src='images/simple/5.png' width ='500' height = '500' style='border:5px solid black'>","40","all_simple","images/simple/6.png","images/simple/5.png","images/simple/14.png,images/simple/2.png,images/simple/16.png,images/simple/11.png,images/simple/10.png,images/simple/1.png,images/simple/9.png","0","null","","200","575.6350000039674","","","","background","",""
"","null","html-keyboard-response","98","162369","0.0-14.0-0.42","SS1603400523565","","null","","","","","","","","","","","","<img src=images/blank.png width =""500"" height = ""500"" style=""border:5px solid black"">","","",""
"","342.42999996058643","stimulus-presentation","99","162918","0.0-14.0-1.42","SS1603400523565","<img src='images/simple/5.png' width ='500' height = '500' style='border:5px solid black'>","40","all_simple","images/simple/6.png","images/simple/5.png","images/simple/14.png,images/simple/2.png,images/simple/16.png,images/simple/11.png,images/simple/10.png,images/simple/1.png,images/simple/9.png","0","null","","200","542.4299999605864","","","","background","",""
"","null","html-keyboard-response","100","163806","0.0-14.0-0.43","SS1603400523565","","null","","","","","","","","","","","","<img src=images/blank.png width =""500"" height = ""500"" style=""border:5px solid black"">","","",""
"","351.56500001903623","stimulus-presentation","101","164378","0.0-14.0-1.43","SS1603400523565","<img src='images/simple/5.png' width ='500' height = '500' style='border:5px solid black'>","40","all_simple","images/simple/6.png","images/simple/5.png","images/simple/14.png,images/simple/2.png,images/simple/16.png,images/simple/11.png,images/simple/10.png,images/simple/1.png,images/simple/9.png","0","null","","200","551.5650000190362","","","","background","",""
"","null","html-keyboard-response","102","165624","0.0-14.0-0.44","SS1603400523565","","null","","","","","","","","","","","","<img src=images/blank.png width =""500"" height = ""500"" style=""border:5px solid black"">","","",""
"","252.79999995836988","stimulus-presentation","103","166083","0.0-14.0-1.44","SS1603400523565","<img src='images/simple/5.png' width ='500' height = '500' style='border:5px solid black'>","40","all_simple","images/simple/6.png","images/simple/5.png","images/simple/14.png,images/simple/2.png,images/simple/16.png,images/simple/11.png,images/simple/10.png,images/simple/1.png,images/simple/9.png","0","null","","200","452.7999999583699","","","","background","",""
"","null","html-keyboard-response","104","167283","0.0-14.0-0.45","SS1603400523565","","null","","","","","","","","","","","","<img src=images/blank.png width =""500"" height = ""500"" style=""border:5px solid black"">","","",""
"","196.50499999988824","stimulus-presentation","105","167686","0.0-14.0-1.45","SS1603400523565","<img src='images/simple/5.png' width ='500' height = '500' style='border:5px solid black'>","40","all_simple","images/simple/6.png","images/simple/5.png","images/simple/14.png,images/simple/2.png,images/simple/16.png,images/simple/11.png,images/simple/10.png,images/simple/1.png,images/simple/9.png","0","null","","200","396.50499999988824","","","","background","",""
"","null","html-keyboard-response","106","168897","0.0-14.0-0.46","SS1603400523565","","null","","","","","","","","","","","","<img src=images/blank.png width =""500"" height = ""500"" style=""border:5px solid black"">","","",""
"","181.34000001009554","stimulus-presentation","107","169297","0.0-14.0-1.46","SS1603400523565","<img src='images/simple/5.png' width ='500' height = '500' style='border:5px solid black'>","40","all_simple","images/simple/6.png","images/simple/5.png","images/simple/14.png,images/simple/2.png,images/simple/16.png,images/simple/11.png,images/simple/10.png,images/simple/1.png,images/simple/9.png","0","null","","200","381.34000001009554","","","","background","",""
"","null","html-keyboard-response","108","170425","0.0-14.0-0.47","SS1603400523565","","null","","","","","","","","","","","","<img src=images/blank.png width =""500"" height = ""500"" style=""border:5px solid black"">","","",""
"","188.13999998383224","stimulus-presentation","109","170817","0.0-14.0-1.47","SS1603400523565","<img src='images/simple/5.png' width ='500' height = '500' style='border:5px solid black'>","40","all_simple","images/simple/6.png","images/simple/5.png","images/simple/14.png,images/simple/2.png,images/simple/16.png,images/simple/11.png,images/simple/10.png,images/simple/1.png,images/simple/9.png","0","null","","200","388.13999998383224","","","","background","",""
"","null","html-keyboard-response","110","172048","0.0-14.0-0.48","SS1603400523565","","null","","","","","","","","","","","","<img src=images/blank.png width =""500"" height = ""500"" style=""border:5px solid black"">","","",""
"","203.93999997759238","stimulus-presentation","111","172459","0.0-14.0-1.48","SS1603400523565","<img src='images/simple/5.png' width ='500' height = '500' style='border:5px solid black'>","40","all_simple","images/simple/6.png","images/simple/5.png","images/simple/14.png,images/simple/2.png,images/simple/16.png,images/simple/11.png,images/simple/10.png,images/simple/1.png,images/simple/9.png","0","null","","200","403.9399999775924","","","","background","",""
"[{""page_index"":0,""viewing_time"":72449}]","72449","task-instructions","112","244915","0.0-15.0","SS1603400523565","","","","","","","","","","","","","","","","",""
"[{""page_index"":0,""viewing_time"":6990.259999991395},{""page_index"":1,""viewing_time"":3257.785000023432},{""page_index"":2,""viewing_time"":3182.889999996405}]","13431.565000035334","instructions","113","258349","0.0-16.0","SS1603400523565","","","","","","","","","","","","","","","","",""
"","null","html-keyboard-response","114","259461","0.0-17.0-0.0","SS1603400523565","","null","","","","","","","","","","","","<img src=images/blank.png width =""500"" height = ""500"" style=""border:5px solid black"">","","",""
"","699.7049999772571","stimulus-presentation","115","260380","0.0-17.0-1.0","SS1603400523565","<img src='images/complex/11.png' width ='500' height = '500' style='border:5px solid black'>","40","all_complex","images/complex/2.png","images/complex/11.png","images/complex/17.png,images/complex/10.png,images/complex/16.png,images/complex/7.png,images/complex/15.png,images/complex/8.png,images/complex/13.png","1","null","","200","899.7049999772571","","","","background","",""
"","null","html-keyboard-response","116","261539","0.0-17.0-0.1","SS1603400523565","","null","","","","","","","","","","","","<img src=images/blank.png width =""500"" height = ""500"" style=""border:5px solid black"">","","",""
"","201.69000001624227","stimulus-presentation","117","261959","0.0-17.0-1.1","SS1603400523565","<img src='images/complex/11.png' width ='500' height = '500' style='border:5px solid black'>","40","all_complex","images/complex/2.png","images/complex/11.png","images/complex/17.png,images/complex/10.png,images/complex/16.png,images/complex/7.png,images/complex/15.png,images/complex/8.png,images/complex/13.png","1","null","","200","401.69000001624227","","","","background","",""
"","null","html-keyboard-response","118","263193","0.0-17.0-0.2","SS1603400523565","","null","","","","","","","","","","","","<img src=images/blank.png width =""500"" height = ""500"" style=""border:5px solid black"">","","",""
"","161.60500003024936","stimulus-presentation","119","263574","0.0-17.0-1.2","SS1603400523565","<img src='images/complex/11.png' width ='500' height = '500' style='border:5px solid black'>","40","all_complex","images/complex/2.png","images/complex/11.png","images/complex/17.png,images/complex/10.png,images/complex/16.png,images/complex/7.png,images/complex/15.png,images/complex/8.png,images/complex/13.png","1","null","","200","361.60500003024936","","","","background","",""
"","null","html-keyboard-response","120","264876","0.0-17.0-0.3","SS1603400523565","","null","","","","","","","","","","","","<img src=images/blank.png width =""500"" height = ""500"" style=""border:5px solid black"">","","",""
"","176.38499999884516","stimulus-presentation","121","265271","0.0-17.0-1.3","SS1603400523565","<img src='images/complex/11.png' width ='500' height = '500' style='border:5px solid black'>","40","all_complex","images/complex/2.png","images/complex/11.png","images/complex/17.png,images/complex/10.png,images/complex/16.png,images/complex/7.png,images/complex/15.png,images/complex/8.png,images/complex/13.png","1","null","","200","376.38499999884516","","","","background","",""
"","null","html-keyboard-response","122","266093","0.0-17.0-0.4","SS1603400523565","","null","","","","","","","","","","","","<img src=images/blank.png width =""500"" height = ""500"" style=""border:5px solid black"">","","",""
"","507.40500004030764","stimulus-presentation","123","266808","0.0-17.0-1.4","SS1603400523565","<img src='images/complex/8.png' width ='500' height = '500' style='border:5px solid black'>","40","all_complex","images/complex/2.png","images/complex/11.png","images/complex/17.png,images/complex/10.png,images/complex/16.png,images/complex/7.png,images/complex/15.png,images/complex/8.png,images/complex/13.png","1","null","","200","707.4050000403076","","","","deviant","",""
"","null","html-keyboard-response","124","267974","0.0-17.0-0.5","SS1603400523565","","null","","","","","","","","","","","","<img src=images/blank.png width =""500"" height = ""500"" style=""border:5px solid black"">","","",""
"","151.11999999498948","stimulus-presentation","125","268341","0.0-17.0-1.5","SS1603400523565","<img src='images/complex/11.png' width ='500' height = '500' style='border:5px solid black'>","40","all_complex","images/complex/2.png","images/complex/11.png","images/complex/17.png,images/complex/10.png,images/complex/16.png,images/complex/7.png,images/complex/15.png,images/complex/8.png,images/complex/13.png","1","null","","200","351.1199999949895","","","","background","",""
"","null","html-keyboard-response","126","269334","0.0-17.0-0.6","SS1603400523565","","null","","","","","","","","","","","","<img src=images/blank.png width =""500"" height = ""500"" style=""border:5px solid black"">","","",""
"","148.22999999159947","stimulus-presentation","127","269690","0.0-17.0-1.6","SS1603400523565","<img src='images/complex/11.png' width ='500' height = '500' style='border:5px solid black'>","40","all_complex","images/complex/2.png","images/complex/11.png","images/complex/17.png,images/complex/10.png,images/complex/16.png,images/complex/7.png,images/complex/15.png,images/complex/8.png,images/complex/13.png","1","null","","200","348.22999999159947","","","","background","",""
"","null","html-keyboard-response","128","270641","0.0-17.0-0.7","SS1603400523565","","null","","","","","","","","","","","","<img src=images/blank.png width =""500"" height = ""500"" style=""border:5px solid black"">","","",""
"","384.45000001229346","stimulus-presentation","129","271243","0.0-17.0-1.7","SS1603400523565","<img src='images/complex/15.png' width ='500' height = '500' style='border:5px solid black'>","40","all_complex","images/complex/2.png","images/complex/11.png","images/complex/17.png,images/complex/10.png,images/complex/16.png,images/complex/7.png,images/complex/15.png,images/complex/8.png,images/complex/13.png","1","null","","200","584.4500000122935","","","","deviant","",""
"","null","html-keyboard-response","130","272510","0.0-17.0-0.8","SS1603400523565","","null","","","","","","","","","","","","<img src=images/blank.png width =""500"" height = ""500"" style=""border:5px solid black"">","","",""
"","326.3549999683164","stimulus-presentation","131","273055","0.0-17.0-1.8","SS1603400523565","<img src='images/complex/11.png' width ='500' height = '500' style='border:5px solid black'>","40","all_complex","images/complex/2.png","images/complex/11.png","images/complex/17.png,images/complex/10.png,images/complex/16.png,images/complex/7.png,images/complex/15.png,images/complex/8.png,images/complex/13.png","1","null","","200","526.3549999683164","","","","background","",""
"","null","html-keyboard-response","132","274211","0.0-17.0-0.9","SS1603400523565","","null","","","","","","","","","","","","<img src=images/blank.png width =""500"" height = ""500"" style=""border:5px solid black"">","","",""
"","231.229999975767","stimulus-presentation","133","274658","0.0-17.0-1.9","SS1603400523565","<img src='images/complex/11.png' width ='500' height = '500' style='border:5px solid black'>","40","all_complex","images/complex/2.png","images/complex/11.png","images/complex/17.png,images/complex/10.png,images/complex/16.png,images/complex/7.png,images/complex/15.png,images/complex/8.png,images/complex/13.png","1","null","","200","431.229999975767","","","","background","",""
"","null","html-keyboard-response","134","275517","0.0-17.0-0.10","SS1603400523565","","null","","","","","","","","","","","","<img src=images/blank.png width =""500"" height = ""500"" style=""border:5px solid black"">","","",""
"","306.47499999031425","stimulus-presentation","135","276044","0.0-17.0-1.10","SS1603400523565","<img src='images/complex/11.png' width ='500' height = '500' style='border:5px solid black'>","40","all_complex","images/complex/2.png","images/complex/11.png","images/complex/17.png,images/complex/10.png,images/complex/16.png,images/complex/7.png,images/complex/15.png,images/complex/8.png,images/complex/13.png","1","null","","200","506.47499999031425","","","","background","",""
"","null","html-keyboard-response","136","276984","0.0-17.0-0.11","SS1603400523565","","null","","","","","","","","","","","","<img src=images/blank.png width =""500"" height = ""500"" style=""border:5px solid black"">","","",""
"","306.66000000201166","stimulus-presentation","137","277508","0.0-17.0-1.11","SS1603400523565","<img src='images/complex/11.png' width ='500' height = '500' style='border:5px solid black'>","40","all_complex","images/complex/2.png","images/complex/11.png","images/complex/17.png,images/complex/10.png,images/complex/16.png,images/complex/7.png,images/complex/15.png,images/complex/8.png,images/complex/13.png","1","null","","200","506.66000000201166","","","","background","",""
"","null","html-keyboard-response","138","278510","0.0-17.0-0.12","SS1603400523565","","null","","","","","","","","","","","","<img src=images/blank.png width =""500"" height = ""500"" style=""border:5px solid black"">","","",""
"","189.2249999800697","stimulus-presentation","139","278917","0.0-17.0-1.12","SS1603400523565","<img src='images/complex/11.png' width ='500' height = '500' style='border:5px solid black'>","40","all_complex","images/complex/2.png","images/complex/11.png","images/complex/17.png,images/complex/10.png,images/complex/16.png,images/complex/7.png,images/complex/15.png,images/complex/8.png,images/complex/13.png","1","null","","200","389.2249999800697","","","","background","",""
"","null","html-keyboard-response","140","279914","0.0-17.0-0.13","SS1603400523565","","null","","","","","","","","","","","","<img src=images/blank.png width =""500"" height = ""500"" style=""border:5px solid black"">","","",""
"","254.36000002082437","stimulus-presentation","141","280390","0.0-17.0-1.13","SS1603400523565","<img src='images/complex/11.png' width ='500' height = '500' style='border:5px solid black'>","40","all_complex","images/complex/2.png","images/complex/11.png","images/complex/17.png,images/complex/10.png,images/complex/16.png,images/complex/7.png,images/complex/15.png,images/complex/8.png,images/complex/13.png","1","null","","200","454.3600000208244","","","","background","",""
"","null","html-keyboard-response","142","281570","0.0-17.0-0.14","SS1603400523565","","null","","","","","","","","","","","","<img src=images/blank.png width =""500"" height = ""500"" style=""border:5px solid black"">","","",""
"","171.37499997625127","stimulus-presentation","143","281962","0.0-17.0-1.14","SS1603400523565","<img src='images/complex/11.png' width ='500' height = '500' style='border:5px solid black'>","40","all_complex","images/complex/2.png","images/complex/11.png","images/complex/17.png,images/complex/10.png,images/complex/16.png,images/complex/7.png,images/complex/15.png,images/complex/8.png,images/complex/13.png","1","null","","200","371.3749999762513","","","","background","",""
"","null","html-keyboard-response","144","282823","0.0-17.0-0.15","SS1603400523565","","null","","","","","","","","","","","","<img src=images/blank.png width =""500"" height = ""500"" style=""border:5px solid black"">","","",""
"","139.81999998213723","stimulus-presentation","145","283180","0.0-17.0-1.15","SS1603400523565","<img src='images/complex/11.png' width ='500' height = '500' style='border:5px solid black'>","40","all_complex","images/complex/2.png","images/complex/11.png","images/complex/17.png,images/complex/10.png,images/complex/16.png,images/complex/7.png,images/complex/15.png,images/complex/8.png,images/complex/13.png","1","null","","200","339.81999998213723","","","","background","",""
"","null","html-keyboard-response","146","284155","0.0-17.0-0.16","SS1603400523565","","null","","","","","","","","","","","","<img src=images/blank.png width =""500"" height = ""500"" style=""border:5px solid black"">","","",""
"","1151.6500000143424","stimulus-presentation","147","285529","0.0-17.0-1.16","SS1603400523565","<img src='images/complex/2.png' width ='500' height = '500' style='border:5px solid black'>","40","all_complex","images/complex/2.png","images/complex/11.png","images/complex/17.png,images/complex/10.png,images/complex/16.png,images/complex/7.png,images/complex/15.png,images/complex/8.png,images/complex/13.png","1","null","","200","1351.6500000143424","yes","359.7799999988638","","target","",""
"","null","html-keyboard-response","148","286782","0.0-17.0-0.17","SS1603400523565","","null","","","","","","","","","","","","<img src=images/blank.png width =""500"" height = ""500"" style=""border:5px solid black"">","","",""
"","1120.215000002645","stimulus-presentation","149","288122","0.0-17.0-1.17","SS1603400523565","<img src='images/complex/2.png' width ='500' height = '500' style='border:5px solid black'>","40","all_complex","images/complex/2.png","images/complex/11.png","images/complex/17.png,images/complex/10.png,images/complex/16.png,images/complex/7.png,images/complex/15.png,images/complex/8.png,images/complex/13.png","1","null","","200","1320.215000002645","yes","332.0749999838881","","target","",""
"","null","html-keyboard-response","150","289270","0.0-17.0-0.18","SS1603400523565","","null","","","","","","","","","","","","<img src=images/blank.png width =""500"" height = ""500"" style=""border:5px solid black"">","","",""
"","218.55500002857298","stimulus-presentation","151","289708","0.0-17.0-1.18","SS1603400523565","<img src='images/complex/11.png' width ='500' height = '500' style='border:5px solid black'>","40","all_complex","images/complex/2.png","images/complex/11.png","images/complex/17.png,images/complex/10.png,images/complex/16.png,images/complex/7.png,images/complex/15.png,images/complex/8.png,images/complex/13.png","1","null","","200","418.555000028573","","","","background","",""
"","null","html-keyboard-response","152","290864","0.0-17.0-0.19","SS1603400523565","","null","","","","","","","","","","","","<img src=images/blank.png width =""500"" height = ""500"" style=""border:5px solid black"">","","",""
"","250.36500004353002","stimulus-presentation","153","291333","0.0-17.0-1.19","SS1603400523565","<img src='images/complex/11.png' width ='500' height = '500' style='border:5px solid black'>","40","all_complex","images/complex/2.png","images/complex/11.png","images/complex/17.png,images/complex/10.png,images/complex/16.png,images/complex/7.png,images/complex/15.png,images/complex/8.png,images/complex/13.png","1","null","","200","450.36500004353","","","","background","",""
"","null","html-keyboard-response","154","292505","0.0-17.0-0.20","SS1603400523565","","null","","","","","","","","","","","","<img src=images/blank.png width =""500"" height = ""500"" style=""border:5px solid black"">","","",""
"","1183.6550000007264","stimulus-presentation","155","293909","0.0-17.0-1.20","SS1603400523565","<img src='images/complex/2.png' width ='500' height = '500' style='border:5px solid black'>","40","all_complex","images/complex/2.png","images/complex/11.png","images/complex/17.png,images/complex/10.png,images/complex/16.png,images/complex/7.png,images/complex/15.png,images/complex/8.png,images/complex/13.png","1","null","","200","1383.6550000007264","yes","300.9600000223145","","target","",""
"","null","html-keyboard-response","156","294828","0.0-17.0-0.21","SS1603400523565","","null","","","","","","","","","","","","<img src=images/blank.png width =""500"" height = ""500"" style=""border:5px solid black"">","","",""
"","996.709999977611","stimulus-presentation","157","296044","0.0-17.0-1.21","SS1603400523565","<img src='images/complex/2.png' width ='500' height = '500' style='border:5px solid black'>","40","all_complex","images/complex/2.png","images/complex/11.png","images/complex/17.png,images/complex/10.png,images/complex/16.png,images/complex/7.png,images/complex/15.png,images/complex/8.png,images/complex/13.png","1","null","","200","1196.709999977611","yes","324.85999999335036","","target","",""
"","null","html-keyboard-response","158","296904","0.0-17.0-0.22","SS1603400523565","","null","","","","","","","","","","","","<img src=images/blank.png width =""500"" height = ""500"" style=""border:5px solid black"">","","",""
"","248.5599999781698","stimulus-presentation","159","297360","0.0-17.0-1.22","SS1603400523565","<img src='images/complex/11.png' width ='500' height = '500' style='border:5px solid black'>","40","all_complex","images/complex/2.png","images/complex/11.png","images/complex/17.png,images/complex/10.png,images/complex/16.png,images/complex/7.png,images/complex/15.png,images/complex/8.png,images/complex/13.png","1","null","","200","448.5599999781698","","","","background","",""
"","null","html-keyboard-response","160","298260","0.0-17.0-0.23","SS1603400523565","","null","","","","","","","","","","","","<img src=images/blank.png width =""500"" height = ""500"" style=""border:5px solid black"">","","",""
"","405.1349999499507","stimulus-presentation","161","298882","0.0-17.0-1.23","SS1603400523565","<img src='images/complex/17.png' width ='500' height = '500' style='border:5px solid black'>","40","all_complex","images/complex/2.png","images/complex/11.png","images/complex/17.png,images/complex/10.png,images/complex/16.png,images/complex/7.png,images/complex/15.png,images/complex/8.png,images/complex/13.png","1","null","","200","605.1349999499507","","","","deviant","",""
"","null","html-keyboard-response","162","299819","0.0-17.0-0.24","SS1603400523565","","null","","","","","","","","","","","","<img src=images/blank.png width =""500"" height = ""500"" style=""border:5px solid black"">","","",""
"","194.77499998174608","stimulus-presentation","163","300231","0.0-17.0-1.24","SS1603400523565","<img src='images/complex/11.png' width ='500' height = '500' style='border:5px solid black'>","40","all_complex","images/complex/2.png","images/complex/11.png","images/complex/17.png,images/complex/10.png,images/complex/16.png,images/complex/7.png,images/complex/15.png,images/complex/8.png,images/complex/13.png","1","null","","200","394.7749999817461","","","","background","",""
"","null","html-keyboard-response","164","301441","0.0-17.0-0.25","SS1603400523565","","null","","","","","","","","","","","","<img src=images/blank.png width =""500"" height = ""500"" style=""border:5px solid black"">","","",""
"","368.2649999973364","stimulus-presentation","165","302028","0.0-17.0-1.25","SS1603400523565","<img src='images/complex/11.png' width ='500' height = '500' style='border:5px solid black'>","40","all_complex","images/complex/2.png","images/complex/11.png","images/complex/17.png,images/complex/10.png,images/complex/16.png,images/complex/7.png,images/complex/15.png,images/complex/8.png,images/complex/13.png","1","null","","200","568.2649999973364","","","","background","",""
"","null","html-keyboard-response","166","303198","0.0-17.0-0.26","SS1603400523565","","null","","","","","","","","","","","","<img src=images/blank.png width =""500"" height = ""500"" style=""border:5px solid black"">","","",""
"","197.60000001406297","stimulus-presentation","167","303617","0.0-17.0-1.26","SS1603400523565","<img src='images/complex/11.png' width ='500' height = '500' style='border:5px solid black'>","40","all_complex","images/complex/2.png","images/complex/11.png","images/complex/17.png,images/complex/10.png,images/complex/16.png,images/complex/7.png,images/complex/15.png,images/complex/8.png,images/complex/13.png","1","null","","200","397.60000001406297","","","","background","",""
"","null","html-keyboard-response","168","304632","0.0-17.0-0.27","SS1603400523565","","null","","","","","","","","","","","","<img src=images/blank.png width =""500"" height = ""500"" style=""border:5px solid black"">","","",""
"","185.32999994931743","stimulus-presentation","169","305036","0.0-17.0-1.27","SS1603400523565","<img src='images/complex/11.png' width ='500' height = '500' style='border:5px solid black'>","40","all_complex","images/complex/2.png","images/complex/11.png","images/complex/17.png,images/complex/10.png,images/complex/16.png,images/complex/7.png,images/complex/15.png,images/complex/8.png,images/complex/13.png","1","null","","200","385.3299999493174","","","","background","",""
"","null","html-keyboard-response","170","306077","0.0-17.0-0.28","SS1603400523565","","null","","","","","","","","","","","","<img src=images/blank.png width =""500"" height = ""500"" style=""border:5px solid black"">","","",""
"","226.82500001974404","stimulus-presentation","171","306523","0.0-17.0-1.28","SS1603400523565","<img src='images/complex/11.png' width ='500' height = '500' style='border:5px solid black'>","40","all_complex","images/complex/2.png","images/complex/11.png","images/complex/17.png,images/complex/10.png,images/complex/16.png,images/complex/7.png,images/complex/15.png,images/complex/8.png,images/complex/13.png","1","null","","200","426.82500001974404","","","","background","",""
"","null","html-keyboard-response","172","307670","0.0-17.0-0.29","SS1603400523565","","null","","","","","","","","","","","","<img src=images/blank.png width =""500"" height = ""500"" style=""border:5px solid black"">","","",""
"","235.51000002771616","stimulus-presentation","173","308124","0.0-17.0-1.29","SS1603400523565","<img src='images/complex/11.png' width ='500' height = '500' style='border:5px solid black'>","40","all_complex","images/complex/2.png","images/complex/11.png","images/complex/17.png,images/complex/10.png,images/complex/16.png,images/complex/7.png,images/complex/15.png,images/complex/8.png,images/complex/13.png","1","null","","200","435.51000002771616","","","","background","",""
"","null","html-keyboard-response","174","309189","0.0-17.0-0.30","SS1603400523565","","null","","","","","","","","","","","","<img src=images/blank.png width =""500"" height = ""500"" style=""border:5px solid black"">","","",""
"","239.89499994786456","stimulus-presentation","175","309633","0.0-17.0-1.30","SS1603400523565","<img src='images/complex/11.png' width ='500' height = '500' style='border:5px solid black'>","40","all_complex","images/complex/2.png","images/complex/11.png","images/complex/17.png,images/complex/10.png,images/complex/16.png,images/complex/7.png,images/complex/15.png,images/complex/8.png,images/complex/13.png","1","null","","200","439.89499994786456","","","","background","",""
"","null","html-keyboard-response","176","310777","0.0-17.0-0.31","SS1603400523565","","null","","","","","","","","","","","","<img src=images/blank.png width =""500"" height = ""500"" style=""border:5px solid black"">","","",""
"","174.27499999757856","stimulus-presentation","177","311170","0.0-17.0-1.31","SS1603400523565","<img src='images/complex/11.png' width ='500' height = '500' style='border:5px solid black'>","40","all_complex","images/complex/2.png","images/complex/11.png","images/complex/17.png,images/complex/10.png,images/complex/16.png,images/complex/7.png,images/complex/15.png,images/complex/8.png,images/complex/13.png","1","null","","200","374.27499999757856","","","","background","",""
"","null","html-keyboard-response","178","312170","0.0-17.0-0.32","SS1603400523565","","null","","","","","","","","","","","","<img src=images/blank.png width =""500"" height = ""500"" style=""border:5px solid black"">","","",""
"","176.39000003691763","stimulus-presentation","179","312587","0.0-17.0-1.32","SS1603400523565","<img src='images/complex/11.png' width ='500' height = '500' style='border:5px solid black'>","40","all_complex","images/complex/2.png","images/complex/11.png","images/complex/17.png,images/complex/10.png,images/complex/16.png,images/complex/7.png,images/complex/15.png,images/complex/8.png,images/complex/13.png","1","null","","200","376.3900000369176","","","","background","",""
"","null","html-keyboard-response","180","313526","0.0-17.0-0.33","SS1603400523565","","null","","","","","","","","","","","","<img src=images/blank.png width =""500"" height = ""500"" style=""border:5px solid black"">","","",""
"","577.9349999502301","stimulus-presentation","181","314320","0.0-17.0-1.33","SS1603400523565","<img src='images/complex/13.png' width ='500' height = '500' style='border:5px solid black'>","40","all_complex","images/complex/2.png","images/complex/11.png","images/complex/17.png,images/complex/10.png,images/complex/16.png,images/complex/7.png,images/complex/15.png,images/complex/8.png,images/complex/13.png","1","null","","200","777.9349999502301","","","","deviant","",""
"","null","html-keyboard-response","182","315587","0.0-17.0-0.34","SS1603400523565","","null","","","","","","","","","","","","<img src=images/blank.png width =""500"" height = ""500"" style=""border:5px solid black"">","","",""
"","163.11000002315268","stimulus-presentation","183","315967","0.0-17.0-1.34","SS1603400523565","<img src='images/complex/11.png' width ='500' height = '500' style='border:5px solid black'>","40","all_complex","images/complex/2.png","images/complex/11.png","images/complex/17.png,images/complex/10.png,images/complex/16.png,images/complex/7.png,images/complex/15.png,images/complex/8.png,images/complex/13.png","1","null","","200","363.1100000231527","","","","background","",""
"","null","html-keyboard-response","184","317035","0.0-17.0-0.35","SS1603400523565","","null","","","","","","","","","","","","<img src=images/blank.png width =""500"" height = ""500"" style=""border:5px solid black"">","","",""
"","181.49499996798113","stimulus-presentation","185","317434","0.0-17.0-1.35","SS1603400523565","<img src='images/complex/11.png' width ='500' height = '500' style='border:5px solid black'>","40","all_complex","images/complex/2.png","images/complex/11.png","images/complex/17.png,images/complex/10.png,images/complex/16.png,images/complex/7.png,images/complex/15.png,images/complex/8.png,images/complex/13.png","1","null","","200","381.49499996798113","","","","background","",""
"","null","html-keyboard-response","186","318432","0.0-17.0-0.36","SS1603400523565","","null","","","","","","","","","","","","<img src=images/blank.png width =""500"" height = ""500"" style=""border:5px solid black"">","","",""
"","393.2700000004843","stimulus-presentation","187","319043","0.0-17.0-1.36","SS1603400523565","<img src='images/complex/7.png' width ='500' height = '500' style='border:5px solid black'>","40","all_complex","images/complex/2.png","images/complex/11.png","images/complex/17.png,images/complex/10.png,images/complex/16.png,images/complex/7.png,images/complex/15.png,images/complex/8.png,images/complex/13.png","1","null","","200","593.2700000004843","","","","deviant","",""
"","null","html-keyboard-response","188","319895","0.0-17.0-0.37","SS1603400523565","","null","","","","","","","","","","","","<img src=images/blank.png width =""500"" height = ""500"" style=""border:5px solid black"">","","",""
"","260.84000000264496","stimulus-presentation","189","320376","0.0-17.0-1.37","SS1603400523565","<img src='images/complex/11.png' width ='500' height = '500' style='border:5px solid black'>","40","all_complex","images/complex/2.png","images/complex/11.png","images/complex/17.png,images/complex/10.png,images/complex/16.png,images/complex/7.png,images/complex/15.png,images/complex/8.png,images/complex/13.png","1","null","","200","460.84000000264496","","","","background","",""
"","null","html-keyboard-response","190","321431","0.0-17.0-0.38","SS1603400523565","","null","","","","","","","","","","","","<img src=images/blank.png width =""500"" height = ""500"" style=""border:5px solid black"">","","",""
"","348.2850000145845","stimulus-presentation","191","322001","0.0-17.0-1.38","SS1603400523565","<img src='images/complex/11.png' width ='500' height = '500' style='border:5px solid black'>","40","all_complex","images/complex/2.png","images/complex/11.png","images/complex/17.png,images/complex/10.png,images/complex/16.png,images/complex/7.png,images/complex/15.png,images/complex/8.png,images/complex/13.png","1","null","","200","548.2850000145845","","","","background","",""
"","null","html-keyboard-response","192","323061","0.0-17.0-0.39","SS1603400523565","","null","","","","","","","","","","","","<img src=images/blank.png width =""500"" height = ""500"" style=""border:5px solid black"">","","",""
"","364.86000003060326","stimulus-presentation","193","323643","0.0-17.0-1.39","SS1603400523565","<img src='images/complex/10.png' width ='500' height = '500' style='border:5px solid black'>","40","all_complex","images/complex/2.png","images/complex/11.png","images/complex/17.png,images/complex/10.png,images/complex/16.png,images/complex/7.png,images/complex/15.png,images/complex/8.png,images/complex/13.png","1","null","","200","564.8600000306033","","","","deviant","",""
"","null","html-keyboard-response","194","324876","0.0-17.0-0.40","SS1603400523565","","null","","","","","","","","","","","","<img src=images/blank.png width =""500"" height = ""500"" style=""border:5px solid black"">","","",""
"","1089.8750000051223","stimulus-presentation","195","326186","0.0-17.0-1.40","SS1603400523565","<img src='images/complex/2.png' width ='500' height = '500' style='border:5px solid black'>","40","all_complex","images/complex/2.png","images/complex/11.png","images/complex/17.png,images/complex/10.png,images/complex/16.png,images/complex/7.png,images/complex/15.png,images/complex/8.png,images/complex/13.png","1","null","","200","1289.8750000051223","yes","340.29000002192333","","target","",""
"","null","html-keyboard-response","196","327230","0.0-17.0-0.41","SS1603400523565","","null","","","","","","","","","","","","<img src=images/blank.png width =""500"" height = ""500"" style=""border:5px solid black"">","","",""
"","279.8550000297837","stimulus-presentation","197","327729","0.0-17.0-1.41","SS1603400523565","<img src='images/complex/11.png' width ='500' height = '500' style='border:5px solid black'>","40","all_complex","images/complex/2.png","images/complex/11.png","images/complex/17.png,images/complex/10.png,images/complex/16.png,images/complex/7.png,images/complex/15.png,images/complex/8.png,images/complex/13.png","1","null","","200","479.8550000297837","","","","background","",""
"","null","html-keyboard-response","198","328986","0.0-17.0-0.42","SS1603400523565","","null","","","","","","","","","","","","<img src=images/blank.png width =""500"" height = ""500"" style=""border:5px solid black"">","","",""
"","254.6149999834597","stimulus-presentation","199","329459","0.0-17.0-1.42","SS1603400523565","<img src='images/complex/11.png' width ='500' height = '500' style='border:5px solid black'>","40","all_complex","images/complex/2.png","images/complex/11.png","images/complex/17.png,images/complex/10.png,images/complex/16.png,images/complex/7.png,images/complex/15.png,images/complex/8.png,images/complex/13.png","1","null","","200","454.6149999834597","","","","background","",""
"","null","html-keyboard-response","200","330754","0.0-17.0-0.43","SS1603400523565","","null","","","","","","","","","","","","<img src=images/blank.png width =""500"" height = ""500"" style=""border:5px solid black"">","","",""
"","286.0099999816157","stimulus-presentation","201","331260","0.0-17.0-1.43","SS1603400523565","<img src='images/complex/11.png' width ='500' height = '500' style='border:5px solid black'>","40","all_complex","images/complex/2.png","images/complex/11.png","images/complex/17.png,images/complex/10.png,images/complex/16.png,images/complex/7.png,images/complex/15.png,images/complex/8.png,images/complex/13.png","1","null","","200","486.0099999816157","","","","background","",""
"","null","html-keyboard-response","202","332547","0.0-17.0-0.44","SS1603400523565","","null","","","","","","","","","","","","<img src=images/blank.png width =""500"" height = ""500"" style=""border:5px solid black"">","","",""
"","1061.6600000066683","stimulus-presentation","203","333830","0.0-17.0-1.44","SS1603400523565","<img src='images/complex/16.png' width ='500' height = '500' style='border:5px solid black'>","40","all_complex","images/complex/2.png","images/complex/11.png","images/complex/17.png,images/complex/10.png,images/complex/16.png,images/complex/7.png,images/complex/15.png,images/complex/8.png,images/complex/13.png","1","null","","200","1261.6600000066683","","","","deviant","",""
"","null","html-keyboard-response","204","334747","0.0-17.0-0.45","SS1603400523565","","null","","","","","","","","","","","","<img src=images/blank.png width =""500"" height = ""500"" style=""border:5px solid black"">","","",""
"","352.3750000167638","stimulus-presentation","205","335319","0.0-17.0-1.45","SS1603400523565","<img src='images/complex/11.png' width ='500' height = '500' style='border:5px solid black'>","40","all_complex","images/complex/2.png","images/complex/11.png","images/complex/17.png,images/complex/10.png,images/complex/16.png,images/complex/7.png,images/complex/15.png,images/complex/8.png,images/complex/13.png","1","null","","200","552.3750000167638","","","","background","",""
"","null","html-keyboard-response","206","336574","0.0-17.0-0.46","SS1603400523565","","null","","","","","","","","","","","","<img src=images/blank.png width =""500"" height = ""500"" style=""border:5px solid black"">","","",""
"","1174.4849999668077","stimulus-presentation","207","337969","0.0-17.0-1.46","SS1603400523565","<img src='images/complex/2.png' width ='500' height = '500' style='border:5px solid black'>","40","all_complex","images/complex/2.png","images/complex/11.png","images/complex/17.png,images/complex/10.png,images/complex/16.png,images/complex/7.png,images/complex/15.png,images/complex/8.png,images/complex/13.png","1","null","","200","1374.4849999668077","yes","259.98999999137595","","target","",""
"","null","html-keyboard-response","208","339242","0.0-17.0-0.47","SS1603400523565","","null","","","","","","","","","","","","<img src=images/blank.png width =""500"" height = ""500"" style=""border:5px solid black"">","","",""
"","1558.8449999922886","stimulus-presentation","209","341019","0.0-17.0-1.47","SS1603400523565","<img src='images/complex/2.png' width ='500' height = '500' style='border:5px solid black'>","40","all_complex","images/complex/2.png","images/complex/11.png","images/complex/17.png,images/complex/10.png,images/complex/16.png,images/complex/7.png,images/complex/15.png,images/complex/8.png,images/complex/13.png","1","null","","200","1758.8449999922886","yes","783.3049999899231","","target","",""
"","null","html-keyboard-response","210","342010","0.0-17.0-0.48","SS1603400523565","","null","","","","","","","","","","","","<img src=images/blank.png width =""500"" height = ""500"" style=""border:5px solid black"">","","",""
"","233.53999998653308","stimulus-presentation","211","342464","0.0-17.0-1.48","SS1603400523565","<img src='images/complex/11.png' width ='500' height = '500' style='border:5px solid black'>","40","all_complex","images/complex/2.png","images/complex/11.png","images/complex/17.png,images/complex/10.png,images/complex/16.png,images/complex/7.png,images/complex/15.png,images/complex/8.png,images/complex/13.png","1","null","","200","433.5399999865331","","","","background","",""
"[{""page_index"":0,""viewing_time"":8315}]","8316","task-instructions","212","350790","0.0-18.0","SS1603400523565","","","","","","","","","","","","","","","","",""
"[{""page_index"":0,""viewing_time"":3083.9949999935925},{""page_index"":1,""viewing_time"":5464.830000011716},{""page_index"":2,""viewing_time"":1238.965000025928}]","9788.400000019465","instructions","213","360589","0.0-19.0","SS1603400523565","","","","","","","","","","","","","","","","",""
"","null","html-keyboard-response","214","361567","0.0-20.0-0.0","SS1603400523565","","null","","","","","","","","","","","","<img src=images/blank.png width =""500"" height = ""500"" style=""border:5px solid black"">","","",""
"","1213.065000018105","stimulus-presentation","215","363002","0.0-20.0-1.0","SS1603400523565","<img src='images/complex/14.png' width ='500' height = '500' style='border:5px solid black'>","40","mixed_simple_deviant","images/complex/14.png","images/complex/18.png","images/simple/12.png,images/simple/17.png,images/simple/13.png,images/simple/3.png,images/simple/8.png,images/simple/15.png,images/simple/4.png","2","null","","200","1413.065000018105","yes","519.6149999974295","","target","",""
"","null","html-keyboard-response","216","364104","0.0-20.0-0.1","SS1603400523565","","null","","","","","","","","","","","","<img src=images/blank.png width =""500"" height = ""500"" style=""border:5px solid black"">","","",""
"","222.974999982398","stimulus-presentation","217","364544","0.0-20.0-1.1","SS1603400523565","<img src='images/simple/3.png' width ='500' height = '500' style='border:5px solid black'>","40","mixed_simple_deviant","images/complex/14.png","images/complex/18.png","images/simple/12.png,images/simple/17.png,images/simple/13.png,images/simple/3.png,images/simple/8.png,images/simple/15.png,images/simple/4.png","2","null","","200","422.974999982398","","","","deviant","",""
"","null","html-keyboard-response","218","365386","0.0-20.0-0.2","SS1603400523565","","null","","","","","","","","","","","","<img src=images/blank.png width =""500"" height = ""500"" style=""border:5px solid black"">","","",""
"","343.5599999502301","stimulus-presentation","219","365949","0.0-20.0-1.2","SS1603400523565","<img src='images/complex/18.png' width ='500' height = '500' style='border:5px solid black'>","40","mixed_simple_deviant","images/complex/14.png","images/complex/18.png","images/simple/12.png,images/simple/17.png,images/simple/13.png,images/simple/3.png,images/simple/8.png,images/simple/15.png,images/simple/4.png","2","null","","200","543.5599999502301","","","","background","",""
"","null","html-keyboard-response","220","367113","0.0-20.0-0.3","SS1603400523565","","null","","","","","","","","","","","","<img src=images/blank.png width =""500"" height = ""500"" style=""border:5px solid black"">","","",""
"","181.39500002143905","stimulus-presentation","221","367514","0.0-20.0-1.3","SS1603400523565","<img src='images/complex/18.png' width ='500' height = '500' style='border:5px solid black'>","40","mixed_simple_deviant","images/complex/14.png","images/complex/18.png","images/simple/12.png,images/simple/17.png,images/simple/13.png,images/simple/3.png,images/simple/8.png,images/simple/15.png,images/simple/4.png","2","null","","200","381.39500002143905","","","","background","",""
"","null","html-keyboard-response","222","368804","0.0-20.0-0.4","SS1603400523565","","null","","","","","","","","","","","","<img src=images/blank.png width =""500"" height = ""500"" style=""border:5px solid black"">","","",""
"","153.50000001490116","stimulus-presentation","223","369175","0.0-20.0-1.4","SS1603400523565","<img src='images/complex/18.png' width ='500' height = '500' style='border:5px solid black'>","40","mixed_simple_deviant","images/complex/14.png","images/complex/18.png","images/simple/12.png,images/simple/17.png,images/simple/13.png,images/simple/3.png,images/simple/8.png,images/simple/15.png,images/simple/4.png","2","null","","200","353.50000001490116","","","","background","",""
"","null","html-keyboard-response","224","370029","0.0-20.0-0.5","SS1603400523565","","null","","","","","","","","","","","","<img src=images/blank.png width =""500"" height = ""500"" style=""border:5px solid black"">","","",""
"","180.14000001130626","stimulus-presentation","225","370428","0.0-20.0-1.5","SS1603400523565","<img src='images/complex/18.png' width ='500' height = '500' style='border:5px solid black'>","40","mixed_simple_deviant","images/complex/14.png","images/complex/18.png","images/simple/12.png,images/simple/17.png,images/simple/13.png,images/simple/3.png,images/simple/8.png,images/simple/15.png,images/simple/4.png","2","null","","200","380.14000001130626","","","","background","",""
"","null","html-keyboard-response","226","371473","0.0-20.0-0.6","SS1603400523565","","null","","","","","","","","","","","","<img src=images/blank.png width =""500"" height = ""500"" style=""border:5px solid black"">","","",""
"","180.6250000372529","stimulus-presentation","227","371872","0.0-20.0-1.6","SS1603400523565","<img src='images/complex/18.png' width ='500' height = '500' style='border:5px solid black'>","40","mixed_simple_deviant","images/complex/14.png","images/complex/18.png","images/simple/12.png,images/simple/17.png,images/simple/13.png,images/simple/3.png,images/simple/8.png,images/simple/15.png,images/simple/4.png","2","null","","200","380.6250000372529","","","","background","",""
"","null","html-keyboard-response","228","372989","0.0-20.0-0.7","SS1603400523565","","null","","","","","","","","","","","","<img src=images/blank.png width =""500"" height = ""500"" style=""border:5px solid black"">","","",""
"","255.52499998593703","stimulus-presentation","229","373464","0.0-20.0-1.7","SS1603400523565","<img src='images/complex/18.png' width ='500' height = '500' style='border:5px solid black'>","40","mixed_simple_deviant","images/complex/14.png","images/complex/18.png","images/simple/12.png,images/simple/17.png,images/simple/13.png,images/simple/3.png,images/simple/8.png,images/simple/15.png,images/simple/4.png","2","null","","200","455.52499998593703","","","","background","",""
"","null","html-keyboard-response","230","374493","0.0-20.0-0.8","SS1603400523565","","null","","","","","","","","","","","","<img src=images/blank.png width =""500"" height = ""500"" style=""border:5px solid black"">","","",""
"","224.1500000236556","stimulus-presentation","231","374935","0.0-20.0-1.8","SS1603400523565","<img src='images/complex/18.png' width ='500' height = '500' style='border:5px solid black'>","40","mixed_simple_deviant","images/complex/14.png","images/complex/18.png","images/simple/12.png,images/simple/17.png,images/simple/13.png,images/simple/3.png,images/simple/8.png,images/simple/15.png,images/simple/4.png","2","null","","200","424.1500000236556","","","","background","",""
"","null","html-keyboard-response","232","376201","0.0-20.0-0.9","SS1603400523565","","null","","","","","","","","","","","","<img src=images/blank.png width =""500"" height = ""500"" style=""border:5px solid black"">","","",""
"","982.6649999595247","stimulus-presentation","233","377409","0.0-20.0-1.9","SS1603400523565","<img src='images/complex/14.png' width ='500' height = '500' style='border:5px solid black'>","40","mixed_simple_deviant","images/complex/14.png","images/complex/18.png","images/simple/12.png,images/simple/17.png,images/simple/13.png,images/simple/3.png,images/simple/8.png,images/simple/15.png,images/simple/4.png","2","null","","200","1182.6649999595247","yes","273.90999998897314","","target","",""
"","null","html-keyboard-response","234","378654","0.0-20.0-0.10","SS1603400523565","","null","","","","","","","","","","","","<img src=images/blank.png width =""500"" height = ""500"" style=""border:5px solid black"">","","",""
"","584.2950000078417","stimulus-presentation","235","379458","0.0-20.0-1.10","SS1603400523565","<img src='images/complex/18.png' width ='500' height = '500' style='border:5px solid black'>","40","mixed_simple_deviant","images/complex/14.png","images/complex/18.png","images/simple/12.png,images/simple/17.png,images/simple/13.png,images/simple/3.png,images/simple/8.png,images/simple/15.png,images/simple/4.png","2","null","","200","784.2950000078417","","","","background","",""
"","null","html-keyboard-response","236","380327","0.0-20.0-0.11","SS1603400523565","","null","","","","","","","","","","","","<img src=images/blank.png width =""500"" height = ""500"" style=""border:5px solid black"">","","",""
"","431.40499998116866","stimulus-presentation","237","380975","0.0-20.0-1.11","SS1603400523565","<img src='images/simple/17.png' width ='500' height = '500' style='border:5px solid black'>","40","mixed_simple_deviant","images/complex/14.png","images/complex/18.png","images/simple/12.png,images/simple/17.png,images/simple/13.png,images/simple/3.png,images/simple/8.png,images/simple/15.png,images/simple/4.png","2","null","","200","631.4049999811687","","","","deviant","",""
"","null","html-keyboard-response","238","382008","0.0-20.0-0.12","SS1603400523565","","null","","","","","","","","","","","","<img src=images/blank.png width =""500"" height = ""500"" style=""border:5px solid black"">","","",""
"","203.04499997291714","stimulus-presentation","239","382416","0.0-20.0-1.12","SS1603400523565","<img src='images/complex/18.png' width ='500' height = '500' style='border:5px solid black'>","40","mixed_simple_deviant","images/complex/14.png","images/complex/18.png","images/simple/12.png,images/simple/17.png,images/simple/13.png,images/simple/3.png,images/simple/8.png,images/simple/15.png,images/simple/4.png","2","null","","200","403.04499997291714","","","","background","",""
"","null","html-keyboard-response","240","383712","0.0-20.0-0.13","SS1603400523565","","null","","","","","","","","","","","","<img src=images/blank.png width =""500"" height = ""500"" style=""border:5px solid black"">","","",""
"","245.22499996237457","stimulus-presentation","241","384176","0.0-20.0-1.13","SS1603400523565","<img src='images/complex/18.png' width ='500' height = '500' style='border:5px solid black'>","40","mixed_simple_deviant","images/complex/14.png","images/complex/18.png","images/simple/12.png,images/simple/17.png,images/simple/13.png,images/simple/3.png,images/simple/8.png,images/simple/15.png,images/simple/4.png","2","null","","200","445.22499996237457","","","","background","",""
"","null","html-keyboard-response","242","385326","0.0-20.0-0.14","SS1603400523565","","null","","","","","","","","","","","","<img src=images/blank.png width =""500"" height = ""500"" style=""border:5px solid black"">","","",""
"","127.94999999459833","stimulus-presentation","243","385675","0.0-20.0-1.14","SS1603400523565","<img src='images/complex/18.png' width ='500' height = '500' style='border:5px solid black'>","40","mixed_simple_deviant","images/complex/14.png","images/complex/18.png","images/simple/12.png,images/simple/17.png,images/simple/13.png,images/simple/3.png,images/simple/8.png,images/simple/15.png,images/simple/4.png","2","null","","200","327.94999999459833","","","","background","",""
"","null","html-keyboard-response","244","386670","0.0-20.0-0.15","SS1603400523565","","null","","","","","","","","","","","","<img src=images/blank.png width =""500"" height = ""500"" style=""border:5px solid black"">","","",""
"","132.94000003952533","stimulus-presentation","245","387020","0.0-20.0-1.15","SS1603400523565","<img src='images/complex/18.png' width ='500' height = '500' style='border:5px solid black'>","40","mixed_simple_deviant","images/complex/14.png","images/complex/18.png","images/simple/12.png,images/simple/17.png,images/simple/13.png,images/simple/3.png,images/simple/8.png,images/simple/15.png,images/simple/4.png","2","null","","200","332.94000003952533","","","","background","",""
"","null","html-keyboard-response","246","387860","0.0-20.0-0.16","SS1603400523565","","null","","","","","","","","","","","","<img src=images/blank.png width =""500"" height = ""500"" style=""border:5px solid black"">","","",""
"","183.25499998172745","stimulus-presentation","247","388263","0.0-20.0-1.16","SS1603400523565","<img src='images/complex/18.png' width ='500' height = '500' style='border:5px solid black'>","40","mixed_simple_deviant","images/complex/14.png","images/complex/18.png","images/simple/12.png,images/simple/17.png,images/simple/13.png,images/simple/3.png,images/simple/8.png,images/simple/15.png,images/simple/4.png","2","null","","200","383.25499998172745","","","","background","",""
"","null","html-keyboard-response","248","389296","0.0-20.0-0.17","SS1603400523565","","null","","","","","","","","","","","","<img src=images/blank.png width =""500"" height = ""500"" style=""border:5px solid black"">","","",""
"","504.0850000223145","stimulus-presentation","249","390022","0.0-20.0-1.17","SS1603400523565","<img src='images/simple/12.png' width ='500' height = '500' style='border:5px solid black'>","40","mixed_simple_deviant","images/complex/14.png","images/complex/18.png","images/simple/12.png,images/simple/17.png,images/simple/13.png,images/simple/3.png,images/simple/8.png,images/simple/15.png,images/simple/4.png","2","null","","200","704.0850000223145","","","","deviant","",""
"","null","html-keyboard-response","250","391082","0.0-20.0-0.18","SS1603400523565","","null","","","","","","","","","","","","<img src=images/blank.png width =""500"" height = ""500"" style=""border:5px solid black"">","","",""
"","211.3050000043586","stimulus-presentation","251","391514","0.0-20.0-1.18","SS1603400523565","<img src='images/complex/18.png' width ='500' height = '500' style='border:5px solid black'>","40","mixed_simple_deviant","images/complex/14.png","images/complex/18.png","images/simple/12.png,images/simple/17.png,images/simple/13.png,images/simple/3.png,images/simple/8.png,images/simple/15.png,images/simple/4.png","2","null","","200","411.3050000043586","","","","background","",""
"","null","html-keyboard-response","252","392443","0.0-20.0-0.19","SS1603400523565","","null","","","","","","","","","","","","<img src=images/blank.png width =""500"" height = ""500"" style=""border:5px solid black"">","","",""
"","198.61999998101965","stimulus-presentation","253","392860","0.0-20.0-1.19","SS1603400523565","<img src='images/complex/18.png' width ='500' height = '500' style='border:5px solid black'>","40","mixed_simple_deviant","images/complex/14.png","images/complex/18.png","images/simple/12.png,images/simple/17.png,images/simple/13.png,images/simple/3.png,images/simple/8.png,images/simple/15.png,images/simple/4.png","2","null","","200","398.61999998101965","","","","background","",""
"","null","html-keyboard-response","254","393916","0.0-20.0-0.20","SS1603400523565","","null","","","","","","","","","","","","<img src=images/blank.png width =""500"" height = ""500"" style=""border:5px solid black"">","","",""
"","123.61999996937811","stimulus-presentation","255","394259","0.0-20.0-1.20","SS1603400523565","<img src='images/complex/18.png' width ='500' height = '500' style='border:5px solid black'>","40","mixed_simple_deviant","images/complex/14.png","images/complex/18.png","images/simple/12.png,images/simple/17.png,images/simple/13.png,images/simple/3.png,images/simple/8.png,images/simple/15.png,images/simple/4.png","2","null","","200","323.6199999693781","","","","background","",""
"","null","html-keyboard-response","256","395503","0.0-20.0-0.21","SS1603400523565","","null","","","","","","","","","","","","<img src=images/blank.png width =""500"" height = ""500"" style=""border:5px solid black"">","","",""
"","467.01500000199303","stimulus-presentation","257","396190","0.0-20.0-1.21","SS1603400523565","<img src='images/simple/8.png' width ='500' height = '500' style='border:5px solid black'>","40","mixed_simple_deviant","images/complex/14.png","images/complex/18.png","images/simple/12.png,images/simple/17.png,images/simple/13.png,images/simple/3.png,images/simple/8.png,images/simple/15.png,images/simple/4.png","2","null","","200","667.015000001993","","","","deviant","",""
"","null","html-keyboard-response","258","397062","0.0-20.0-0.22","SS1603400523565","","null","","","","","","","","","","","","<img src=images/blank.png width =""500"" height = ""500"" style=""border:5px solid black"">","","",""
"","286.0500000533648","stimulus-presentation","259","397567","0.0-20.0-1.22","SS1603400523565","<img src='images/complex/18.png' width ='500' height = '500' style='border:5px solid black'>","40","mixed_simple_deviant","images/complex/14.png","images/complex/18.png","images/simple/12.png,images/simple/17.png,images/simple/13.png,images/simple/3.png,images/simple/8.png,images/simple/15.png,images/simple/4.png","2","null","","200","486.0500000533648","","","","background","",""
"","null","html-keyboard-response","260","398532","0.0-20.0-0.23","SS1603400523565","","null","","","","","","","","","","","","<img src=images/blank.png width =""500"" height = ""500"" style=""border:5px solid black"">","","",""
"","254.28999995347112","stimulus-presentation","261","399003","0.0-20.0-1.23","SS1603400523565","<img src='images/complex/18.png' width ='500' height = '500' style='border:5px solid black'>","40","mixed_simple_deviant","images/complex/14.png","images/complex/18.png","images/simple/12.png,images/simple/17.png,images/simple/13.png,images/simple/3.png,images/simple/8.png,images/simple/15.png,images/simple/4.png","2","null","","200","454.2899999534711","","","","background","",""
"","null","html-keyboard-response","262","400076","0.0-20.0-0.24","SS1603400523565","","null","","","","","","","","","","","","<img src=images/blank.png width =""500"" height = ""500"" style=""border:5px solid black"">","","",""
"","869.0599999972619","stimulus-presentation","263","401164","0.0-20.0-1.24","SS1603400523565","<img src='images/complex/14.png' width ='500' height = '500' style='border:5px solid black'>","40","mixed_simple_deviant","images/complex/14.png","images/complex/18.png","images/simple/12.png,images/simple/17.png,images/simple/13.png,images/simple/3.png,images/simple/8.png,images/simple/15.png,images/simple/4.png","2","null","","200","1069.059999997262","yes","229.93500001030043","","target","",""
"","null","html-keyboard-response","264","402274","0.0-20.0-0.25","SS1603400523565","","null","","","","","","","","","","","","<img src=images/blank.png width =""500"" height = ""500"" style=""border:5px solid black"">","","",""
"","98.53999997721985","stimulus-presentation","265","402591","0.0-20.0-1.25","SS1603400523565","<img src='images/complex/18.png' width ='500' height = '500' style='border:5px solid black'>","40","mixed_simple_deviant","images/complex/14.png","images/complex/18.png","images/simple/12.png,images/simple/17.png,images/simple/13.png,images/simple/3.png,images/simple/8.png,images/simple/15.png,images/simple/4.png","2","null","","200","298.53999997721985","","","","background","",""
"","null","html-keyboard-response","266","403452","0.0-20.0-0.26","SS1603400523565","","null","","","","","","","","","","","","<img src=images/blank.png width =""500"" height = ""500"" style=""border:5px solid black"">","","",""
"","136.77499996265396","stimulus-presentation","267","403807","0.0-20.0-1.26","SS1603400523565","<img src='images/complex/18.png' width ='500' height = '500' style='border:5px solid black'>","40","mixed_simple_deviant","images/complex/14.png","images/complex/18.png","images/simple/12.png,images/simple/17.png,images/simple/13.png,images/simple/3.png,images/simple/8.png,images/simple/15.png,images/simple/4.png","2","null","","200","336.77499996265396","","","","background","",""
"","null","html-keyboard-response","268","404799","0.0-20.0-0.27","SS1603400523565","","null","","","","","","","","","","","","<img src=images/blank.png width =""500"" height = ""500"" style=""border:5px solid black"">","","",""
"","316.019999969285","stimulus-presentation","269","405338","0.0-20.0-1.27","SS1603400523565","<img src='images/simple/13.png' width ='500' height = '500' style='border:5px solid black'>","40","mixed_simple_deviant","images/complex/14.png","images/complex/18.png","images/simple/12.png,images/simple/17.png,images/simple/13.png,images/simple/3.png,images/simple/8.png,images/simple/15.png,images/simple/4.png","2","null","","200","516.019999969285","","","","deviant","",""
"","null","html-keyboard-response","270","406165","0.0-20.0-0.28","SS1603400523565","","null","","","","","","","","","","","","<img src=images/blank.png width =""500"" height = ""500"" style=""border:5px solid black"">","","",""
"","196.2099999655038","stimulus-presentation","271","406577","0.0-20.0-1.28","SS1603400523565","<img src='images/complex/18.png' width ='500' height = '500' style='border:5px solid black'>","40","mixed_simple_deviant","images/complex/14.png","images/complex/18.png","images/simple/12.png,images/simple/17.png,images/simple/13.png,images/simple/3.png,images/simple/8.png,images/simple/15.png,images/simple/4.png","2","null","","200","396.2099999655038","","","","background","",""
"","null","html-keyboard-response","272","407678","0.0-20.0-0.29","SS1603400523565","","null","","","","","","","","","","","","<img src=images/blank.png width =""500"" height = ""500"" style=""border:5px solid black"">","","",""
"","127.69499997375533","stimulus-presentation","273","408023","0.0-20.0-1.29","SS1603400523565","<img src='images/complex/18.png' width ='500' height = '500' style='border:5px solid black'>","40","mixed_simple_deviant","images/complex/14.png","images/complex/18.png","images/simple/12.png,images/simple/17.png,images/simple/13.png,images/simple/3.png,images/simple/8.png,images/simple/15.png,images/simple/4.png","2","null","","200","327.69499997375533","","","","background","",""
"","null","html-keyboard-response","274","408863","0.0-20.0-0.30","SS1603400523565","","null","","","","","","","","","","","","<img src=images/blank.png width =""500"" height = ""500"" style=""border:5px solid black"">","","",""
"","182.10999999428168","stimulus-presentation","275","409263","0.0-20.0-1.30","SS1603400523565","<img src='images/complex/18.png' width ='500' height = '500' style='border:5px solid black'>","40","mixed_simple_deviant","images/complex/14.png","images/complex/18.png","images/simple/12.png,images/simple/17.png,images/simple/13.png,images/simple/3.png,images/simple/8.png,images/simple/15.png,images/simple/4.png","2","null","","200","382.1099999942817","","","","background","",""
"","null","html-keyboard-response","276","410381","0.0-20.0-0.31","SS1603400523565","","null","","","","","","","","","","","","<img src=images/blank.png width =""500"" height = ""500"" style=""border:5px solid black"">","","",""
"","118.86499996762723","stimulus-presentation","277","410720","0.0-20.0-1.31","SS1603400523565","<img src='images/complex/18.png' width ='500' height = '500' style='border:5px solid black'>","40","mixed_simple_deviant","images/complex/14.png","images/complex/18.png","images/simple/12.png,images/simple/17.png,images/simple/13.png,images/simple/3.png,images/simple/8.png,images/simple/15.png,images/simple/4.png","2","null","","200","318.8649999676272","","","","background","",""
"","null","html-keyboard-response","278","411820","0.0-20.0-0.32","SS1603400523565","","null","","","","","","","","","","","","<img src=images/blank.png width =""500"" height = ""500"" style=""border:5px solid black"">","","",""
"","122.49500001780689","stimulus-presentation","279","412161","0.0-20.0-1.32","SS1603400523565","<img src='images/complex/18.png' width ='500' height = '500' style='border:5px solid black'>","40","mixed_simple_deviant","images/complex/14.png","images/complex/18.png","images/simple/12.png,images/simple/17.png,images/simple/13.png,images/simple/3.png,images/simple/8.png,images/simple/15.png,images/simple/4.png","2","null","","200","322.4950000178069","","","","background","",""
"","null","html-keyboard-response","280","413186","0.0-20.0-0.33","SS1603400523565","","null","","","","","","","","","","","","<img src=images/blank.png width =""500"" height = ""500"" style=""border:5px solid black"">","","",""
"","1167.490000021644","stimulus-presentation","281","414575","0.0-20.0-1.33","SS1603400523565","<img src='images/complex/14.png' width ='500' height = '500' style='border:5px solid black'>","40","mixed_simple_deviant","images/complex/14.png","images/complex/18.png","images/simple/12.png,images/simple/17.png,images/simple/13.png,images/simple/3.png,images/simple/8.png,images/simple/15.png,images/simple/4.png","2","null","","200","1367.490000021644","yes","334.5149999950081","","target","",""
"","null","html-keyboard-response","282","415621","0.0-20.0-0.34","SS1603400523565","","null","","","","","","","","","","","","<img src=images/blank.png width =""500"" height = ""500"" style=""border:5px solid black"">","","",""
"","185.44999998994172","stimulus-presentation","283","416024","0.0-20.0-1.34","SS1603400523565","<img src='images/simple/15.png' width ='500' height = '500' style='border:5px solid black'>","40","mixed_simple_deviant","images/complex/14.png","images/complex/18.png","images/simple/12.png,images/simple/17.png,images/simple/13.png,images/simple/3.png,images/simple/8.png,images/simple/15.png,images/simple/4.png","2","null","","200","385.4499999899417","","","","deviant","",""
"","null","html-keyboard-response","284","416993","0.0-20.0-0.35","SS1603400523565","","null","","","","","","","","","","","","<img src=images/blank.png width =""500"" height = ""500"" style=""border:5px solid black"">","","",""
