"view_history","rt","trial_type","trial_index","time_elapsed","internal_node_id","subject","stimulus","key_press","trial_stimulus","trial_stimulus_type","task_type","task_target_stimulus","task_background_stimulus","task_deviant_stimuli","task_order_number","blcok_order_number","trial_order_number","minimum_viewing_duration","trial_looking_time","trial_pressed_space_bar","responses","question_order"
"[{""page_index"":0,""viewing_time"":1472.0949999900768},{""page_index"":1,""viewing_time"":447.3450000077719},{""page_index"":2,""viewing_time"":2071.814999988419},{""page_index"":3,""viewing_time"":1056.7700000101468},{""page_index"":4,""viewing_time"":439.539999992121}]","5488.234999997076","instructions","0","5490","0.0-0.0","SS1602373926146","","","","","","","","","","","","","","","",""
"","null","html-keyboard-response","1","6596","0.0-1.0-0.0","SS1602373926146","<img src=images/blank.png width =""500"" height = ""600"" style=""border:5px solid black"">","null","","","","","","","","","","","","","",""
"","3.3499999990453944","stimulus-presentation","2","7204","0.0-1.0-1.0","SS1602373926146","","40","<img src='images/simple/42.png' width ='500' height = '600' style='border:5px solid black'>","deviant","mixed_simple_deviant","images/complex/84.png","images/complex/90.png","images/simple/43.png,images/simple/42.png,images/simple/120.png,images/simple/74.png,images/simple/84.png,images/simple/102.png,images/simple/26.png,images/simple/27.png,images/simple/99.png,images/simple/22.png,images/simple/29.png,images/simple/28.png,images/simple/38.png,images/simple/20.png,images/simple/4.png,images/simple/61.png,images/simple/60.png,images/simple/24.png,images/simple/113.png,images/simple/47.png,images/simple/116.png,images/simple/94.png,images/simple/108.png,images/simple/40.png,images/simple/58.png,images/simple/11.png,images/simple/6.png,images/simple/103.png,images/simple/77.png,images/simple/36.png,images/simple/57.png,images/simple/13.png,images/simple/8.png,images/simple/17.png,images/simple/25.png,images/simple/82.png,images/simple/45.png,images/simple/96.png","0","0","","600","603.3499999990454","","",""
"","null","html-keyboard-response","3","8253","0.0-1.0-0.1","SS1602373926146","<img src=images/blank.png width =""500"" height = ""600"" style=""border:5px solid black"">","null","","","","","","","","","","","","","",""
"","393.6950000061188","stimulus-presentation","4","9251","0.0-1.0-1.1","SS1602373926146","","40","<img src='images/complex/90.png' width ='500' height = '600' style='border:5px solid black'>","background","mixed_simple_deviant","images/complex/84.png","images/complex/90.png","images/simple/43.png,images/simple/42.png,images/simple/120.png,images/simple/74.png,images/simple/84.png,images/simple/102.png,images/simple/26.png,images/simple/27.png,images/simple/99.png,images/simple/22.png,images/simple/29.png,images/simple/28.png,images/simple/38.png,images/simple/20.png,images/simple/4.png,images/simple/61.png,images/simple/60.png,images/simple/24.png,images/simple/113.png,images/simple/47.png,images/simple/116.png,images/simple/94.png,images/simple/108.png,images/simple/40.png,images/simple/58.png,images/simple/11.png,images/simple/6.png,images/simple/103.png,images/simple/77.png,images/simple/36.png,images/simple/57.png,images/simple/13.png,images/simple/8.png,images/simple/17.png,images/simple/25.png,images/simple/82.png,images/simple/45.png,images/simple/96.png","0","0","","600","993.6950000061188","","",""
"","null","html-keyboard-response","5","10159","0.0-1.0-0.2","SS1602373926146","<img src=images/blank.png width =""500"" height = ""600"" style=""border:5px solid black"">","null","","","","","","","","","","","","","",""
"","1491.4950000093086","stimulus-presentation","6","12258","0.0-1.0-1.2","SS1602373926146","","40","<img src='images/complex/84.png' width ='500' height = '600' style='border:5px solid black'>","target","mixed_simple_deviant","images/complex/84.png","images/complex/90.png","images/simple/43.png,images/simple/42.png,images/simple/120.png,images/simple/74.png,images/simple/84.png,images/simple/102.png,images/simple/26.png,images/simple/27.png,images/simple/99.png,images/simple/22.png,images/simple/29.png,images/simple/28.png,images/simple/38.png,images/simple/20.png,images/simple/4.png,images/simple/61.png,images/simple/60.png,images/simple/24.png,images/simple/113.png,images/simple/47.png,images/simple/116.png,images/simple/94.png,images/simple/108.png,images/simple/40.png,images/simple/58.png,images/simple/11.png,images/simple/6.png,images/simple/103.png,images/simple/77.png,images/simple/36.png,images/simple/57.png,images/simple/13.png,images/simple/8.png,images/simple/17.png,images/simple/25.png,images/simple/82.png,images/simple/45.png,images/simple/96.png","0","0","","600","2091.4950000093086","444.2550000094343","",""
"","null","html-keyboard-response","7","13304","0.0-1.0-0.3","SS1602373926146","<img src=images/blank.png width =""500"" height = ""600"" style=""border:5px solid black"">","null","","","","","","","","","","","","","",""
"","80.75500000268221","stimulus-presentation","8","13994","0.0-1.0-1.3","SS1602373926146","","40","<img src='images/simple/27.png' width ='500' height = '600' style='border:5px solid black'>","deviant","mixed_simple_deviant","images/complex/84.png","images/complex/90.png","images/simple/43.png,images/simple/42.png,images/simple/120.png,images/simple/74.png,images/simple/84.png,images/simple/102.png,images/simple/26.png,images/simple/27.png,images/simple/99.png,images/simple/22.png,images/simple/29.png,images/simple/28.png,images/simple/38.png,images/simple/20.png,images/simple/4.png,images/simple/61.png,images/simple/60.png,images/simple/24.png,images/simple/113.png,images/simple/47.png,images/simple/116.png,images/simple/94.png,images/simple/108.png,images/simple/40.png,images/simple/58.png,images/simple/11.png,images/simple/6.png,images/simple/103.png,images/simple/77.png,images/simple/36.png,images/simple/57.png,images/simple/13.png,images/simple/8.png,images/simple/17.png,images/simple/25.png,images/simple/82.png,images/simple/45.png,images/simple/96.png","0","0","","600","680.7550000026822","","",""
"","null","html-keyboard-response","9","15022","0.0-1.0-0.4","SS1602373926146","<img src=images/blank.png width =""500"" height = ""600"" style=""border:5px solid black"">","null","","","","","","","","","","","","","",""
"","371.7000000033295","stimulus-presentation","10","16002","0.0-1.0-1.4","SS1602373926146","","40","<img src='images/complex/90.png' width ='500' height = '600' style='border:5px solid black'>","background","mixed_simple_deviant","images/complex/84.png","images/complex/90.png","images/simple/43.png,images/simple/42.png,images/simple/120.png,images/simple/74.png,images/simple/84.png,images/simple/102.png,images/simple/26.png,images/simple/27.png,images/simple/99.png,images/simple/22.png,images/simple/29.png,images/simple/28.png,images/simple/38.png,images/simple/20.png,images/simple/4.png,images/simple/61.png,images/simple/60.png,images/simple/24.png,images/simple/113.png,images/simple/47.png,images/simple/116.png,images/simple/94.png,images/simple/108.png,images/simple/40.png,images/simple/58.png,images/simple/11.png,images/simple/6.png,images/simple/103.png,images/simple/77.png,images/simple/36.png,images/simple/57.png,images/simple/13.png,images/simple/8.png,images/simple/17.png,images/simple/25.png,images/simple/82.png,images/simple/45.png,images/simple/96.png","0","0","","600","971.7000000033295","","",""
"","null","html-keyboard-response","11","17081","0.0-1.0-0.5","SS1602373926146","<img src=images/blank.png width =""500"" height = ""600"" style=""border:5px solid black"">","null","","","","","","","","","","","","","",""
"","8.305000010295771","stimulus-presentation","12","17701","0.0-1.0-1.5","SS1602373926146","","40","<img src='images/complex/90.png' width ='500' height = '600' style='border:5px solid black'>","background","mixed_simple_deviant","images/complex/84.png","images/complex/90.png","images/simple/43.png,images/simple/42.png,images/simple/120.png,images/simple/74.png,images/simple/84.png,images/simple/102.png,images/simple/26.png,images/simple/27.png,images/simple/99.png,images/simple/22.png,images/simple/29.png,images/simple/28.png,images/simple/38.png,images/simple/20.png,images/simple/4.png,images/simple/61.png,images/simple/60.png,images/simple/24.png,images/simple/113.png,images/simple/47.png,images/simple/116.png,images/simple/94.png,images/simple/108.png,images/simple/40.png,images/simple/58.png,images/simple/11.png,images/simple/6.png,images/simple/103.png,images/simple/77.png,images/simple/36.png,images/simple/57.png,images/simple/13.png,images/simple/8.png,images/simple/17.png,images/simple/25.png,images/simple/82.png,images/simple/45.png,images/simple/96.png","0","0","","600","608.3050000102958","","",""
"","null","html-keyboard-response","13","18803","0.0-1.0-0.6","SS1602373926146","<img src=images/blank.png width =""500"" height = ""600"" style=""border:5px solid black"">","null","","","","","","","","","","","","","",""
"","509.93499999458436","stimulus-presentation","14","19924","0.0-1.0-1.6","SS1602373926146","","40","<img src='images/complex/90.png' width ='500' height = '600' style='border:5px solid black'>","background","mixed_simple_deviant","images/complex/84.png","images/complex/90.png","images/simple/43.png,images/simple/42.png,images/simple/120.png,images/simple/74.png,images/simple/84.png,images/simple/102.png,images/simple/26.png,images/simple/27.png,images/simple/99.png,images/simple/22.png,images/simple/29.png,images/simple/28.png,images/simple/38.png,images/simple/20.png,images/simple/4.png,images/simple/61.png,images/simple/60.png,images/simple/24.png,images/simple/113.png,images/simple/47.png,images/simple/116.png,images/simple/94.png,images/simple/108.png,images/simple/40.png,images/simple/58.png,images/simple/11.png,images/simple/6.png,images/simple/103.png,images/simple/77.png,images/simple/36.png,images/simple/57.png,images/simple/13.png,images/simple/8.png,images/simple/17.png,images/simple/25.png,images/simple/82.png,images/simple/45.png,images/simple/96.png","0","0","","600","1109.9349999945844","","",""
"","null","html-keyboard-response","15","21108","0.0-1.0-0.7","SS1602373926146","<img src=images/blank.png width =""500"" height = ""600"" style=""border:5px solid black"">","null","","","","","","","","","","","","","",""
"","332.1049999940442","stimulus-presentation","16","22054","0.0-1.0-1.7","SS1602373926146","","40","<img src='images/complex/90.png' width ='500' height = '600' style='border:5px solid black'>","background","mixed_simple_deviant","images/complex/84.png","images/complex/90.png","images/simple/43.png,images/simple/42.png,images/simple/120.png,images/simple/74.png,images/simple/84.png,images/simple/102.png,images/simple/26.png,images/simple/27.png,images/simple/99.png,images/simple/22.png,images/simple/29.png,images/simple/28.png,images/simple/38.png,images/simple/20.png,images/simple/4.png,images/simple/61.png,images/simple/60.png,images/simple/24.png,images/simple/113.png,images/simple/47.png,images/simple/116.png,images/simple/94.png,images/simple/108.png,images/simple/40.png,images/simple/58.png,images/simple/11.png,images/simple/6.png,images/simple/103.png,images/simple/77.png,images/simple/36.png,images/simple/57.png,images/simple/13.png,images/simple/8.png,images/simple/17.png,images/simple/25.png,images/simple/82.png,images/simple/45.png,images/simple/96.png","0","0","","600","932.1049999940442","","",""
"","null","html-keyboard-response","17","22953","0.0-1.0-0.8","SS1602373926146","<img src=images/blank.png width =""500"" height = ""600"" style=""border:5px solid black"">","null","","","","","","","","","","","","","",""
"","85.80499999516178","stimulus-presentation","18","23653","0.0-1.0-1.8","SS1602373926146","","40","<img src='images/complex/90.png' width ='500' height = '600' style='border:5px solid black'>","background","mixed_simple_deviant","images/complex/84.png","images/complex/90.png","images/simple/43.png,images/simple/42.png,images/simple/120.png,images/simple/74.png,images/simple/84.png,images/simple/102.png,images/simple/26.png,images/simple/27.png,images/simple/99.png,images/simple/22.png,images/simple/29.png,images/simple/28.png,images/simple/38.png,images/simple/20.png,images/simple/4.png,images/simple/61.png,images/simple/60.png,images/simple/24.png,images/simple/113.png,images/simple/47.png,images/simple/116.png,images/simple/94.png,images/simple/108.png,images/simple/40.png,images/simple/58.png,images/simple/11.png,images/simple/6.png,images/simple/103.png,images/simple/77.png,images/simple/36.png,images/simple/57.png,images/simple/13.png,images/simple/8.png,images/simple/17.png,images/simple/25.png,images/simple/82.png,images/simple/45.png,images/simple/96.png","0","0","","600","685.8049999951618","","",""
"","null","html-keyboard-response","19","24468","0.0-1.0-0.9","SS1602373926146","<img src=images/blank.png width =""500"" height = ""600"" style=""border:5px solid black"">","null","","","","","","","","","","","","","",""
"","549.4500000058906","stimulus-presentation","20","25635","0.0-1.0-1.9","SS1602373926146","","40","<img src='images/simple/26.png' width ='500' height = '600' style='border:5px solid black'>","deviant","mixed_simple_deviant","images/complex/84.png","images/complex/90.png","images/simple/43.png,images/simple/42.png,images/simple/120.png,images/simple/74.png,images/simple/84.png,images/simple/102.png,images/simple/26.png,images/simple/27.png,images/simple/99.png,images/simple/22.png,images/simple/29.png,images/simple/28.png,images/simple/38.png,images/simple/20.png,images/simple/4.png,images/simple/61.png,images/simple/60.png,images/simple/24.png,images/simple/113.png,images/simple/47.png,images/simple/116.png,images/simple/94.png,images/simple/108.png,images/simple/40.png,images/simple/58.png,images/simple/11.png,images/simple/6.png,images/simple/103.png,images/simple/77.png,images/simple/36.png,images/simple/57.png,images/simple/13.png,images/simple/8.png,images/simple/17.png,images/simple/25.png,images/simple/82.png,images/simple/45.png,images/simple/96.png","0","0","","600","1149.4500000058906","","",""
"","null","html-keyboard-response","21","26842","0.0-1.0-0.10","SS1602373926146","<img src=images/blank.png width =""500"" height = ""600"" style=""border:5px solid black"">","null","","","","","","","","","","","","","",""
"","1929.3000000034226","stimulus-presentation","22","29387","0.0-1.0-1.10","SS1602373926146","","40","<img src='images/complex/90.png' width ='500' height = '600' style='border:5px solid black'>","background","mixed_simple_deviant","images/complex/84.png","images/complex/90.png","images/simple/43.png,images/simple/42.png,images/simple/120.png,images/simple/74.png,images/simple/84.png,images/simple/102.png,images/simple/26.png,images/simple/27.png,images/simple/99.png,images/simple/22.png,images/simple/29.png,images/simple/28.png,images/simple/38.png,images/simple/20.png,images/simple/4.png,images/simple/61.png,images/simple/60.png,images/simple/24.png,images/simple/113.png,images/simple/47.png,images/simple/116.png,images/simple/94.png,images/simple/108.png,images/simple/40.png,images/simple/58.png,images/simple/11.png,images/simple/6.png,images/simple/103.png,images/simple/77.png,images/simple/36.png,images/simple/57.png,images/simple/13.png,images/simple/8.png,images/simple/17.png,images/simple/25.png,images/simple/82.png,images/simple/45.png,images/simple/96.png","0","0","","600","2529.3000000034226","","",""
"","null","html-keyboard-response","23","30568","0.0-1.0-0.11","SS1602373926146","<img src=images/blank.png width =""500"" height = ""600"" style=""border:5px solid black"">","null","","","","","","","","","","","","","",""
"","2565.724999993108","stimulus-presentation","24","33761","0.0-1.0-1.11","SS1602373926146","","40","<img src='images/complex/84.png' width ='500' height = '600' style='border:5px solid black'>","target","mixed_simple_deviant","images/complex/84.png","images/complex/90.png","images/simple/43.png,images/simple/42.png,images/simple/120.png,images/simple/74.png,images/simple/84.png,images/simple/102.png,images/simple/26.png,images/simple/27.png,images/simple/99.png,images/simple/22.png,images/simple/29.png,images/simple/28.png,images/simple/38.png,images/simple/20.png,images/simple/4.png,images/simple/61.png,images/simple/60.png,images/simple/24.png,images/simple/113.png,images/simple/47.png,images/simple/116.png,images/simple/94.png,images/simple/108.png,images/simple/40.png,images/simple/58.png,images/simple/11.png,images/simple/6.png,images/simple/103.png,images/simple/77.png,images/simple/36.png,images/simple/57.png,images/simple/13.png,images/simple/8.png,images/simple/17.png,images/simple/25.png,images/simple/82.png,images/simple/45.png,images/simple/96.png","0","0","","600","3165.724999993108","187.484999987646","",""
"","null","html-keyboard-response","25","35083","0.0-1.0-0.12","SS1602373926146","<img src=images/blank.png width =""500"" height = ""600"" style=""border:5px solid black"">","null","","","","","","","","","","","","","",""
"","997.2249999991618","stimulus-presentation","26","36710","0.0-1.0-1.12","SS1602373926146","","40","<img src='images/complex/84.png' width ='500' height = '600' style='border:5px solid black'>","target","mixed_simple_deviant","images/complex/84.png","images/complex/90.png","images/simple/43.png,images/simple/42.png,images/simple/120.png,images/simple/74.png,images/simple/84.png,images/simple/102.png,images/simple/26.png,images/simple/27.png,images/simple/99.png,images/simple/22.png,images/simple/29.png,images/simple/28.png,images/simple/38.png,images/simple/20.png,images/simple/4.png,images/simple/61.png,images/simple/60.png,images/simple/24.png,images/simple/113.png,images/simple/47.png,images/simple/116.png,images/simple/94.png,images/simple/108.png,images/simple/40.png,images/simple/58.png,images/simple/11.png,images/simple/6.png,images/simple/103.png,images/simple/77.png,images/simple/36.png,images/simple/57.png,images/simple/13.png,images/simple/8.png,images/simple/17.png,images/simple/25.png,images/simple/82.png,images/simple/45.png,images/simple/96.png","0","0","","600","1597.2249999991618","223.42999999818858","",""
"","null","html-keyboard-response","27","37943","0.0-1.0-0.13","SS1602373926146","<img src=images/blank.png width =""500"" height = ""600"" style=""border:5px solid black"">","null","","","","","","","","","","","","","",""
"","244.0199999982724","stimulus-presentation","28","38815","0.0-1.0-1.13","SS1602373926146","","40","<img src='images/complex/90.png' width ='500' height = '600' style='border:5px solid black'>","background","mixed_simple_deviant","images/complex/84.png","images/complex/90.png","images/simple/43.png,images/simple/42.png,images/simple/120.png,images/simple/74.png,images/simple/84.png,images/simple/102.png,images/simple/26.png,images/simple/27.png,images/simple/99.png,images/simple/22.png,images/simple/29.png,images/simple/28.png,images/simple/38.png,images/simple/20.png,images/simple/4.png,images/simple/61.png,images/simple/60.png,images/simple/24.png,images/simple/113.png,images/simple/47.png,images/simple/116.png,images/simple/94.png,images/simple/108.png,images/simple/40.png,images/simple/58.png,images/simple/11.png,images/simple/6.png,images/simple/103.png,images/simple/77.png,images/simple/36.png,images/simple/57.png,images/simple/13.png,images/simple/8.png,images/simple/17.png,images/simple/25.png,images/simple/82.png,images/simple/45.png,images/simple/96.png","0","0","","600","844.0199999982724","","",""
"","null","html-keyboard-response","29","39760","0.0-1.0-0.14","SS1602373926146","<img src=images/blank.png width =""500"" height = ""600"" style=""border:5px solid black"">","null","","","","","","","","","","","","","",""
"","598.0000000126893","stimulus-presentation","30","40990","0.0-1.0-1.14","SS1602373926146","","40","<img src='images/complex/90.png' width ='500' height = '600' style='border:5px solid black'>","background","mixed_simple_deviant","images/complex/84.png","images/complex/90.png","images/simple/43.png,images/simple/42.png,images/simple/120.png,images/simple/74.png,images/simple/84.png,images/simple/102.png,images/simple/26.png,images/simple/27.png,images/simple/99.png,images/simple/22.png,images/simple/29.png,images/simple/28.png,images/simple/38.png,images/simple/20.png,images/simple/4.png,images/simple/61.png,images/simple/60.png,images/simple/24.png,images/simple/113.png,images/simple/47.png,images/simple/116.png,images/simple/94.png,images/simple/108.png,images/simple/40.png,images/simple/58.png,images/simple/11.png,images/simple/6.png,images/simple/103.png,images/simple/77.png,images/simple/36.png,images/simple/57.png,images/simple/13.png,images/simple/8.png,images/simple/17.png,images/simple/25.png,images/simple/82.png,images/simple/45.png,images/simple/96.png","0","0","","600","1198.0000000126893","","",""
"","null","html-keyboard-response","31","41835","0.0-1.0-0.15","SS1602373926146","<img src=images/blank.png width =""500"" height = ""600"" style=""border:5px solid black"">","null","","","","","","","","","","","","","",""
"","538.3199999923818","stimulus-presentation","32","43007","0.0-1.0-1.15","SS1602373926146","","40","<img src='images/complex/90.png' width ='500' height = '600' style='border:5px solid black'>","background","mixed_simple_deviant","images/complex/84.png","images/complex/90.png","images/simple/43.png,images/simple/42.png,images/simple/120.png,images/simple/74.png,images/simple/84.png,images/simple/102.png,images/simple/26.png,images/simple/27.png,images/simple/99.png,images/simple/22.png,images/simple/29.png,images/simple/28.png,images/simple/38.png,images/simple/20.png,images/simple/4.png,images/simple/61.png,images/simple/60.png,images/simple/24.png,images/simple/113.png,images/simple/47.png,images/simple/116.png,images/simple/94.png,images/simple/108.png,images/simple/40.png,images/simple/58.png,images/simple/11.png,images/simple/6.png,images/simple/103.png,images/simple/77.png,images/simple/36.png,images/simple/57.png,images/simple/13.png,images/simple/8.png,images/simple/17.png,images/simple/25.png,images/simple/82.png,images/simple/45.png,images/simple/96.png","0","0","","600","1138.3199999923818","","",""
"","null","html-keyboard-response","33","44334","0.0-1.0-0.16","SS1602373926146","<img src=images/blank.png width =""500"" height = ""600"" style=""border:5px solid black"">","null","","","","","","","","","","","","","",""
"","1724.9699999956647","stimulus-presentation","34","46695","0.0-1.0-1.16","SS1602373926146","","40","<img src='images/complex/90.png' width ='500' height = '600' style='border:5px solid black'>","background","mixed_simple_deviant","images/complex/84.png","images/complex/90.png","images/simple/43.png,images/simple/42.png,images/simple/120.png,images/simple/74.png,images/simple/84.png,images/simple/102.png,images/simple/26.png,images/simple/27.png,images/simple/99.png,images/simple/22.png,images/simple/29.png,images/simple/28.png,images/simple/38.png,images/simple/20.png,images/simple/4.png,images/simple/61.png,images/simple/60.png,images/simple/24.png,images/simple/113.png,images/simple/47.png,images/simple/116.png,images/simple/94.png,images/simple/108.png,images/simple/40.png,images/simple/58.png,images/simple/11.png,images/simple/6.png,images/simple/103.png,images/simple/77.png,images/simple/36.png,images/simple/57.png,images/simple/13.png,images/simple/8.png,images/simple/17.png,images/simple/25.png,images/simple/82.png,images/simple/45.png,images/simple/96.png","0","0","","600","2324.9699999956647","","",""
"","null","html-keyboard-response","35","47871","0.0-1.0-0.17","SS1602373926146","<img src=images/blank.png width =""500"" height = ""600"" style=""border:5px solid black"">","null","","","","","","","","","","","","","",""
"","383.5499999986496","stimulus-presentation","36","48885","0.0-1.0-1.17","SS1602373926146","","40","<img src='images/complex/90.png' width ='500' height = '600' style='border:5px solid black'>","background","mixed_simple_deviant","images/complex/84.png","images/complex/90.png","images/simple/43.png,images/simple/42.png,images/simple/120.png,images/simple/74.png,images/simple/84.png,images/simple/102.png,images/simple/26.png,images/simple/27.png,images/simple/99.png,images/simple/22.png,images/simple/29.png,images/simple/28.png,images/simple/38.png,images/simple/20.png,images/simple/4.png,images/simple/61.png,images/simple/60.png,images/simple/24.png,images/simple/113.png,images/simple/47.png,images/simple/116.png,images/simple/94.png,images/simple/108.png,images/simple/40.png,images/simple/58.png,images/simple/11.png,images/simple/6.png,images/simple/103.png,images/simple/77.png,images/simple/36.png,images/simple/57.png,images/simple/13.png,images/simple/8.png,images/simple/17.png,images/simple/25.png,images/simple/82.png,images/simple/45.png,images/simple/96.png","0","0","","600","983.5499999986496","","",""
"","null","html-keyboard-response","37","50175","0.0-1.0-0.18","SS1602373926146","<img src=images/blank.png width =""500"" height = ""600"" style=""border:5px solid black"">","null","","","","","","","","","","","","","",""
"","324.4550000090385","stimulus-presentation","38","51136","0.0-1.0-1.18","SS1602373926146","","40","<img src='images/complex/90.png' width ='500' height = '600' style='border:5px solid black'>","background","mixed_simple_deviant","images/complex/84.png","images/complex/90.png","images/simple/43.png,images/simple/42.png,images/simple/120.png,images/simple/74.png,images/simple/84.png,images/simple/102.png,images/simple/26.png,images/simple/27.png,images/simple/99.png,images/simple/22.png,images/simple/29.png,images/simple/28.png,images/simple/38.png,images/simple/20.png,images/simple/4.png,images/simple/61.png,images/simple/60.png,images/simple/24.png,images/simple/113.png,images/simple/47.png,images/simple/116.png,images/simple/94.png,images/simple/108.png,images/simple/40.png,images/simple/58.png,images/simple/11.png,images/simple/6.png,images/simple/103.png,images/simple/77.png,images/simple/36.png,images/simple/57.png,images/simple/13.png,images/simple/8.png,images/simple/17.png,images/simple/25.png,images/simple/82.png,images/simple/45.png,images/simple/96.png","0","0","","600","924.4550000090385","","",""
"","null","html-keyboard-response","39","52148","0.0-1.0-0.19","SS1602373926146","<img src=images/blank.png width =""500"" height = ""600"" style=""border:5px solid black"">","null","","","","","","","","","","","","","",""
"","53.69000000064261","stimulus-presentation","40","52838","0.0-1.0-1.19","SS1602373926146","","40","<img src='images/complex/90.png' width ='500' height = '600' style='border:5px solid black'>","background","mixed_simple_deviant","images/complex/84.png","images/complex/90.png","images/simple/43.png,images/simple/42.png,images/simple/120.png,images/simple/74.png,images/simple/84.png,images/simple/102.png,images/simple/26.png,images/simple/27.png,images/simple/99.png,images/simple/22.png,images/simple/29.png,images/simple/28.png,images/simple/38.png,images/simple/20.png,images/simple/4.png,images/simple/61.png,images/simple/60.png,images/simple/24.png,images/simple/113.png,images/simple/47.png,images/simple/116.png,images/simple/94.png,images/simple/108.png,images/simple/40.png,images/simple/58.png,images/simple/11.png,images/simple/6.png,images/simple/103.png,images/simple/77.png,images/simple/36.png,images/simple/57.png,images/simple/13.png,images/simple/8.png,images/simple/17.png,images/simple/25.png,images/simple/82.png,images/simple/45.png,images/simple/96.png","0","0","","600","653.6900000006426","","",""
"","null","html-keyboard-response","41","53907","0.0-1.0-0.20","SS1602373926146","<img src=images/blank.png width =""500"" height = ""600"" style=""border:5px solid black"">","null","","","","","","","","","","","","","",""
"","1397.6949999923818","stimulus-presentation","42","55942","0.0-1.0-1.20","SS1602373926146","","40","<img src='images/complex/90.png' width ='500' height = '600' style='border:5px solid black'>","background","mixed_simple_deviant","images/complex/84.png","images/complex/90.png","images/simple/43.png,images/simple/42.png,images/simple/120.png,images/simple/74.png,images/simple/84.png,images/simple/102.png,images/simple/26.png,images/simple/27.png,images/simple/99.png,images/simple/22.png,images/simple/29.png,images/simple/28.png,images/simple/38.png,images/simple/20.png,images/simple/4.png,images/simple/61.png,images/simple/60.png,images/simple/24.png,images/simple/113.png,images/simple/47.png,images/simple/116.png,images/simple/94.png,images/simple/108.png,images/simple/40.png,images/simple/58.png,images/simple/11.png,images/simple/6.png,images/simple/103.png,images/simple/77.png,images/simple/36.png,images/simple/57.png,images/simple/13.png,images/simple/8.png,images/simple/17.png,images/simple/25.png,images/simple/82.png,images/simple/45.png,images/simple/96.png","0","0","","600","1997.6949999923818","","",""
"","null","html-keyboard-response","43","57241","0.0-1.0-0.21","SS1602373926146","<img src=images/blank.png width =""500"" height = ""600"" style=""border:5px solid black"">","null","","","","","","","","","","","","","",""
"","44.780000011087395","stimulus-presentation","44","57928","0.0-1.0-1.21","SS1602373926146","","40","<img src='images/complex/90.png' width ='500' height = '600' style='border:5px solid black'>","background","mixed_simple_deviant","images/complex/84.png","images/complex/90.png","images/simple/43.png,images/simple/42.png,images/simple/120.png,images/simple/74.png,images/simple/84.png,images/simple/102.png,images/simple/26.png,images/simple/27.png,images/simple/99.png,images/simple/22.png,images/simple/29.png,images/simple/28.png,images/simple/38.png,images/simple/20.png,images/simple/4.png,images/simple/61.png,images/simple/60.png,images/simple/24.png,images/simple/113.png,images/simple/47.png,images/simple/116.png,images/simple/94.png,images/simple/108.png,images/simple/40.png,images/simple/58.png,images/simple/11.png,images/simple/6.png,images/simple/103.png,images/simple/77.png,images/simple/36.png,images/simple/57.png,images/simple/13.png,images/simple/8.png,images/simple/17.png,images/simple/25.png,images/simple/82.png,images/simple/45.png,images/simple/96.png","0","0","","600","644.7800000110874","","",""
"","null","html-keyboard-response","45","59259","0.0-1.0-0.22","SS1602373926146","<img src=images/blank.png width =""500"" height = ""600"" style=""border:5px solid black"">","null","","","","","","","","","","","","","",""
"","145.70999999705236","stimulus-presentation","46","60043","0.0-1.0-1.22","SS1602373926146","","40","<img src='images/complex/90.png' width ='500' height = '600' style='border:5px solid black'>","background","mixed_simple_deviant","images/complex/84.png","images/complex/90.png","images/simple/43.png,images/simple/42.png,images/simple/120.png,images/simple/74.png,images/simple/84.png,images/simple/102.png,images/simple/26.png,images/simple/27.png,images/simple/99.png,images/simple/22.png,images/simple/29.png,images/simple/28.png,images/simple/38.png,images/simple/20.png,images/simple/4.png,images/simple/61.png,images/simple/60.png,images/simple/24.png,images/simple/113.png,images/simple/47.png,images/simple/116.png,images/simple/94.png,images/simple/108.png,images/simple/40.png,images/simple/58.png,images/simple/11.png,images/simple/6.png,images/simple/103.png,images/simple/77.png,images/simple/36.png,images/simple/57.png,images/simple/13.png,images/simple/8.png,images/simple/17.png,images/simple/25.png,images/simple/82.png,images/simple/45.png,images/simple/96.png","0","0","","600","745.7099999970524","","",""
"","null","html-keyboard-response","47","60992","0.0-1.0-0.23","SS1602373926146","<img src=images/blank.png width =""500"" height = ""600"" style=""border:5px solid black"">","null","","","","","","","","","","","","","",""
"","598.0650000128662","stimulus-presentation","48","62231","0.0-1.0-1.23","SS1602373926146","","40","<img src='images/simple/58.png' width ='500' height = '600' style='border:5px solid black'>","deviant","mixed_simple_deviant","images/complex/84.png","images/complex/90.png","images/simple/43.png,images/simple/42.png,images/simple/120.png,images/simple/74.png,images/simple/84.png,images/simple/102.png,images/simple/26.png,images/simple/27.png,images/simple/99.png,images/simple/22.png,images/simple/29.png,images/simple/28.png,images/simple/38.png,images/simple/20.png,images/simple/4.png,images/simple/61.png,images/simple/60.png,images/simple/24.png,images/simple/113.png,images/simple/47.png,images/simple/116.png,images/simple/94.png,images/simple/108.png,images/simple/40.png,images/simple/58.png,images/simple/11.png,images/simple/6.png,images/simple/103.png,images/simple/77.png,images/simple/36.png,images/simple/57.png,images/simple/13.png,images/simple/8.png,images/simple/17.png,images/simple/25.png,images/simple/82.png,images/simple/45.png,images/simple/96.png","0","0","","600","1198.0650000128662","","",""
"","null","html-keyboard-response","49","63415","0.0-1.0-0.24","SS1602373926146","<img src=images/blank.png width =""500"" height = ""600"" style=""border:5px solid black"">","null","","","","","","","","","","","","","",""
"","344.44499999517575","stimulus-presentation","50","64398","0.0-1.0-1.24","SS1602373926146","","40","<img src='images/complex/90.png' width ='500' height = '600' style='border:5px solid black'>","background","mixed_simple_deviant","images/complex/84.png","images/complex/90.png","images/simple/43.png,images/simple/42.png,images/simple/120.png,images/simple/74.png,images/simple/84.png,images/simple/102.png,images/simple/26.png,images/simple/27.png,images/simple/99.png,images/simple/22.png,images/simple/29.png,images/simple/28.png,images/simple/38.png,images/simple/20.png,images/simple/4.png,images/simple/61.png,images/simple/60.png,images/simple/24.png,images/simple/113.png,images/simple/47.png,images/simple/116.png,images/simple/94.png,images/simple/108.png,images/simple/40.png,images/simple/58.png,images/simple/11.png,images/simple/6.png,images/simple/103.png,images/simple/77.png,images/simple/36.png,images/simple/57.png,images/simple/13.png,images/simple/8.png,images/simple/17.png,images/simple/25.png,images/simple/82.png,images/simple/45.png,images/simple/96.png","0","0","","600","944.4449999951757","","",""
"","null","html-keyboard-response","51","65471","0.0-1.0-0.25","SS1602373926146","<img src=images/blank.png width =""500"" height = ""600"" style=""border:5px solid black"">","null","","","","","","","","","","","","","",""
"","142.25999999325722","stimulus-presentation","52","66255","0.0-1.0-1.25","SS1602373926146","","40","<img src='images/complex/90.png' width ='500' height = '600' style='border:5px solid black'>","background","mixed_simple_deviant","images/complex/84.png","images/complex/90.png","images/simple/43.png,images/simple/42.png,images/simple/120.png,images/simple/74.png,images/simple/84.png,images/simple/102.png,images/simple/26.png,images/simple/27.png,images/simple/99.png,images/simple/22.png,images/simple/29.png,images/simple/28.png,images/simple/38.png,images/simple/20.png,images/simple/4.png,images/simple/61.png,images/simple/60.png,images/simple/24.png,images/simple/113.png,images/simple/47.png,images/simple/116.png,images/simple/94.png,images/simple/108.png,images/simple/40.png,images/simple/58.png,images/simple/11.png,images/simple/6.png,images/simple/103.png,images/simple/77.png,images/simple/36.png,images/simple/57.png,images/simple/13.png,images/simple/8.png,images/simple/17.png,images/simple/25.png,images/simple/82.png,images/simple/45.png,images/simple/96.png","0","0","","600","742.2599999932572","","",""
"","null","html-keyboard-response","53","67543","0.0-1.0-0.26","SS1602373926146","<img src=images/blank.png width =""500"" height = ""600"" style=""border:5px solid black"">","null","","","","","","","","","","","","","",""
"","618.5800000093877","stimulus-presentation","54","68806","0.0-1.0-1.26","SS1602373926146","","40","<img src='images/complex/90.png' width ='500' height = '600' style='border:5px solid black'>","background","mixed_simple_deviant","images/complex/84.png","images/complex/90.png","images/simple/43.png,images/simple/42.png,images/simple/120.png,images/simple/74.png,images/simple/84.png,images/simple/102.png,images/simple/26.png,images/simple/27.png,images/simple/99.png,images/simple/22.png,images/simple/29.png,images/simple/28.png,images/simple/38.png,images/simple/20.png,images/simple/4.png,images/simple/61.png,images/simple/60.png,images/simple/24.png,images/simple/113.png,images/simple/47.png,images/simple/116.png,images/simple/94.png,images/simple/108.png,images/simple/40.png,images/simple/58.png,images/simple/11.png,images/simple/6.png,images/simple/103.png,images/simple/77.png,images/simple/36.png,images/simple/57.png,images/simple/13.png,images/simple/8.png,images/simple/17.png,images/simple/25.png,images/simple/82.png,images/simple/45.png,images/simple/96.png","0","0","","600","1218.5800000093877","","",""
"","null","html-keyboard-response","55","70123","0.0-1.0-0.27","SS1602373926146","<img src=images/blank.png width =""500"" height = ""600"" style=""border:5px solid black"">","null","","","","","","","","","","","","","",""
"","548.7350000039442","stimulus-presentation","56","71317","0.0-1.0-1.27","SS1602373926146","","40","<img src='images/complex/90.png' width ='500' height = '600' style='border:5px solid black'>","background","mixed_simple_deviant","images/complex/84.png","images/complex/90.png","images/simple/43.png,images/simple/42.png,images/simple/120.png,images/simple/74.png,images/simple/84.png,images/simple/102.png,images/simple/26.png,images/simple/27.png,images/simple/99.png,images/simple/22.png,images/simple/29.png,images/simple/28.png,images/simple/38.png,images/simple/20.png,images/simple/4.png,images/simple/61.png,images/simple/60.png,images/simple/24.png,images/simple/113.png,images/simple/47.png,images/simple/116.png,images/simple/94.png,images/simple/108.png,images/simple/40.png,images/simple/58.png,images/simple/11.png,images/simple/6.png,images/simple/103.png,images/simple/77.png,images/simple/36.png,images/simple/57.png,images/simple/13.png,images/simple/8.png,images/simple/17.png,images/simple/25.png,images/simple/82.png,images/simple/45.png,images/simple/96.png","0","0","","600","1148.7350000039442","","",""
"","null","html-keyboard-response","57","72309","0.0-1.0-0.28","SS1602373926146","<img src=images/blank.png width =""500"" height = ""600"" style=""border:5px solid black"">","null","","","","","","","","","","","","","",""
"","312.4099999986356","stimulus-presentation","58","73267","0.0-1.0-1.28","SS1602373926146","","40","<img src='images/simple/20.png' width ='500' height = '600' style='border:5px solid black'>","deviant","mixed_simple_deviant","images/complex/84.png","images/complex/90.png","images/simple/43.png,images/simple/42.png,images/simple/120.png,images/simple/74.png,images/simple/84.png,images/simple/102.png,images/simple/26.png,images/simple/27.png,images/simple/99.png,images/simple/22.png,images/simple/29.png,images/simple/28.png,images/simple/38.png,images/simple/20.png,images/simple/4.png,images/simple/61.png,images/simple/60.png,images/simple/24.png,images/simple/113.png,images/simple/47.png,images/simple/116.png,images/simple/94.png,images/simple/108.png,images/simple/40.png,images/simple/58.png,images/simple/11.png,images/simple/6.png,images/simple/103.png,images/simple/77.png,images/simple/36.png,images/simple/57.png,images/simple/13.png,images/simple/8.png,images/simple/17.png,images/simple/25.png,images/simple/82.png,images/simple/45.png,images/simple/96.png","0","0","","600","912.4099999986356","","",""
"","null","html-keyboard-response","59","74293","0.0-1.0-0.29","SS1602373926146","<img src=images/blank.png width =""500"" height = ""600"" style=""border:5px solid black"">","null","","","","","","","","","","","","","",""
"","836.620000001858","stimulus-presentation","60","75775","0.0-1.0-1.29","SS1602373926146","","40","<img src='images/complex/90.png' width ='500' height = '600' style='border:5px solid black'>","background","mixed_simple_deviant","images/complex/84.png","images/complex/90.png","images/simple/43.png,images/simple/42.png,images/simple/120.png,images/simple/74.png,images/simple/84.png,images/simple/102.png,images/simple/26.png,images/simple/27.png,images/simple/99.png,images/simple/22.png,images/simple/29.png,images/simple/28.png,images/simple/38.png,images/simple/20.png,images/simple/4.png,images/simple/61.png,images/simple/60.png,images/simple/24.png,images/simple/113.png,images/simple/47.png,images/simple/116.png,images/simple/94.png,images/simple/108.png,images/simple/40.png,images/simple/58.png,images/simple/11.png,images/simple/6.png,images/simple/103.png,images/simple/77.png,images/simple/36.png,images/simple/57.png,images/simple/13.png,images/simple/8.png,images/simple/17.png,images/simple/25.png,images/simple/82.png,images/simple/45.png,images/simple/96.png","0","0","","600","1436.620000001858","","",""
"","null","html-keyboard-response","61","77010","0.0-1.0-0.30","SS1602373926146","<img src=images/blank.png width =""500"" height = ""600"" style=""border:5px solid black"">","null","","","","","","","","","","","","","",""
"","278.31999999762047","stimulus-presentation","62","77937","0.0-1.0-1.30","SS1602373926146","","40","<img src='images/complex/90.png' width ='500' height = '600' style='border:5px solid black'>","background","mixed_simple_deviant","images/complex/84.png","images/complex/90.png","images/simple/43.png,images/simple/42.png,images/simple/120.png,images/simple/74.png,images/simple/84.png,images/simple/102.png,images/simple/26.png,images/simple/27.png,images/simple/99.png,images/simple/22.png,images/simple/29.png,images/simple/28.png,images/simple/38.png,images/simple/20.png,images/simple/4.png,images/simple/61.png,images/simple/60.png,images/simple/24.png,images/simple/113.png,images/simple/47.png,images/simple/116.png,images/simple/94.png,images/simple/108.png,images/simple/40.png,images/simple/58.png,images/simple/11.png,images/simple/6.png,images/simple/103.png,images/simple/77.png,images/simple/36.png,images/simple/57.png,images/simple/13.png,images/simple/8.png,images/simple/17.png,images/simple/25.png,images/simple/82.png,images/simple/45.png,images/simple/96.png","0","0","","600","878.3199999976205","","",""
"","null","html-keyboard-response","63","78926","0.0-1.0-0.31","SS1602373926146","<img src=images/blank.png width =""500"" height = ""600"" style=""border:5px solid black"">","null","","","","","","","","","","","","","",""
"","80.180000004475","stimulus-presentation","64","79656","0.0-1.0-1.31","SS1602373926146","","40","<img src='images/complex/90.png' width ='500' height = '600' style='border:5px solid black'>","background","mixed_simple_deviant","images/complex/84.png","images/complex/90.png","images/simple/43.png,images/simple/42.png,images/simple/120.png,images/simple/74.png,images/simple/84.png,images/simple/102.png,images/simple/26.png,images/simple/27.png,images/simple/99.png,images/simple/22.png,images/simple/29.png,images/simple/28.png,images/simple/38.png,images/simple/20.png,images/simple/4.png,images/simple/61.png,images/simple/60.png,images/simple/24.png,images/simple/113.png,images/simple/47.png,images/simple/116.png,images/simple/94.png,images/simple/108.png,images/simple/40.png,images/simple/58.png,images/simple/11.png,images/simple/6.png,images/simple/103.png,images/simple/77.png,images/simple/36.png,images/simple/57.png,images/simple/13.png,images/simple/8.png,images/simple/17.png,images/simple/25.png,images/simple/82.png,images/simple/45.png,images/simple/96.png","0","0","","600","680.180000004475","","",""
"","null","html-keyboard-response","65","80894","0.0-1.0-0.32","SS1602373926146","<img src=images/blank.png width =""500"" height = ""600"" style=""border:5px solid black"">","null","","","","","","","","","","","","","",""
"","189.05000000086147","stimulus-presentation","66","81726","0.0-1.0-1.32","SS1602373926146","","40","<img src='images/complex/90.png' width ='500' height = '600' style='border:5px solid black'>","background","mixed_simple_deviant","images/complex/84.png","images/complex/90.png","images/simple/43.png,images/simple/42.png,images/simple/120.png,images/simple/74.png,images/simple/84.png,images/simple/102.png,images/simple/26.png,images/simple/27.png,images/simple/99.png,images/simple/22.png,images/simple/29.png,images/simple/28.png,images/simple/38.png,images/simple/20.png,images/simple/4.png,images/simple/61.png,images/simple/60.png,images/simple/24.png,images/simple/113.png,images/simple/47.png,images/simple/116.png,images/simple/94.png,images/simple/108.png,images/simple/40.png,images/simple/58.png,images/simple/11.png,images/simple/6.png,images/simple/103.png,images/simple/77.png,images/simple/36.png,images/simple/57.png,images/simple/13.png,images/simple/8.png,images/simple/17.png,images/simple/25.png,images/simple/82.png,images/simple/45.png,images/simple/96.png","0","0","","600","789.0500000008615","","",""
"","null","html-keyboard-response","67","82943","0.0-1.0-0.33","SS1602373926146","<img src=images/blank.png width =""500"" height = ""600"" style=""border:5px solid black"">","null","","","","","","","","","","","","","",""
"","156.27500000118744","stimulus-presentation","68","83750","0.0-1.0-1.33","SS1602373926146","","40","<img src='images/complex/90.png' width ='500' height = '600' style='border:5px solid black'>","background","mixed_simple_deviant","images/complex/84.png","images/complex/90.png","images/simple/43.png,images/simple/42.png,images/simple/120.png,images/simple/74.png,images/simple/84.png,images/simple/102.png,images/simple/26.png,images/simple/27.png,images/simple/99.png,images/simple/22.png,images/simple/29.png,images/simple/28.png,images/simple/38.png,images/simple/20.png,images/simple/4.png,images/simple/61.png,images/simple/60.png,images/simple/24.png,images/simple/113.png,images/simple/47.png,images/simple/116.png,images/simple/94.png,images/simple/108.png,images/simple/40.png,images/simple/58.png,images/simple/11.png,images/simple/6.png,images/simple/103.png,images/simple/77.png,images/simple/36.png,images/simple/57.png,images/simple/13.png,images/simple/8.png,images/simple/17.png,images/simple/25.png,images/simple/82.png,images/simple/45.png,images/simple/96.png","0","0","","600","756.2750000011874","","",""
"","null","html-keyboard-response","69","84705","0.0-1.0-0.34","SS1602373926146","<img src=images/blank.png width =""500"" height = ""600"" style=""border:5px solid black"">","null","","","","","","","","","","","","","",""
"","124.42000000737607","stimulus-presentation","70","85480","0.0-1.0-1.34","SS1602373926146","","40","<img src='images/complex/90.png' width ='500' height = '600' style='border:5px solid black'>","background","mixed_simple_deviant","images/complex/84.png","images/complex/90.png","images/simple/43.png,images/simple/42.png,images/simple/120.png,images/simple/74.png,images/simple/84.png,images/simple/102.png,images/simple/26.png,images/simple/27.png,images/simple/99.png,images/simple/22.png,images/simple/29.png,images/simple/28.png,images/simple/38.png,images/simple/20.png,images/simple/4.png,images/simple/61.png,images/simple/60.png,images/simple/24.png,images/simple/113.png,images/simple/47.png,images/simple/116.png,images/simple/94.png,images/simple/108.png,images/simple/40.png,images/simple/58.png,images/simple/11.png,images/simple/6.png,images/simple/103.png,images/simple/77.png,images/simple/36.png,images/simple/57.png,images/simple/13.png,images/simple/8.png,images/simple/17.png,images/simple/25.png,images/simple/82.png,images/simple/45.png,images/simple/96.png","0","0","","600","724.4200000073761","","",""
"","null","html-keyboard-response","71","86646","0.0-1.0-0.35","SS1602373926146","<img src=images/blank.png width =""500"" height = ""600"" style=""border:5px solid black"">","null","","","","","","","","","","","","","",""
"","1131.95499998983","stimulus-presentation","72","88426","0.0-1.0-1.35","SS1602373926146","","40","<img src='images/complex/84.png' width ='500' height = '600' style='border:5px solid black'>","target","mixed_simple_deviant","images/complex/84.png","images/complex/90.png","images/simple/43.png,images/simple/42.png,images/simple/120.png,images/simple/74.png,images/simple/84.png,images/simple/102.png,images/simple/26.png,images/simple/27.png,images/simple/99.png,images/simple/22.png,images/simple/29.png,images/simple/28.png,images/simple/38.png,images/simple/20.png,images/simple/4.png,images/simple/61.png,images/simple/60.png,images/simple/24.png,images/simple/113.png,images/simple/47.png,images/simple/116.png,images/simple/94.png,images/simple/108.png,images/simple/40.png,images/simple/58.png,images/simple/11.png,images/simple/6.png,images/simple/103.png,images/simple/77.png,images/simple/36.png,images/simple/57.png,images/simple/13.png,images/simple/8.png,images/simple/17.png,images/simple/25.png,images/simple/82.png,images/simple/45.png,images/simple/96.png","0","0","","600","1731.95499998983","305.9499999944819","",""
"","null","html-keyboard-response","73","89369","0.0-1.0-0.36","SS1602373926146","<img src=images/blank.png width =""500"" height = ""600"" style=""border:5px solid black"">","null","","","","","","","","","","","","","",""
"","136.21499999135267","stimulus-presentation","74","90158","0.0-1.0-1.36","SS1602373926146","","40","<img src='images/complex/90.png' width ='500' height = '600' style='border:5px solid black'>","background","mixed_simple_deviant","images/complex/84.png","images/complex/90.png","images/simple/43.png,images/simple/42.png,images/simple/120.png,images/simple/74.png,images/simple/84.png,images/simple/102.png,images/simple/26.png,images/simple/27.png,images/simple/99.png,images/simple/22.png,images/simple/29.png,images/simple/28.png,images/simple/38.png,images/simple/20.png,images/simple/4.png,images/simple/61.png,images/simple/60.png,images/simple/24.png,images/simple/113.png,images/simple/47.png,images/simple/116.png,images/simple/94.png,images/simple/108.png,images/simple/40.png,images/simple/58.png,images/simple/11.png,images/simple/6.png,images/simple/103.png,images/simple/77.png,images/simple/36.png,images/simple/57.png,images/simple/13.png,images/simple/8.png,images/simple/17.png,images/simple/25.png,images/simple/82.png,images/simple/45.png,images/simple/96.png","0","0","","600","736.2149999913527","","",""
"","null","html-keyboard-response","75","91146","0.0-1.0-0.37","SS1602373926146","<img src=images/blank.png width =""500"" height = ""600"" style=""border:5px solid black"">","null","","","","","","","","","","","","","",""
"","1001.4800000062678","stimulus-presentation","76","92800","0.0-1.0-1.37","SS1602373926146","","40","<img src='images/simple/8.png' width ='500' height = '600' style='border:5px solid black'>","deviant","mixed_simple_deviant","images/complex/84.png","images/complex/90.png","images/simple/43.png,images/simple/42.png,images/simple/120.png,images/simple/74.png,images/simple/84.png,images/simple/102.png,images/simple/26.png,images/simple/27.png,images/simple/99.png,images/simple/22.png,images/simple/29.png,images/simple/28.png,images/simple/38.png,images/simple/20.png,images/simple/4.png,images/simple/61.png,images/simple/60.png,images/simple/24.png,images/simple/113.png,images/simple/47.png,images/simple/116.png,images/simple/94.png,images/simple/108.png,images/simple/40.png,images/simple/58.png,images/simple/11.png,images/simple/6.png,images/simple/103.png,images/simple/77.png,images/simple/36.png,images/simple/57.png,images/simple/13.png,images/simple/8.png,images/simple/17.png,images/simple/25.png,images/simple/82.png,images/simple/45.png,images/simple/96.png","0","0","","600","1601.4800000062678","","",""
"","null","html-keyboard-response","77","93937","0.0-1.0-0.38","SS1602373926146","<img src=images/blank.png width =""500"" height = ""600"" style=""border:5px solid black"">","null","","","","","","","","","","","","","",""
"","18.265000006067567","stimulus-presentation","78","94612","0.0-1.0-1.38","SS1602373926146","","40","<img src='images/complex/90.png' width ='500' height = '600' style='border:5px solid black'>","background","mixed_simple_deviant","images/complex/84.png","images/complex/90.png","images/simple/43.png,images/simple/42.png,images/simple/120.png,images/simple/74.png,images/simple/84.png,images/simple/102.png,images/simple/26.png,images/simple/27.png,images/simple/99.png,images/simple/22.png,images/simple/29.png,images/simple/28.png,images/simple/38.png,images/simple/20.png,images/simple/4.png,images/simple/61.png,images/simple/60.png,images/simple/24.png,images/simple/113.png,images/simple/47.png,images/simple/116.png,images/simple/94.png,images/simple/108.png,images/simple/40.png,images/simple/58.png,images/simple/11.png,images/simple/6.png,images/simple/103.png,images/simple/77.png,images/simple/36.png,images/simple/57.png,images/simple/13.png,images/simple/8.png,images/simple/17.png,images/simple/25.png,images/simple/82.png,images/simple/45.png,images/simple/96.png","0","0","","600","618.2650000060676","","",""
"","null","html-keyboard-response","79","95531","0.0-1.0-0.39","SS1602373926146","<img src=images/blank.png width =""500"" height = ""600"" style=""border:5px solid black"">","null","","","","","","","","","","","","","",""
"","1185.7299999974202","stimulus-presentation","80","97368","0.0-1.0-1.39","SS1602373926146","","40","<img src='images/complex/84.png' width ='500' height = '600' style='border:5px solid black'>","target","mixed_simple_deviant","images/complex/84.png","images/complex/90.png","images/simple/43.png,images/simple/42.png,images/simple/120.png,images/simple/74.png,images/simple/84.png,images/simple/102.png,images/simple/26.png,images/simple/27.png,images/simple/99.png,images/simple/22.png,images/simple/29.png,images/simple/28.png,images/simple/38.png,images/simple/20.png,images/simple/4.png,images/simple/61.png,images/simple/60.png,images/simple/24.png,images/simple/113.png,images/simple/47.png,images/simple/116.png,images/simple/94.png,images/simple/108.png,images/simple/40.png,images/simple/58.png,images/simple/11.png,images/simple/6.png,images/simple/103.png,images/simple/77.png,images/simple/36.png,images/simple/57.png,images/simple/13.png,images/simple/8.png,images/simple/17.png,images/simple/25.png,images/simple/82.png,images/simple/45.png,images/simple/96.png","0","0","","600","1785.7299999974202","454.76000000780914","",""
"","null","html-keyboard-response","81","98646","0.0-1.0-0.40","SS1602373926146","<img src=images/blank.png width =""500"" height = ""600"" style=""border:5px solid black"">","null","","","","","","","","","","","","","",""
"","328.269999998156","stimulus-presentation","82","99631","0.0-1.0-1.40","SS1602373926146","","40","<img src='images/complex/90.png' width ='500' height = '600' style='border:5px solid black'>","background","mixed_simple_deviant","images/complex/84.png","images/complex/90.png","images/simple/43.png,images/simple/42.png,images/simple/120.png,images/simple/74.png,images/simple/84.png,images/simple/102.png,images/simple/26.png,images/simple/27.png,images/simple/99.png,images/simple/22.png,images/simple/29.png,images/simple/28.png,images/simple/38.png,images/simple/20.png,images/simple/4.png,images/simple/61.png,images/simple/60.png,images/simple/24.png,images/simple/113.png,images/simple/47.png,images/simple/116.png,images/simple/94.png,images/simple/108.png,images/simple/40.png,images/simple/58.png,images/simple/11.png,images/simple/6.png,images/simple/103.png,images/simple/77.png,images/simple/36.png,images/simple/57.png,images/simple/13.png,images/simple/8.png,images/simple/17.png,images/simple/25.png,images/simple/82.png,images/simple/45.png,images/simple/96.png","0","0","","600","928.269999998156","","",""
"","null","html-keyboard-response","83","100493","0.0-1.0-0.41","SS1602373926146","<img src=images/blank.png width =""500"" height = ""600"" style=""border:5px solid black"">","null","","","","","","","","","","","","","",""
"","104.6900000073947","stimulus-presentation","84","101247","0.0-1.0-1.41","SS1602373926146","","40","<img src='images/complex/90.png' width ='500' height = '600' style='border:5px solid black'>","background","mixed_simple_deviant","images/complex/84.png","images/complex/90.png","images/simple/43.png,images/simple/42.png,images/simple/120.png,images/simple/74.png,images/simple/84.png,images/simple/102.png,images/simple/26.png,images/simple/27.png,images/simple/99.png,images/simple/22.png,images/simple/29.png,images/simple/28.png,images/simple/38.png,images/simple/20.png,images/simple/4.png,images/simple/61.png,images/simple/60.png,images/simple/24.png,images/simple/113.png,images/simple/47.png,images/simple/116.png,images/simple/94.png,images/simple/108.png,images/simple/40.png,images/simple/58.png,images/simple/11.png,images/simple/6.png,images/simple/103.png,images/simple/77.png,images/simple/36.png,images/simple/57.png,images/simple/13.png,images/simple/8.png,images/simple/17.png,images/simple/25.png,images/simple/82.png,images/simple/45.png,images/simple/96.png","0","0","","600","704.6900000073947","","",""
"","null","html-keyboard-response","85","102297","0.0-1.0-0.42","SS1602373926146","<img src=images/blank.png width =""500"" height = ""600"" style=""border:5px solid black"">","null","","","","","","","","","","","","","",""
"","1724.1749999957392","stimulus-presentation","86","104680","0.0-1.0-1.42","SS1602373926146","","40","<img src='images/complex/84.png' width ='500' height = '600' style='border:5px solid black'>","target","mixed_simple_deviant","images/complex/84.png","images/complex/90.png","images/simple/43.png,images/simple/42.png,images/simple/120.png,images/simple/74.png,images/simple/84.png,images/simple/102.png,images/simple/26.png,images/simple/27.png,images/simple/99.png,images/simple/22.png,images/simple/29.png,images/simple/28.png,images/simple/38.png,images/simple/20.png,images/simple/4.png,images/simple/61.png,images/simple/60.png,images/simple/24.png,images/simple/113.png,images/simple/47.png,images/simple/116.png,images/simple/94.png,images/simple/108.png,images/simple/40.png,images/simple/58.png,images/simple/11.png,images/simple/6.png,images/simple/103.png,images/simple/77.png,images/simple/36.png,images/simple/57.png,images/simple/13.png,images/simple/8.png,images/simple/17.png,images/simple/25.png,images/simple/82.png,images/simple/45.png,images/simple/96.png","0","0","","600","2324.174999995739","970.2299999917159","",""
"","null","html-keyboard-response","87","105814","0.0-1.0-0.43","SS1602373926146","<img src=images/blank.png width =""500"" height = ""600"" style=""border:5px solid black"">","null","","","","","","","","","","","","","",""
"","710.2699999959441","stimulus-presentation","88","107184","0.0-1.0-1.43","SS1602373926146","","40","<img src='images/simple/22.png' width ='500' height = '600' style='border:5px solid black'>","deviant","mixed_simple_deviant","images/complex/84.png","images/complex/90.png","images/simple/43.png,images/simple/42.png,images/simple/120.png,images/simple/74.png,images/simple/84.png,images/simple/102.png,images/simple/26.png,images/simple/27.png,images/simple/99.png,images/simple/22.png,images/simple/29.png,images/simple/28.png,images/simple/38.png,images/simple/20.png,images/simple/4.png,images/simple/61.png,images/simple/60.png,images/simple/24.png,images/simple/113.png,images/simple/47.png,images/simple/116.png,images/simple/94.png,images/simple/108.png,images/simple/40.png,images/simple/58.png,images/simple/11.png,images/simple/6.png,images/simple/103.png,images/simple/77.png,images/simple/36.png,images/simple/57.png,images/simple/13.png,images/simple/8.png,images/simple/17.png,images/simple/25.png,images/simple/82.png,images/simple/45.png,images/simple/96.png","0","0","","600","1310.269999995944","167.025000002468","",""
"","null","html-keyboard-response","89","108512","0.0-1.0-0.44","SS1602373926146","<img src=images/blank.png width =""500"" height = ""600"" style=""border:5px solid black"">","null","","","","","","","","","","","","","",""
"","714.5449999952689","stimulus-presentation","90","109886","0.0-1.0-1.44","SS1602373926146","","40","<img src='images/complex/90.png' width ='500' height = '600' style='border:5px solid black'>","background","mixed_simple_deviant","images/complex/84.png","images/complex/90.png","images/simple/43.png,images/simple/42.png,images/simple/120.png,images/simple/74.png,images/simple/84.png,images/simple/102.png,images/simple/26.png,images/simple/27.png,images/simple/99.png,images/simple/22.png,images/simple/29.png,images/simple/28.png,images/simple/38.png,images/simple/20.png,images/simple/4.png,images/simple/61.png,images/simple/60.png,images/simple/24.png,images/simple/113.png,images/simple/47.png,images/simple/116.png,images/simple/94.png,images/simple/108.png,images/simple/40.png,images/simple/58.png,images/simple/11.png,images/simple/6.png,images/simple/103.png,images/simple/77.png,images/simple/36.png,images/simple/57.png,images/simple/13.png,images/simple/8.png,images/simple/17.png,images/simple/25.png,images/simple/82.png,images/simple/45.png,images/simple/96.png","0","0","","600","1314.5449999952689","","",""
"","null","html-keyboard-response","91","111001","0.0-1.0-0.45","SS1602373926146","<img src=images/blank.png width =""500"" height = ""600"" style=""border:5px solid black"">","null","","","","","","","","","","","","","",""
"","145.32499999040738","stimulus-presentation","92","111808","0.0-1.0-1.45","SS1602373926146","","40","<img src='images/complex/90.png' width ='500' height = '600' style='border:5px solid black'>","background","mixed_simple_deviant","images/complex/84.png","images/complex/90.png","images/simple/43.png,images/simple/42.png,images/simple/120.png,images/simple/74.png,images/simple/84.png,images/simple/102.png,images/simple/26.png,images/simple/27.png,images/simple/99.png,images/simple/22.png,images/simple/29.png,images/simple/28.png,images/simple/38.png,images/simple/20.png,images/simple/4.png,images/simple/61.png,images/simple/60.png,images/simple/24.png,images/simple/113.png,images/simple/47.png,images/simple/116.png,images/simple/94.png,images/simple/108.png,images/simple/40.png,images/simple/58.png,images/simple/11.png,images/simple/6.png,images/simple/103.png,images/simple/77.png,images/simple/36.png,images/simple/57.png,images/simple/13.png,images/simple/8.png,images/simple/17.png,images/simple/25.png,images/simple/82.png,images/simple/45.png,images/simple/96.png","0","0","","600","745.3249999904074","","",""
"","null","html-keyboard-response","93","112957","0.0-1.0-0.46","SS1602373926146","<img src=images/blank.png width =""500"" height = ""600"" style=""border:5px solid black"">","null","","","","","","","","","","","","","",""
"","343.31500000553206","stimulus-presentation","94","113966","0.0-1.0-1.46","SS1602373926146","","40","<img src='images/simple/25.png' width ='500' height = '600' style='border:5px solid black'>","deviant","mixed_simple_deviant","images/complex/84.png","images/complex/90.png","images/simple/43.png,images/simple/42.png,images/simple/120.png,images/simple/74.png,images/simple/84.png,images/simple/102.png,images/simple/26.png,images/simple/27.png,images/simple/99.png,images/simple/22.png,images/simple/29.png,images/simple/28.png,images/simple/38.png,images/simple/20.png,images/simple/4.png,images/simple/61.png,images/simple/60.png,images/simple/24.png,images/simple/113.png,images/simple/47.png,images/simple/116.png,images/simple/94.png,images/simple/108.png,images/simple/40.png,images/simple/58.png,images/simple/11.png,images/simple/6.png,images/simple/103.png,images/simple/77.png,images/simple/36.png,images/simple/57.png,images/simple/13.png,images/simple/8.png,images/simple/17.png,images/simple/25.png,images/simple/82.png,images/simple/45.png,images/simple/96.png","0","0","","600","943.315000005532","","",""
"","null","html-keyboard-response","95","115190","0.0-1.0-0.47","SS1602373926146","<img src=images/blank.png width =""500"" height = ""600"" style=""border:5px solid black"">","null","","","","","","","","","","","","","",""
"","57.61000000347849","stimulus-presentation","96","115910","0.0-1.0-1.47","SS1602373926146","","40","<img src='images/complex/90.png' width ='500' height = '600' style='border:5px solid black'>","background","mixed_simple_deviant","images/complex/84.png","images/complex/90.png","images/simple/43.png,images/simple/42.png,images/simple/120.png,images/simple/74.png,images/simple/84.png,images/simple/102.png,images/simple/26.png,images/simple/27.png,images/simple/99.png,images/simple/22.png,images/simple/29.png,images/simple/28.png,images/simple/38.png,images/simple/20.png,images/simple/4.png,images/simple/61.png,images/simple/60.png,images/simple/24.png,images/simple/113.png,images/simple/47.png,images/simple/116.png,images/simple/94.png,images/simple/108.png,images/simple/40.png,images/simple/58.png,images/simple/11.png,images/simple/6.png,images/simple/103.png,images/simple/77.png,images/simple/36.png,images/simple/57.png,images/simple/13.png,images/simple/8.png,images/simple/17.png,images/simple/25.png,images/simple/82.png,images/simple/45.png,images/simple/96.png","0","0","","600","657.6100000034785","","",""
"","null","html-keyboard-response","97","117126","0.0-1.0-0.48","SS1602373926146","<img src=images/blank.png width =""500"" height = ""600"" style=""border:5px solid black"">","null","","","","","","","","","","","","","",""
"","1089.0250000084052","stimulus-presentation","98","118880","0.0-1.0-1.48","SS1602373926146","","40","<img src='images/complex/84.png' width ='500' height = '600' style='border:5px solid black'>","target","mixed_simple_deviant","images/complex/84.png","images/complex/90.png","images/simple/43.png,images/simple/42.png,images/simple/120.png,images/simple/74.png,images/simple/84.png,images/simple/102.png,images/simple/26.png,images/simple/27.png,images/simple/99.png,images/simple/22.png,images/simple/29.png,images/simple/28.png,images/simple/38.png,images/simple/20.png,images/simple/4.png,images/simple/61.png,images/simple/60.png,images/simple/24.png,images/simple/113.png,images/simple/47.png,images/simple/116.png,images/simple/94.png,images/simple/108.png,images/simple/40.png,images/simple/58.png,images/simple/11.png,images/simple/6.png,images/simple/103.png,images/simple/77.png,images/simple/36.png,images/simple/57.png,images/simple/13.png,images/simple/8.png,images/simple/17.png,images/simple/25.png,images/simple/82.png,images/simple/45.png,images/simple/96.png","0","0","","600","1689.0250000084052","400.39000000979286","",""
"","null","html-keyboard-response","99","120126","0.0-1.0-0.49","SS1602373926146","<img src=images/blank.png width =""500"" height = ""600"" style=""border:5px solid black"">","null","","","","","","","","","","","","","",""
"","377.3849999997765","stimulus-presentation","100","121168","0.0-1.0-1.49","SS1602373926146","","40","<img src='images/complex/90.png' width ='500' height = '600' style='border:5px solid black'>","background","mixed_simple_deviant","images/complex/84.png","images/complex/90.png","images/simple/43.png,images/simple/42.png,images/simple/120.png,images/simple/74.png,images/simple/84.png,images/simple/102.png,images/simple/26.png,images/simple/27.png,images/simple/99.png,images/simple/22.png,images/simple/29.png,images/simple/28.png,images/simple/38.png,images/simple/20.png,images/simple/4.png,images/simple/61.png,images/simple/60.png,images/simple/24.png,images/simple/113.png,images/simple/47.png,images/simple/116.png,images/simple/94.png,images/simple/108.png,images/simple/40.png,images/simple/58.png,images/simple/11.png,images/simple/6.png,images/simple/103.png,images/simple/77.png,images/simple/36.png,images/simple/57.png,images/simple/13.png,images/simple/8.png,images/simple/17.png,images/simple/25.png,images/simple/82.png,images/simple/45.png,images/simple/96.png","0","0","","600","977.3849999997765","","",""
"","null","html-keyboard-response","101","122230","0.0-2.0","SS1602373926146","here's the 1 break block!","null","","","","","","","","","","","","","",""
"","null","html-keyboard-response","102","123532","0.0-3.0-0.0","SS1602373926146","<img src=images/blank.png width =""500"" height = ""600"" style=""border:5px solid black"">","null","","","","","","","","","","","","","",""
"","913.2050000043819","stimulus-presentation","103","125096","0.0-3.0-1.0","SS1602373926146","","40","<img src='images/simple/4.png' width ='500' height = '600' style='border:5px solid black'>","deviant","mixed_simple_deviant","images/complex/84.png","images/complex/90.png","images/simple/43.png,images/simple/42.png,images/simple/120.png,images/simple/74.png,images/simple/84.png,images/simple/102.png,images/simple/26.png,images/simple/27.png,images/simple/99.png,images/simple/22.png,images/simple/29.png,images/simple/28.png,images/simple/38.png,images/simple/20.png,images/simple/4.png,images/simple/61.png,images/simple/60.png,images/simple/24.png,images/simple/113.png,images/simple/47.png,images/simple/116.png,images/simple/94.png,images/simple/108.png,images/simple/40.png,images/simple/58.png,images/simple/11.png,images/simple/6.png,images/simple/103.png,images/simple/77.png,images/simple/36.png,images/simple/57.png,images/simple/13.png,images/simple/8.png,images/simple/17.png,images/simple/25.png,images/simple/82.png,images/simple/45.png,images/simple/96.png","0","1","","600","1513.2050000043819","","",""
"","null","html-keyboard-response","104","126125","0.0-3.0-0.1","SS1602373926146","<img src=images/blank.png width =""500"" height = ""600"" style=""border:5px solid black"">","null","","","","","","","","","","","","","",""
"","65.39999999222346","stimulus-presentation","105","126856","0.0-3.0-1.1","SS1602373926146","","40","<img src='images/complex/90.png' width ='500' height = '600' style='border:5px solid black'>","background","mixed_simple_deviant","images/complex/84.png","images/complex/90.png","images/simple/43.png,images/simple/42.png,images/simple/120.png,images/simple/74.png,images/simple/84.png,images/simple/102.png,images/simple/26.png,images/simple/27.png,images/simple/99.png,images/simple/22.png,images/simple/29.png,images/simple/28.png,images/simple/38.png,images/simple/20.png,images/simple/4.png,images/simple/61.png,images/simple/60.png,images/simple/24.png,images/simple/113.png,images/simple/47.png,images/simple/116.png,images/simple/94.png,images/simple/108.png,images/simple/40.png,images/simple/58.png,images/simple/11.png,images/simple/6.png,images/simple/103.png,images/simple/77.png,images/simple/36.png,images/simple/57.png,images/simple/13.png,images/simple/8.png,images/simple/17.png,images/simple/25.png,images/simple/82.png,images/simple/45.png,images/simple/96.png","0","1","","600","665.3999999922235","","",""
"","null","html-keyboard-response","106","127969","0.0-3.0-0.2","SS1602373926146","<img src=images/blank.png width =""500"" height = ""600"" style=""border:5px solid black"">","null","","","","","","","","","","","","","",""
"","309.89999999292195","stimulus-presentation","107","128944","0.0-3.0-1.2","SS1602373926146","","40","<img src='images/complex/90.png' width ='500' height = '600' style='border:5px solid black'>","background","mixed_simple_deviant","images/complex/84.png","images/complex/90.png","images/simple/43.png,images/simple/42.png,images/simple/120.png,images/simple/74.png,images/simple/84.png,images/simple/102.png,images/simple/26.png,images/simple/27.png,images/simple/99.png,images/simple/22.png,images/simple/29.png,images/simple/28.png,images/simple/38.png,images/simple/20.png,images/simple/4.png,images/simple/61.png,images/simple/60.png,images/simple/24.png,images/simple/113.png,images/simple/47.png,images/simple/116.png,images/simple/94.png,images/simple/108.png,images/simple/40.png,images/simple/58.png,images/simple/11.png,images/simple/6.png,images/simple/103.png,images/simple/77.png,images/simple/36.png,images/simple/57.png,images/simple/13.png,images/simple/8.png,images/simple/17.png,images/simple/25.png,images/simple/82.png,images/simple/45.png,images/simple/96.png","0","1","","600","909.899999992922","","",""
"","null","html-keyboard-response","108","130145","0.0-3.0-0.3","SS1602373926146","<img src=images/blank.png width =""500"" height = ""600"" style=""border:5px solid black"">","null","","","","","","","","","","","","","",""
"","340.87499999441206","stimulus-presentation","109","131151","0.0-3.0-1.3","SS1602373926146","","40","<img src='images/complex/90.png' width ='500' height = '600' style='border:5px solid black'>","background","mixed_simple_deviant","images/complex/84.png","images/complex/90.png","images/simple/43.png,images/simple/42.png,images/simple/120.png,images/simple/74.png,images/simple/84.png,images/simple/102.png,images/simple/26.png,images/simple/27.png,images/simple/99.png,images/simple/22.png,images/simple/29.png,images/simple/28.png,images/simple/38.png,images/simple/20.png,images/simple/4.png,images/simple/61.png,images/simple/60.png,images/simple/24.png,images/simple/113.png,images/simple/47.png,images/simple/116.png,images/simple/94.png,images/simple/108.png,images/simple/40.png,images/simple/58.png,images/simple/11.png,images/simple/6.png,images/simple/103.png,images/simple/77.png,images/simple/36.png,images/simple/57.png,images/simple/13.png,images/simple/8.png,images/simple/17.png,images/simple/25.png,images/simple/82.png,images/simple/45.png,images/simple/96.png","0","1","","600","940.8749999944121","","",""
"","null","html-keyboard-response","110","132308","0.0-3.0-0.4","SS1602373926146","<img src=images/blank.png width =""500"" height = ""600"" style=""border:5px solid black"">","null","","","","","","","","","","","","","",""
"","385.39500000479165","stimulus-presentation","111","133361","0.0-3.0-1.4","SS1602373926146","","40","<img src='images/complex/90.png' width ='500' height = '600' style='border:5px solid black'>","background","mixed_simple_deviant","images/complex/84.png","images/complex/90.png","images/simple/43.png,images/simple/42.png,images/simple/120.png,images/simple/74.png,images/simple/84.png,images/simple/102.png,images/simple/26.png,images/simple/27.png,images/simple/99.png,images/simple/22.png,images/simple/29.png,images/simple/28.png,images/simple/38.png,images/simple/20.png,images/simple/4.png,images/simple/61.png,images/simple/60.png,images/simple/24.png,images/simple/113.png,images/simple/47.png,images/simple/116.png,images/simple/94.png,images/simple/108.png,images/simple/40.png,images/simple/58.png,images/simple/11.png,images/simple/6.png,images/simple/103.png,images/simple/77.png,images/simple/36.png,images/simple/57.png,images/simple/13.png,images/simple/8.png,images/simple/17.png,images/simple/25.png,images/simple/82.png,images/simple/45.png,images/simple/96.png","0","1","","600","985.3950000047917","","",""
"","null","html-keyboard-response","112","134396","0.0-3.0-0.5","SS1602373926146","<img src=images/blank.png width =""500"" height = ""600"" style=""border:5px solid black"">","null","","","","","","","","","","","","","",""
"","367.04500000632834","stimulus-presentation","113","135421","0.0-3.0-1.5","SS1602373926146","","40","<img src='images/simple/99.png' width ='500' height = '600' style='border:5px solid black'>","deviant","mixed_simple_deviant","images/complex/84.png","images/complex/90.png","images/simple/43.png,images/simple/42.png,images/simple/120.png,images/simple/74.png,images/simple/84.png,images/simple/102.png,images/simple/26.png,images/simple/27.png,images/simple/99.png,images/simple/22.png,images/simple/29.png,images/simple/28.png,images/simple/38.png,images/simple/20.png,images/simple/4.png,images/simple/61.png,images/simple/60.png,images/simple/24.png,images/simple/113.png,images/simple/47.png,images/simple/116.png,images/simple/94.png,images/simple/108.png,images/simple/40.png,images/simple/58.png,images/simple/11.png,images/simple/6.png,images/simple/103.png,images/simple/77.png,images/simple/36.png,images/simple/57.png,images/simple/13.png,images/simple/8.png,images/simple/17.png,images/simple/25.png,images/simple/82.png,images/simple/45.png,images/simple/96.png","0","1","","600","967.0450000063283","","",""
"","null","html-keyboard-response","114","136576","0.0-3.0-0.6","SS1602373926146","<img src=images/blank.png width =""500"" height = ""600"" style=""border:5px solid black"">","null","","","","","","","","","","","","","",""
"","23.32499998738058","stimulus-presentation","115","137262","0.0-3.0-1.6","SS1602373926146","","40","<img src='images/complex/90.png' width ='500' height = '600' style='border:5px solid black'>","background","mixed_simple_deviant","images/complex/84.png","images/complex/90.png","images/simple/43.png,images/simple/42.png,images/simple/120.png,images/simple/74.png,images/simple/84.png,images/simple/102.png,images/simple/26.png,images/simple/27.png,images/simple/99.png,images/simple/22.png,images/simple/29.png,images/simple/28.png,images/simple/38.png,images/simple/20.png,images/simple/4.png,images/simple/61.png,images/simple/60.png,images/simple/24.png,images/simple/113.png,images/simple/47.png,images/simple/116.png,images/simple/94.png,images/simple/108.png,images/simple/40.png,images/simple/58.png,images/simple/11.png,images/simple/6.png,images/simple/103.png,images/simple/77.png,images/simple/36.png,images/simple/57.png,images/simple/13.png,images/simple/8.png,images/simple/17.png,images/simple/25.png,images/simple/82.png,images/simple/45.png,images/simple/96.png","0","1","","600","623.3249999873806","","",""
"","null","html-keyboard-response","116","138204","0.0-3.0-0.7","SS1602373926146","<img src=images/blank.png width =""500"" height = ""600"" style=""border:5px solid black"">","null","","","","","","","","","","","","","",""
"","26.36499999789521","stimulus-presentation","117","138902","0.0-3.0-1.7","SS1602373926146","","40","<img src='images/complex/90.png' width ='500' height = '600' style='border:5px solid black'>","background","mixed_simple_deviant","images/complex/84.png","images/complex/90.png","images/simple/43.png,images/simple/42.png,images/simple/120.png,images/simple/74.png,images/simple/84.png,images/simple/102.png,images/simple/26.png,images/simple/27.png,images/simple/99.png,images/simple/22.png,images/simple/29.png,images/simple/28.png,images/simple/38.png,images/simple/20.png,images/simple/4.png,images/simple/61.png,images/simple/60.png,images/simple/24.png,images/simple/113.png,images/simple/47.png,images/simple/116.png,images/simple/94.png,images/simple/108.png,images/simple/40.png,images/simple/58.png,images/simple/11.png,images/simple/6.png,images/simple/103.png,images/simple/77.png,images/simple/36.png,images/simple/57.png,images/simple/13.png,images/simple/8.png,images/simple/17.png,images/simple/25.png,images/simple/82.png,images/simple/45.png,images/simple/96.png","0","1","","600","626.3649999978952","","",""
"","null","html-keyboard-response","118","139855","0.0-3.0-0.8","SS1602373926146","<img src=images/blank.png width =""500"" height = ""600"" style=""border:5px solid black"">","null","","","","","","","","","","","","","",""
"","340.33000000636093","stimulus-presentation","119","140865","0.0-3.0-1.8","SS1602373926146","","40","<img src='images/complex/90.png' width ='500' height = '600' style='border:5px solid black'>","background","mixed_simple_deviant","images/complex/84.png","images/complex/90.png","images/simple/43.png,images/simple/42.png,images/simple/120.png,images/simple/74.png,images/simple/84.png,images/simple/102.png,images/simple/26.png,images/simple/27.png,images/simple/99.png,images/simple/22.png,images/simple/29.png,images/simple/28.png,images/simple/38.png,images/simple/20.png,images/simple/4.png,images/simple/61.png,images/simple/60.png,images/simple/24.png,images/simple/113.png,images/simple/47.png,images/simple/116.png,images/simple/94.png,images/simple/108.png,images/simple/40.png,images/simple/58.png,images/simple/11.png,images/simple/6.png,images/simple/103.png,images/simple/77.png,images/simple/36.png,images/simple/57.png,images/simple/13.png,images/simple/8.png,images/simple/17.png,images/simple/25.png,images/simple/82.png,images/simple/45.png,images/simple/96.png","0","1","","600","940.3300000063609","","",""
"","null","html-keyboard-response","120","141788","0.0-3.0-0.9","SS1602373926146","<img src=images/blank.png width =""500"" height = ""600"" style=""border:5px solid black"">","null","","","","","","","","","","","","","",""
"","77.39000000583474","stimulus-presentation","121","142537","0.0-3.0-1.9","SS1602373926146","","40","<img src='images/complex/90.png' width ='500' height = '600' style='border:5px solid black'>","background","mixed_simple_deviant","images/complex/84.png","images/complex/90.png","images/simple/43.png,images/simple/42.png,images/simple/120.png,images/simple/74.png,images/simple/84.png,images/simple/102.png,images/simple/26.png,images/simple/27.png,images/simple/99.png,images/simple/22.png,images/simple/29.png,images/simple/28.png,images/simple/38.png,images/simple/20.png,images/simple/4.png,images/simple/61.png,images/simple/60.png,images/simple/24.png,images/simple/113.png,images/simple/47.png,images/simple/116.png,images/simple/94.png,images/simple/108.png,images/simple/40.png,images/simple/58.png,images/simple/11.png,images/simple/6.png,images/simple/103.png,images/simple/77.png,images/simple/36.png,images/simple/57.png,images/simple/13.png,images/simple/8.png,images/simple/17.png,images/simple/25.png,images/simple/82.png,images/simple/45.png,images/simple/96.png","0","1","","600","677.3900000058347","","",""
"","null","html-keyboard-response","122","143846","0.0-3.0-0.10","SS1602373926146","<img src=images/blank.png width =""500"" height = ""600"" style=""border:5px solid black"">","null","","","","","","","","","","","","","",""
"","536.179999995511","stimulus-presentation","123","145056","0.0-3.0-1.10","SS1602373926146","","40","<img src='images/complex/90.png' width ='500' height = '600' style='border:5px solid black'>","background","mixed_simple_deviant","images/complex/84.png","images/complex/90.png","images/simple/43.png,images/simple/42.png,images/simple/120.png,images/simple/74.png,images/simple/84.png,images/simple/102.png,images/simple/26.png,images/simple/27.png,images/simple/99.png,images/simple/22.png,images/simple/29.png,images/simple/28.png,images/simple/38.png,images/simple/20.png,images/simple/4.png,images/simple/61.png,images/simple/60.png,images/simple/24.png,images/simple/113.png,images/simple/47.png,images/simple/116.png,images/simple/94.png,images/simple/108.png,images/simple/40.png,images/simple/58.png,images/simple/11.png,images/simple/6.png,images/simple/103.png,images/simple/77.png,images/simple/36.png,images/simple/57.png,images/simple/13.png,images/simple/8.png,images/simple/17.png,images/simple/25.png,images/simple/82.png,images/simple/45.png,images/simple/96.png","0","1","","600","1136.179999995511","","",""
"","null","html-keyboard-response","124","146149","0.0-3.0-0.11","SS1602373926146","<img src=images/blank.png width =""500"" height = ""600"" style=""border:5px solid black"">","null","","","","","","","","","","","","","",""
"","62.40999999863561","stimulus-presentation","125","146889","0.0-3.0-1.11","SS1602373926146","","40","<img src='images/complex/90.png' width ='500' height = '600' style='border:5px solid black'>","background","mixed_simple_deviant","images/complex/84.png","images/complex/90.png","images/simple/43.png,images/simple/42.png,images/simple/120.png,images/simple/74.png,images/simple/84.png,images/simple/102.png,images/simple/26.png,images/simple/27.png,images/simple/99.png,images/simple/22.png,images/simple/29.png,images/simple/28.png,images/simple/38.png,images/simple/20.png,images/simple/4.png,images/simple/61.png,images/simple/60.png,images/simple/24.png,images/simple/113.png,images/simple/47.png,images/simple/116.png,images/simple/94.png,images/simple/108.png,images/simple/40.png,images/simple/58.png,images/simple/11.png,images/simple/6.png,images/simple/103.png,images/simple/77.png,images/simple/36.png,images/simple/57.png,images/simple/13.png,images/simple/8.png,images/simple/17.png,images/simple/25.png,images/simple/82.png,images/simple/45.png,images/simple/96.png","0","1","","600","662.4099999986356","","",""
"","null","html-keyboard-response","126","148070","0.0-3.0-0.12","SS1602373926146","<img src=images/blank.png width =""500"" height = ""600"" style=""border:5px solid black"">","null","","","","","","","","","","","","","",""
"","935.9650000114925","stimulus-presentation","127","149681","0.0-3.0-1.12","SS1602373926146","","40","<img src='images/complex/84.png' width ='500' height = '600' style='border:5px solid black'>","target","mixed_simple_deviant","images/complex/84.png","images/complex/90.png","images/simple/43.png,images/simple/42.png,images/simple/120.png,images/simple/74.png,images/simple/84.png,images/simple/102.png,images/simple/26.png,images/simple/27.png,images/simple/99.png,images/simple/22.png,images/simple/29.png,images/simple/28.png,images/simple/38.png,images/simple/20.png,images/simple/4.png,images/simple/61.png,images/simple/60.png,images/simple/24.png,images/simple/113.png,images/simple/47.png,images/simple/116.png,images/simple/94.png,images/simple/108.png,images/simple/40.png,images/simple/58.png,images/simple/11.png,images/simple/6.png,images/simple/103.png,images/simple/77.png,images/simple/36.png,images/simple/57.png,images/simple/13.png,images/simple/8.png,images/simple/17.png,images/simple/25.png,images/simple/82.png,images/simple/45.png,images/simple/96.png","0","1","","600","1535.9650000114925","104.30500000074971","",""
"","null","html-keyboard-response","128","150945","0.0-3.0-0.13","SS1602373926146","<img src=images/blank.png width =""500"" height = ""600"" style=""border:5px solid black"">","null","","","","","","","","","","","","","",""
"","19.45999999588821","stimulus-presentation","129","151639","0.0-3.0-1.13","SS1602373926146","","40","<img src='images/complex/90.png' width ='500' height = '600' style='border:5px solid black'>","background","mixed_simple_deviant","images/complex/84.png","images/complex/90.png","images/simple/43.png,images/simple/42.png,images/simple/120.png,images/simple/74.png,images/simple/84.png,images/simple/102.png,images/simple/26.png,images/simple/27.png,images/simple/99.png,images/simple/22.png,images/simple/29.png,images/simple/28.png,images/simple/38.png,images/simple/20.png,images/simple/4.png,images/simple/61.png,images/simple/60.png,images/simple/24.png,images/simple/113.png,images/simple/47.png,images/simple/116.png,images/simple/94.png,images/simple/108.png,images/simple/40.png,images/simple/58.png,images/simple/11.png,images/simple/6.png,images/simple/103.png,images/simple/77.png,images/simple/36.png,images/simple/57.png,images/simple/13.png,images/simple/8.png,images/simple/17.png,images/simple/25.png,images/simple/82.png,images/simple/45.png,images/simple/96.png","0","1","","600","619.4599999958882","","",""
"","null","html-keyboard-response","130","152988","0.0-3.0-0.14","SS1602373926146","<img src=images/blank.png width =""500"" height = ""600"" style=""border:5px solid black"">","null","","","","","","","","","","","","","",""
"","286.0499999951571","stimulus-presentation","131","153951","0.0-3.0-1.14","SS1602373926146","","40","<img src='images/simple/43.png' width ='500' height = '600' style='border:5px solid black'>","deviant","mixed_simple_deviant","images/complex/84.png","images/complex/90.png","images/simple/43.png,images/simple/42.png,images/simple/120.png,images/simple/74.png,images/simple/84.png,images/simple/102.png,images/simple/26.png,images/simple/27.png,images/simple/99.png,images/simple/22.png,images/simple/29.png,images/simple/28.png,images/simple/38.png,images/simple/20.png,images/simple/4.png,images/simple/61.png,images/simple/60.png,images/simple/24.png,images/simple/113.png,images/simple/47.png,images/simple/116.png,images/simple/94.png,images/simple/108.png,images/simple/40.png,images/simple/58.png,images/simple/11.png,images/simple/6.png,images/simple/103.png,images/simple/77.png,images/simple/36.png,images/simple/57.png,images/simple/13.png,images/simple/8.png,images/simple/17.png,images/simple/25.png,images/simple/82.png,images/simple/45.png,images/simple/96.png","0","1","","600","886.0499999951571","","",""
"","null","html-keyboard-response","132","154860","0.0-3.0-0.15","SS1602373926146","<img src=images/blank.png width =""500"" height = ""600"" style=""border:5px solid black"">","null","","","","","","","","","","","","","",""
"","623.8100000045961","stimulus-presentation","133","156157","0.0-3.0-1.15","SS1602373926146","","40","<img src='images/complex/90.png' width ='500' height = '600' style='border:5px solid black'>","background","mixed_simple_deviant","images/complex/84.png","images/complex/90.png","images/simple/43.png,images/simple/42.png,images/simple/120.png,images/simple/74.png,images/simple/84.png,images/simple/102.png,images/simple/26.png,images/simple/27.png,images/simple/99.png,images/simple/22.png,images/simple/29.png,images/simple/28.png,images/simple/38.png,images/simple/20.png,images/simple/4.png,images/simple/61.png,images/simple/60.png,images/simple/24.png,images/simple/113.png,images/simple/47.png,images/simple/116.png,images/simple/94.png,images/simple/108.png,images/simple/40.png,images/simple/58.png,images/simple/11.png,images/simple/6.png,images/simple/103.png,images/simple/77.png,images/simple/36.png,images/simple/57.png,images/simple/13.png,images/simple/8.png,images/simple/17.png,images/simple/25.png,images/simple/82.png,images/simple/45.png,images/simple/96.png","0","1","","600","1223.810000004596","","",""
"","null","html-keyboard-response","134","157276","0.0-3.0-0.16","SS1602373926146","<img src=images/blank.png width =""500"" height = ""600"" style=""border:5px solid black"">","null","","","","","","","","","","","","","",""
"","17.1050000062678","stimulus-presentation","135","157976","0.0-3.0-1.16","SS1602373926146","","40","<img src='images/complex/90.png' width ='500' height = '600' style='border:5px solid black'>","background","mixed_simple_deviant","images/complex/84.png","images/complex/90.png","images/simple/43.png,images/simple/42.png,images/simple/120.png,images/simple/74.png,images/simple/84.png,images/simple/102.png,images/simple/26.png,images/simple/27.png,images/simple/99.png,images/simple/22.png,images/simple/29.png,images/simple/28.png,images/simple/38.png,images/simple/20.png,images/simple/4.png,images/simple/61.png,images/simple/60.png,images/simple/24.png,images/simple/113.png,images/simple/47.png,images/simple/116.png,images/simple/94.png,images/simple/108.png,images/simple/40.png,images/simple/58.png,images/simple/11.png,images/simple/6.png,images/simple/103.png,images/simple/77.png,images/simple/36.png,images/simple/57.png,images/simple/13.png,images/simple/8.png,images/simple/17.png,images/simple/25.png,images/simple/82.png,images/simple/45.png,images/simple/96.png","0","1","","600","617.1050000062678","","",""
"","null","html-keyboard-response","136","159012","0.0-3.0-0.17","SS1602373926146","<img src=images/blank.png width =""500"" height = ""600"" style=""border:5px solid black"">","null","","","","","","","","","","","","","",""
"","303.009999988717","stimulus-presentation","137","159997","0.0-3.0-1.17","SS1602373926146","","40","<img src='images/complex/90.png' width ='500' height = '600' style='border:5px solid black'>","background","mixed_simple_deviant","images/complex/84.png","images/complex/90.png","images/simple/43.png,images/simple/42.png,images/simple/120.png,images/simple/74.png,images/simple/84.png,images/simple/102.png,images/simple/26.png,images/simple/27.png,images/simple/99.png,images/simple/22.png,images/simple/29.png,images/simple/28.png,images/simple/38.png,images/simple/20.png,images/simple/4.png,images/simple/61.png,images/simple/60.png,images/simple/24.png,images/simple/113.png,images/simple/47.png,images/simple/116.png,images/simple/94.png,images/simple/108.png,images/simple/40.png,images/simple/58.png,images/simple/11.png,images/simple/6.png,images/simple/103.png,images/simple/77.png,images/simple/36.png,images/simple/57.png,images/simple/13.png,images/simple/8.png,images/simple/17.png,images/simple/25.png,images/simple/82.png,images/simple/45.png,images/simple/96.png","0","1","","600","903.009999988717","","",""
"","null","html-keyboard-response","138","161366","0.0-3.0-0.18","SS1602373926146","<img src=images/blank.png width =""500"" height = ""600"" style=""border:5px solid black"">","null","","","","","","","","","","","","","",""
"","393.55999999679625","stimulus-presentation","139","162434","0.0-3.0-1.18","SS1602373926146","","40","<img src='images/simple/113.png' width ='500' height = '600' style='border:5px solid black'>","deviant","mixed_simple_deviant","images/complex/84.png","images/complex/90.png","images/simple/43.png,images/simple/42.png,images/simple/120.png,images/simple/74.png,images/simple/84.png,images/simple/102.png,images/simple/26.png,images/simple/27.png,images/simple/99.png,images/simple/22.png,images/simple/29.png,images/simple/28.png,images/simple/38.png,images/simple/20.png,images/simple/4.png,images/simple/61.png,images/simple/60.png,images/simple/24.png,images/simple/113.png,images/simple/47.png,images/simple/116.png,images/simple/94.png,images/simple/108.png,images/simple/40.png,images/simple/58.png,images/simple/11.png,images/simple/6.png,images/simple/103.png,images/simple/77.png,images/simple/36.png,images/simple/57.png,images/simple/13.png,images/simple/8.png,images/simple/17.png,images/simple/25.png,images/simple/82.png,images/simple/45.png,images/simple/96.png","0","1","","600","993.5599999967963","","",""
"","null","html-keyboard-response","140","163676","0.0-3.0-0.19","SS1602373926146","<img src=images/blank.png width =""500"" height = ""600"" style=""border:5px solid black"">","null","","","","","","","","","","","","","",""
"","180.19499999354593","stimulus-presentation","141","164538","0.0-3.0-1.19","SS1602373926146","","40","<img src='images/complex/90.png' width ='500' height = '600' style='border:5px solid black'>","background","mixed_simple_deviant","images/complex/84.png","images/complex/90.png","images/simple/43.png,images/simple/42.png,images/simple/120.png,images/simple/74.png,images/simple/84.png,images/simple/102.png,images/simple/26.png,images/simple/27.png,images/simple/99.png,images/simple/22.png,images/simple/29.png,images/simple/28.png,images/simple/38.png,images/simple/20.png,images/simple/4.png,images/simple/61.png,images/simple/60.png,images/simple/24.png,images/simple/113.png,images/simple/47.png,images/simple/116.png,images/simple/94.png,images/simple/108.png,images/simple/40.png,images/simple/58.png,images/simple/11.png,images/simple/6.png,images/simple/103.png,images/simple/77.png,images/simple/36.png,images/simple/57.png,images/simple/13.png,images/simple/8.png,images/simple/17.png,images/simple/25.png,images/simple/82.png,images/simple/45.png,images/simple/96.png","0","1","","600","780.1949999935459","","",""
"","null","html-keyboard-response","142","165713","0.0-3.0-0.20","SS1602373926146","<img src=images/blank.png width =""500"" height = ""600"" style=""border:5px solid black"">","null","","","","","","","","","","","","","",""
"","262.3849999945378","stimulus-presentation","143","166659","0.0-3.0-1.20","SS1602373926146","","40","<img src='images/complex/90.png' width ='500' height = '600' style='border:5px solid black'>","background","mixed_simple_deviant","images/complex/84.png","images/complex/90.png","images/simple/43.png,images/simple/42.png,images/simple/120.png,images/simple/74.png,images/simple/84.png,images/simple/102.png,images/simple/26.png,images/simple/27.png,images/simple/99.png,images/simple/22.png,images/simple/29.png,images/simple/28.png,images/simple/38.png,images/simple/20.png,images/simple/4.png,images/simple/61.png,images/simple/60.png,images/simple/24.png,images/simple/113.png,images/simple/47.png,images/simple/116.png,images/simple/94.png,images/simple/108.png,images/simple/40.png,images/simple/58.png,images/simple/11.png,images/simple/6.png,images/simple/103.png,images/simple/77.png,images/simple/36.png,images/simple/57.png,images/simple/13.png,images/simple/8.png,images/simple/17.png,images/simple/25.png,images/simple/82.png,images/simple/45.png,images/simple/96.png","0","1","","600","862.3849999945378","","",""
"","null","html-keyboard-response","144","167601","0.0-3.0-0.21","SS1602373926146","<img src=images/blank.png width =""500"" height = ""600"" style=""border:5px solid black"">","null","","","","","","","","","","","","","",""
"","221.01000000839122","stimulus-presentation","145","168504","0.0-3.0-1.21","SS1602373926146","","40","<img src='images/complex/90.png' width ='500' height = '600' style='border:5px solid black'>","background","mixed_simple_deviant","images/complex/84.png","images/complex/90.png","images/simple/43.png,images/simple/42.png,images/simple/120.png,images/simple/74.png,images/simple/84.png,images/simple/102.png,images/simple/26.png,images/simple/27.png,images/simple/99.png,images/simple/22.png,images/simple/29.png,images/simple/28.png,images/simple/38.png,images/simple/20.png,images/simple/4.png,images/simple/61.png,images/simple/60.png,images/simple/24.png,images/simple/113.png,images/simple/47.png,images/simple/116.png,images/simple/94.png,images/simple/108.png,images/simple/40.png,images/simple/58.png,images/simple/11.png,images/simple/6.png,images/simple/103.png,images/simple/77.png,images/simple/36.png,images/simple/57.png,images/simple/13.png,images/simple/8.png,images/simple/17.png,images/simple/25.png,images/simple/82.png,images/simple/45.png,images/simple/96.png","0","1","","600","821.0100000083912","","",""
"","null","html-keyboard-response","146","169521","0.0-3.0-0.22","SS1602373926146","<img src=images/blank.png width =""500"" height = ""600"" style=""border:5px solid black"">","null","","","","","","","","","","","","","",""
