"view_history","rt","trial_type","trial_index","time_elapsed","internal_node_id","subject","trial_stimulus","key_press","task_type","task_target_stimulus","task_background_stimulus","task_deviant_stimuli","task_order_number","block_order_number","trial_order_number","minimum_viewing_duration","trial_looking_time","trial_pressed_space_bar","trial_space_bar_rt","stimulus","trial_stimulus_type","responses","question_order"
"[{""page_index"":0,""viewing_time"":6440.270000020973}]","6440.93000004068","instructions","0","6461","0.0-0.0","SS1604610420062","","","","","","","","","","","","","","","","",""
"[{""page_index"":0,""viewing_time"":8255.185000016354},{""page_index"":1,""viewing_time"":8448.940000031143},{""page_index"":2,""viewing_time"":5051.264999900013},{""page_index"":3,""viewing_time"":10530.505000031553},{""page_index"":4,""viewing_time"":6817.475000047125},{""page_index"":5,""viewing_time"":10575.274999951944},{""page_index"":6,""viewing_time"":3296.3199999649078},{""page_index"":7,""viewing_time"":8426.530000055209},{""page_index"":8,""viewing_time"":2531.1900000087917}]","63932.85999994259","instructions","1","70395","0.0-1.0","SS1604610420062","","","","","","","","","","","","","","","","",""
"[{""page_index"":0,""viewing_time"":6310.605000006035},{""page_index"":1,""viewing_time"":10102.674999972805},{""page_index"":2,""viewing_time"":1338.6450000107288}]","17752.144999918528","instructions","2","88147","0.0-2.0","SS1604610420062","","","","","","","","","","","","","","","","",""
"","1871.7950000427663","practice-block","3","90223","0.0-3.0","SS1604610420062","<img src='images/practice/practice_background.jpeg' width ='500' height = '500' style='border:5px solid black'>","40","null","images/practice/practice_target.jpg","null","null","null","null","","200","2071.7950000427663","","","","","",""
"","null","html-keyboard-response","4","91133","0.0-4.0","SS1604610420062","","null","","","","","","","","","","","","<img src=images/blank.png width =""500"" height = ""500"" style=""border:5px solid black"">","","",""
"","338.6249999748543","practice-block","5","91674","0.0-5.0","SS1604610420062","<img src='images/practice/practice_background.jpeg' width ='500' height = '500' style='border:5px solid black'>","40","null","images/practice/practice_target.jpg","null","null","null","null","","200","538.6249999748543","","","","","",""
"","null","html-keyboard-response","6","92517","0.0-6.0","SS1604610420062","","null","","","","","","","","","","","","<img src=images/blank.png width =""500"" height = ""500"" style=""border:5px solid black"">","","",""
"","404.76499998476356","practice-block","7","93125","0.0-7.0","SS1604610420062","<img src='images/practice/practice_deviant.jpeg' width ='500' height = '500' style='border:5px solid black'>","40","null","images/practice/practice_target.jpg","null","null","null","null","","200","604.7649999847636","","","","","",""
"","null","html-keyboard-response","8","93937","0.0-8.0","SS1604610420062","","null","","","","","","","","","","","","<img src=images/blank.png width =""500"" height = ""500"" style=""border:5px solid black"">","","",""
"","3765.985000063665","practice-block","9","97907","0.0-9.0-0.0","SS1604610420062","<img src='images/practice/practice_target.jpg' width ='500' height = '500' style='border:5px solid black'>","40","null","images/practice/practice_target.jpg","null","null","null","null","","200","3965.985000063665","yes","333.3850000053644","","","",""
"","null","html-keyboard-response","10","99170","0.0-10.0","SS1604610420062","","null","","","","","","","","","","","","<img src=images/blank.png width =""500"" height = ""500"" style=""border:5px solid black"">","","",""
"","826.1250000214204","practice-block","11","100201","0.0-11.0","SS1604610420062","<img src='images/practice/practice_background.jpeg' width ='500' height = '500' style='border:5px solid black'>","40","null","images/practice/practice_target.jpg","null","null","null","null","","200","1026.1250000214204","","","","","",""
"[{""page_index"":0,""viewing_time"":1930}]","1930","task-instructions","12","102132","0.0-12.0","SS1604610420062","","","","","","","","","","","","","","","","",""
"[{""page_index"":0,""viewing_time"":2991.120000020601},{""page_index"":1,""viewing_time"":5355.199999990873},{""page_index"":2,""viewing_time"":1822.5350000429899}]","10169.035000028089","instructions","13","112302","0.0-13.0","SS1604610420062","","","","","","","","","","","","","","","","",""
"","null","html-keyboard-response","14","113255","0.0-14.0-0.0","SS1604610420062","","null","","","","","","","","","","","","<img src=images/blank.png width =""500"" height = ""500"" style=""border:5px solid black"">","","",""
"","19.28000000771135","stimulus-presentation","15","113478","0.0-14.0-1.0","SS1604610420062","<img src='images/simple/4.png' width ='500' height = '500' style='border:5px solid black'>","40","all_simple","images/simple/1.png","images/simple/17.png","images/simple/5.png,images/simple/8.png,images/simple/6.png,images/simple/15.png,images/simple/4.png,images/simple/3.png,images/simple/10.png","0","null","","200","219.28000000771135","","","","deviant","",""
"","null","html-keyboard-response","16","114324","0.0-14.0-0.1","SS1604610420062","","null","","","","","","","","","","","","<img src=images/blank.png width =""500"" height = ""500"" style=""border:5px solid black"">","","",""
"","504.56000003032386","stimulus-presentation","17","115030","0.0-14.0-1.1","SS1604610420062","<img src='images/simple/17.png' width ='500' height = '500' style='border:5px solid black'>","40","all_simple","images/simple/1.png","images/simple/17.png","images/simple/5.png,images/simple/8.png,images/simple/6.png,images/simple/15.png,images/simple/4.png,images/simple/3.png,images/simple/10.png","0","null","","200","704.5600000303239","","","","background","",""
"","null","html-keyboard-response","18","116203","0.0-14.0-0.2","SS1604610420062","","null","","","","","","","","","","","","<img src=images/blank.png width =""500"" height = ""500"" style=""border:5px solid black"">","","",""
"","196.460000006482","stimulus-presentation","19","116604","0.0-14.0-1.2","SS1604610420062","<img src='images/simple/17.png' width ='500' height = '500' style='border:5px solid black'>","40","all_simple","images/simple/1.png","images/simple/17.png","images/simple/5.png,images/simple/8.png,images/simple/6.png,images/simple/15.png,images/simple/4.png,images/simple/3.png,images/simple/10.png","0","null","","200","396.460000006482","","","","background","",""
"","null","html-keyboard-response","20","117498","0.0-14.0-0.3","SS1604610420062","","null","","","","","","","","","","","","<img src=images/blank.png width =""500"" height = ""500"" style=""border:5px solid black"">","","",""
"","141.6299999691546","stimulus-presentation","21","117842","0.0-14.0-1.3","SS1604610420062","<img src='images/simple/17.png' width ='500' height = '500' style='border:5px solid black'>","40","all_simple","images/simple/1.png","images/simple/17.png","images/simple/5.png,images/simple/8.png,images/simple/6.png,images/simple/15.png,images/simple/4.png,images/simple/3.png,images/simple/10.png","0","null","","200","341.6299999691546","","","","background","",""
"","null","html-keyboard-response","22","119100","0.0-14.0-0.4","SS1604610420062","","null","","","","","","","","","","","","<img src=images/blank.png width =""500"" height = ""500"" style=""border:5px solid black"">","","",""
"","181.93500000052154","stimulus-presentation","23","119484","0.0-14.0-1.4","SS1604610420062","<img src='images/simple/17.png' width ='500' height = '500' style='border:5px solid black'>","40","all_simple","images/simple/1.png","images/simple/17.png","images/simple/5.png,images/simple/8.png,images/simple/6.png,images/simple/15.png,images/simple/4.png,images/simple/3.png,images/simple/10.png","0","null","","200","381.93500000052154","","","","background","",""
"","null","html-keyboard-response","24","120710","0.0-14.0-0.5","SS1604610420062","","null","","","","","","","","","","","","<img src=images/blank.png width =""500"" height = ""500"" style=""border:5px solid black"">","","",""
"","181.10500008333474","stimulus-presentation","25","121094","0.0-14.0-1.5","SS1604610420062","<img src='images/simple/17.png' width ='500' height = '500' style='border:5px solid black'>","40","all_simple","images/simple/1.png","images/simple/17.png","images/simple/5.png,images/simple/8.png,images/simple/6.png,images/simple/15.png,images/simple/4.png,images/simple/3.png,images/simple/10.png","0","null","","200","381.10500008333474","","","","background","",""
"","null","html-keyboard-response","26","122210","0.0-14.0-0.6","SS1604610420062","","null","","","","","","","","","","","","<img src=images/blank.png width =""500"" height = ""500"" style=""border:5px solid black"">","","",""
"","173.23499999474734","stimulus-presentation","27","122589","0.0-14.0-1.6","SS1604610420062","<img src='images/simple/17.png' width ='500' height = '500' style='border:5px solid black'>","40","all_simple","images/simple/1.png","images/simple/17.png","images/simple/5.png,images/simple/8.png,images/simple/6.png,images/simple/15.png,images/simple/4.png,images/simple/3.png,images/simple/10.png","0","null","","200","373.23499999474734","","","","background","",""
"","null","html-keyboard-response","28","123698","0.0-14.0-0.7","SS1604610420062","","null","","","","","","","","","","","","<img src=images/blank.png width =""500"" height = ""500"" style=""border:5px solid black"">","","",""
"","184.40500006545335","stimulus-presentation","29","124086","0.0-14.0-1.7","SS1604610420062","<img src='images/simple/17.png' width ='500' height = '500' style='border:5px solid black'>","40","all_simple","images/simple/1.png","images/simple/17.png","images/simple/5.png,images/simple/8.png,images/simple/6.png,images/simple/15.png,images/simple/4.png,images/simple/3.png,images/simple/10.png","0","null","","200","384.40500006545335","","","","background","",""
"","null","html-keyboard-response","30","125336","0.0-14.0-0.8","SS1604610420062","","null","","","","","","","","","","","","<img src=images/blank.png width =""500"" height = ""500"" style=""border:5px solid black"">","","",""
"","157.27500000502914","stimulus-presentation","31","125695","0.0-14.0-1.8","SS1604610420062","<img src='images/simple/17.png' width ='500' height = '500' style='border:5px solid black'>","40","all_simple","images/simple/1.png","images/simple/17.png","images/simple/5.png,images/simple/8.png,images/simple/6.png,images/simple/15.png,images/simple/4.png,images/simple/3.png,images/simple/10.png","0","null","","200","357.27500000502914","","","","background","",""
"","null","html-keyboard-response","32","126794","0.0-14.0-0.9","SS1604610420062","","null","","","","","","","","","","","","<img src=images/blank.png width =""500"" height = ""500"" style=""border:5px solid black"">","","",""
"","1408.5750000085682","stimulus-presentation","33","128406","0.0-14.0-1.9","SS1604610420062","<img src='images/simple/1.png' width ='500' height = '500' style='border:5px solid black'>","40","all_simple","images/simple/1.png","images/simple/17.png","images/simple/5.png,images/simple/8.png,images/simple/6.png,images/simple/15.png,images/simple/4.png,images/simple/3.png,images/simple/10.png","0","null","","200","1608.5750000085682","","","","target","",""
"","null","html-keyboard-response","34","129343","0.0-14.0-0.10","SS1604610420062","","null","","","","","","","","","","","","<img src=images/blank.png width =""500"" height = ""500"" style=""border:5px solid black"">","","",""
"","1120.920000015758","stimulus-presentation","35","130667","0.0-14.0-1.10","SS1604610420062","<img src='images/simple/1.png' width ='500' height = '500' style='border:5px solid black'>","40","all_simple","images/simple/1.png","images/simple/17.png","images/simple/5.png,images/simple/8.png,images/simple/6.png,images/simple/15.png,images/simple/4.png,images/simple/3.png,images/simple/10.png","0","null","","200","1320.920000015758","yes","288.6549999238923","","target","",""
"","null","html-keyboard-response","36","131799","0.0-14.0-0.11","SS1604610420062","","null","","","","","","","","","","","","<img src=images/blank.png width =""500"" height = ""500"" style=""border:5px solid black"">","","",""
"","374.63500001467764","stimulus-presentation","37","132378","0.0-14.0-1.11","SS1604610420062","<img src='images/simple/17.png' width ='500' height = '500' style='border:5px solid black'>","40","all_simple","images/simple/1.png","images/simple/17.png","images/simple/5.png,images/simple/8.png,images/simple/6.png,images/simple/15.png,images/simple/4.png,images/simple/3.png,images/simple/10.png","0","null","","200","574.6350000146776","","","","background","",""
"","null","html-keyboard-response","38","133424","0.0-14.0-0.12","SS1604610420062","","null","","","","","","","","","","","","<img src=images/blank.png width =""500"" height = ""500"" style=""border:5px solid black"">","","",""
"","244.43500000052154","stimulus-presentation","39","133873","0.0-14.0-1.12","SS1604610420062","<img src='images/simple/17.png' width ='500' height = '500' style='border:5px solid black'>","40","all_simple","images/simple/1.png","images/simple/17.png","images/simple/5.png,images/simple/8.png,images/simple/6.png,images/simple/15.png,images/simple/4.png,images/simple/3.png,images/simple/10.png","0","null","","200","444.43500000052154","","","","background","",""
"","null","html-keyboard-response","40","134900","0.0-14.0-0.13","SS1604610420062","","null","","","","","","","","","","","","<img src=images/blank.png width =""500"" height = ""500"" style=""border:5px solid black"">","","",""
"","129.85499994829297","stimulus-presentation","41","135235","0.0-14.0-1.13","SS1604610420062","<img src='images/simple/17.png' width ='500' height = '500' style='border:5px solid black'>","40","all_simple","images/simple/1.png","images/simple/17.png","images/simple/5.png,images/simple/8.png,images/simple/6.png,images/simple/15.png,images/simple/4.png,images/simple/3.png,images/simple/10.png","0","null","","200","329.85499994829297","","","","background","",""
"","null","html-keyboard-response","42","136251","0.0-14.0-0.14","SS1604610420062","","null","","","","","","","","","","","","<img src=images/blank.png width =""500"" height = ""500"" style=""border:5px solid black"">","","",""
"","511.5900000091642","stimulus-presentation","43","136967","0.0-14.0-1.14","SS1604610420062","<img src='images/simple/17.png' width ='500' height = '500' style='border:5px solid black'>","40","all_simple","images/simple/1.png","images/simple/17.png","images/simple/5.png,images/simple/8.png,images/simple/6.png,images/simple/15.png,images/simple/4.png,images/simple/3.png,images/simple/10.png","0","null","","200","711.5900000091642","","","","background","",""
"","null","html-keyboard-response","44","138146","0.0-14.0-0.15","SS1604610420062","","null","","","","","","","","","","","","<img src=images/blank.png width =""500"" height = ""500"" style=""border:5px solid black"">","","",""
"","160.38499993737787","stimulus-presentation","45","138509","0.0-14.0-1.15","SS1604610420062","<img src='images/simple/17.png' width ='500' height = '500' style='border:5px solid black'>","40","all_simple","images/simple/1.png","images/simple/17.png","images/simple/5.png,images/simple/8.png,images/simple/6.png,images/simple/15.png,images/simple/4.png,images/simple/3.png,images/simple/10.png","0","null","","200","360.38499993737787","","","","background","",""
"","null","html-keyboard-response","46","139643","0.0-14.0-0.16","SS1604610420062","","null","","","","","","","","","","","","<img src=images/blank.png width =""500"" height = ""500"" style=""border:5px solid black"">","","",""
"","191.89999997615814","stimulus-presentation","47","140039","0.0-14.0-1.16","SS1604610420062","<img src='images/simple/17.png' width ='500' height = '500' style='border:5px solid black'>","40","all_simple","images/simple/1.png","images/simple/17.png","images/simple/5.png,images/simple/8.png,images/simple/6.png,images/simple/15.png,images/simple/4.png,images/simple/3.png,images/simple/10.png","0","null","","200","391.89999997615814","","","","background","",""
"","null","html-keyboard-response","48","141072","0.0-14.0-0.17","SS1604610420062","","null","","","","","","","","","","","","<img src=images/blank.png width =""500"" height = ""500"" style=""border:5px solid black"">","","",""
"","76.15999993868172","stimulus-presentation","49","141355","0.0-14.0-1.17","SS1604610420062","<img src='images/simple/17.png' width ='500' height = '500' style='border:5px solid black'>","40","all_simple","images/simple/1.png","images/simple/17.png","images/simple/5.png,images/simple/8.png,images/simple/6.png,images/simple/15.png,images/simple/4.png,images/simple/3.png,images/simple/10.png","0","null","","200","276.1599999386817","","","","background","",""
"","null","html-keyboard-response","50","142172","0.0-14.0-0.18","SS1604610420062","","null","","","","","","","","","","","","<img src=images/blank.png width =""500"" height = ""500"" style=""border:5px solid black"">","","",""
"","81.25000004656613","stimulus-presentation","51","142458","0.0-14.0-1.18","SS1604610420062","<img src='images/simple/17.png' width ='500' height = '500' style='border:5px solid black'>","40","all_simple","images/simple/1.png","images/simple/17.png","images/simple/5.png,images/simple/8.png,images/simple/6.png,images/simple/15.png,images/simple/4.png,images/simple/3.png,images/simple/10.png","0","null","","200","281.25000004656613","","","","background","",""
"","null","html-keyboard-response","52","143366","0.0-14.0-0.19","SS1604610420062","","null","","","","","","","","","","","","<img src=images/blank.png width =""500"" height = ""500"" style=""border:5px solid black"">","","",""
"","89.44999997038394","stimulus-presentation","53","143661","0.0-14.0-1.19","SS1604610420062","<img src='images/simple/17.png' width ='500' height = '500' style='border:5px solid black'>","40","all_simple","images/simple/1.png","images/simple/17.png","images/simple/5.png,images/simple/8.png,images/simple/6.png,images/simple/15.png,images/simple/4.png,images/simple/3.png,images/simple/10.png","0","null","","200","289.44999997038394","","","","background","",""
"","null","html-keyboard-response","54","144566","0.0-14.0-0.20","SS1604610420062","","null","","","","","","","","","","","","<img src=images/blank.png width =""500"" height = ""500"" style=""border:5px solid black"">","","",""
"","85.4350000154227","stimulus-presentation","55","144854","0.0-14.0-1.20","SS1604610420062","<img src='images/simple/17.png' width ='500' height = '500' style='border:5px solid black'>","40","all_simple","images/simple/1.png","images/simple/17.png","images/simple/5.png,images/simple/8.png,images/simple/6.png,images/simple/15.png,images/simple/4.png,images/simple/3.png,images/simple/10.png","0","null","","200","285.4350000154227","","","","background","",""
"","null","html-keyboard-response","56","145690","0.0-14.0-0.21","SS1604610420062","","null","","","","","","","","","","","","<img src=images/blank.png width =""500"" height = ""500"" style=""border:5px solid black"">","","",""
"","60.584999970160425","stimulus-presentation","57","145956","0.0-14.0-1.21","SS1604610420062","<img src='images/simple/17.png' width ='500' height = '500' style='border:5px solid black'>","40","all_simple","images/simple/1.png","images/simple/17.png","images/simple/5.png,images/simple/8.png,images/simple/6.png,images/simple/15.png,images/simple/4.png,images/simple/3.png,images/simple/10.png","0","null","","200","260.5849999701604","","","","background","",""
"","null","html-keyboard-response","58","147123","0.0-14.0-0.22","SS1604610420062","","null","","","","","","","","","","","","<img src=images/blank.png width =""500"" height = ""500"" style=""border:5px solid black"">","","",""
"","460.00500000081956","stimulus-presentation","59","147790","0.0-14.0-1.22","SS1604610420062","<img src='images/simple/5.png' width ='500' height = '500' style='border:5px solid black'>","40","all_simple","images/simple/1.png","images/simple/17.png","images/simple/5.png,images/simple/8.png,images/simple/6.png,images/simple/15.png,images/simple/4.png,images/simple/3.png,images/simple/10.png","0","null","","200","660.0050000008196","","","","deviant","",""
"","null","html-keyboard-response","60","148691","0.0-14.0-0.23","SS1604610420062","","null","","","","","","","","","","","","<img src=images/blank.png width =""500"" height = ""500"" style=""border:5px solid black"">","","",""
"","975.0000000931323","stimulus-presentation","61","149871","0.0-14.0-1.23","SS1604610420062","<img src='images/simple/1.png' width ='500' height = '500' style='border:5px solid black'>","40","all_simple","images/simple/1.png","images/simple/17.png","images/simple/5.png,images/simple/8.png,images/simple/6.png,images/simple/15.png,images/simple/4.png,images/simple/3.png,images/simple/10.png","0","null","","200","1175.0000000931323","yes","289.28500006441027","","target","",""
"","null","html-keyboard-response","62","151091","0.0-14.0-0.24","SS1604610420062","","null","","","","","","","","","","","","<img src=images/blank.png width =""500"" height = ""500"" style=""border:5px solid black"">","","",""
"","204.58000001963228","stimulus-presentation","63","151502","0.0-14.0-1.24","SS1604610420062","<img src='images/simple/17.png' width ='500' height = '500' style='border:5px solid black'>","40","all_simple","images/simple/1.png","images/simple/17.png","images/simple/5.png,images/simple/8.png,images/simple/6.png,images/simple/15.png,images/simple/4.png,images/simple/3.png,images/simple/10.png","0","null","","200","404.5800000196323","","","","background","",""
"","null","html-keyboard-response","64","152607","0.0-14.0-0.25","SS1604610420062","","null","","","","","","","","","","","","<img src=images/blank.png width =""500"" height = ""500"" style=""border:5px solid black"">","","",""
"","198.4449999872595","stimulus-presentation","65","153012","0.0-14.0-1.25","SS1604610420062","<img src='images/simple/17.png' width ='500' height = '500' style='border:5px solid black'>","40","all_simple","images/simple/1.png","images/simple/17.png","images/simple/5.png,images/simple/8.png,images/simple/6.png,images/simple/15.png,images/simple/4.png,images/simple/3.png,images/simple/10.png","0","null","","200","398.4449999872595","","","","background","",""
"","null","html-keyboard-response","66","153876","0.0-14.0-0.26","SS1604610420062","","null","","","","","","","","","","","","<img src=images/blank.png width =""500"" height = ""500"" style=""border:5px solid black"">","","",""
"","188.64999990910292","stimulus-presentation","67","154270","0.0-14.0-1.26","SS1604610420062","<img src='images/simple/17.png' width ='500' height = '500' style='border:5px solid black'>","40","all_simple","images/simple/1.png","images/simple/17.png","images/simple/5.png,images/simple/8.png,images/simple/6.png,images/simple/15.png,images/simple/4.png,images/simple/3.png,images/simple/10.png","0","null","","200","388.6499999091029","","","","background","",""
"","null","html-keyboard-response","68","155225","0.0-14.0-0.27","SS1604610420062","","null","","","","","","","","","","","","<img src=images/blank.png width =""500"" height = ""500"" style=""border:5px solid black"">","","",""
"","130.79999992623925","stimulus-presentation","69","155564","0.0-14.0-1.27","SS1604610420062","<img src='images/simple/17.png' width ='500' height = '500' style='border:5px solid black'>","40","all_simple","images/simple/1.png","images/simple/17.png","images/simple/5.png,images/simple/8.png,images/simple/6.png,images/simple/15.png,images/simple/4.png,images/simple/3.png,images/simple/10.png","0","null","","200","330.79999992623925","","","","background","",""
"","null","html-keyboard-response","70","156840","0.0-14.0-0.28","SS1604610420062","","null","","","","","","","","","","","","<img src=images/blank.png width =""500"" height = ""500"" style=""border:5px solid black"">","","",""
"","172.2250001039356","stimulus-presentation","71","157217","0.0-14.0-1.28","SS1604610420062","<img src='images/simple/17.png' width ='500' height = '500' style='border:5px solid black'>","40","all_simple","images/simple/1.png","images/simple/17.png","images/simple/5.png,images/simple/8.png,images/simple/6.png,images/simple/15.png,images/simple/4.png,images/simple/3.png,images/simple/10.png","0","null","","200","372.2250001039356","","","","background","",""
"","null","html-keyboard-response","72","158144","0.0-14.0-0.29","SS1604610420062","","null","","","","","","","","","","","","<img src=images/blank.png width =""500"" height = ""500"" style=""border:5px solid black"">","","",""
"","221.01500001735985","stimulus-presentation","73","158567","0.0-14.0-1.29","SS1604610420062","<img src='images/simple/6.png' width ='500' height = '500' style='border:5px solid black'>","40","all_simple","images/simple/1.png","images/simple/17.png","images/simple/5.png,images/simple/8.png,images/simple/6.png,images/simple/15.png,images/simple/4.png,images/simple/3.png,images/simple/10.png","0","null","","200","421.01500001735985","","","","deviant","",""
"","null","html-keyboard-response","74","159747","0.0-14.0-0.30","SS1604610420062","","null","","","","","","","","","","","","<img src=images/blank.png width =""500"" height = ""500"" style=""border:5px solid black"">","","",""
"","145.29999997466803","stimulus-presentation","75","160098","0.0-14.0-1.30","SS1604610420062","<img src='images/simple/17.png' width ='500' height = '500' style='border:5px solid black'>","40","all_simple","images/simple/1.png","images/simple/17.png","images/simple/5.png,images/simple/8.png,images/simple/6.png,images/simple/15.png,images/simple/4.png,images/simple/3.png,images/simple/10.png","0","null","","200","345.299999974668","","","","background","",""
"","null","html-keyboard-response","76","160994","0.0-14.0-0.31","SS1604610420062","","null","","","","","","","","","","","","<img src=images/blank.png width =""500"" height = ""500"" style=""border:5px solid black"">","","",""
"","126.2649999698624","stimulus-presentation","77","161323","0.0-14.0-1.31","SS1604610420062","<img src='images/simple/17.png' width ='500' height = '500' style='border:5px solid black'>","40","all_simple","images/simple/1.png","images/simple/17.png","images/simple/5.png,images/simple/8.png,images/simple/6.png,images/simple/15.png,images/simple/4.png,images/simple/3.png,images/simple/10.png","0","null","","200","326.2649999698624","","","","background","",""
"","null","html-keyboard-response","78","162307","0.0-14.0-0.32","SS1604610420062","","null","","","","","","","","","","","","<img src=images/blank.png width =""500"" height = ""500"" style=""border:5px solid black"">","","",""
"","62.704999931156635","stimulus-presentation","79","162573","0.0-14.0-1.32","SS1604610420062","<img src='images/simple/17.png' width ='500' height = '500' style='border:5px solid black'>","40","all_simple","images/simple/1.png","images/simple/17.png","images/simple/5.png,images/simple/8.png,images/simple/6.png,images/simple/15.png,images/simple/4.png,images/simple/3.png,images/simple/10.png","0","null","","200","262.70499993115664","","","","background","",""
"","null","html-keyboard-response","80","163628","0.0-14.0-0.33","SS1604610420062","","null","","","","","","","","","","","","<img src=images/blank.png width =""500"" height = ""500"" style=""border:5px solid black"">","","",""
"","58.985000010579824","stimulus-presentation","81","163889","0.0-14.0-1.33","SS1604610420062","<img src='images/simple/17.png' width ='500' height = '500' style='border:5px solid black'>","40","all_simple","images/simple/1.png","images/simple/17.png","images/simple/5.png,images/simple/8.png,images/simple/6.png,images/simple/15.png,images/simple/4.png,images/simple/3.png,images/simple/10.png","0","null","","200","258.9850000105798","","","","background","",""
"","null","html-keyboard-response","82","165077","0.0-14.0-0.34","SS1604610420062","","null","","","","","","","","","","","","<img src=images/blank.png width =""500"" height = ""500"" style=""border:5px solid black"">","","",""
"","441.5250000311062","stimulus-presentation","83","165723","0.0-14.0-1.34","SS1604610420062","<img src='images/simple/3.png' width ='500' height = '500' style='border:5px solid black'>","40","all_simple","images/simple/1.png","images/simple/17.png","images/simple/5.png,images/simple/8.png,images/simple/6.png,images/simple/15.png,images/simple/4.png,images/simple/3.png,images/simple/10.png","0","null","","200","641.5250000311062","","","","deviant","",""
"","null","html-keyboard-response","84","166561","0.0-14.0-0.35","SS1604610420062","","null","","","","","","","","","","","","<img src=images/blank.png width =""500"" height = ""500"" style=""border:5px solid black"">","","",""
"","83.9449999621138","stimulus-presentation","85","166847","0.0-14.0-1.35","SS1604610420062","<img src='images/simple/1.png' width ='500' height = '500' style='border:5px solid black'>","40","all_simple","images/simple/1.png","images/simple/17.png","images/simple/5.png,images/simple/8.png,images/simple/6.png,images/simple/15.png,images/simple/4.png,images/simple/3.png,images/simple/10.png","0","null","","200","283.9449999621138","","","","target","",""
"","null","html-keyboard-response","86","167701","0.0-14.0-0.36","SS1604610420062","","null","","","","","","","","","","","","<img src=images/blank.png width =""500"" height = ""500"" style=""border:5px solid black"">","","",""
"","190.01499994192272","stimulus-presentation","87","168097","0.0-14.0-1.36","SS1604610420062","<img src='images/simple/17.png' width ='500' height = '500' style='border:5px solid black'>","40","all_simple","images/simple/1.png","images/simple/17.png","images/simple/5.png,images/simple/8.png,images/simple/6.png,images/simple/15.png,images/simple/4.png,images/simple/3.png,images/simple/10.png","0","null","","200","390.0149999419227","","","","background","",""
"","null","html-keyboard-response","88","169251","0.0-14.0-0.37","SS1604610420062","","null","","","","","","","","","","","","<img src=images/blank.png width =""500"" height = ""500"" style=""border:5px solid black"">","","",""
"","319.4849999854341","stimulus-presentation","89","169773","0.0-14.0-1.37","SS1604610420062","<img src='images/simple/10.png' width ='500' height = '500' style='border:5px solid black'>","40","all_simple","images/simple/1.png","images/simple/17.png","images/simple/5.png,images/simple/8.png,images/simple/6.png,images/simple/15.png,images/simple/4.png,images/simple/3.png,images/simple/10.png","0","null","","200","519.4849999854341","","","","deviant","",""
"","null","html-keyboard-response","90","170596","0.0-14.0-0.38","SS1604610420062","","null","","","","","","","","","","","","<img src=images/blank.png width =""500"" height = ""500"" style=""border:5px solid black"">","","",""
"","1210.1300000213087","stimulus-presentation","91","172012","0.0-14.0-1.38","SS1604610420062","<img src='images/simple/1.png' width ='500' height = '500' style='border:5px solid black'>","40","all_simple","images/simple/1.png","images/simple/17.png","images/simple/5.png,images/simple/8.png,images/simple/6.png,images/simple/15.png,images/simple/4.png,images/simple/3.png,images/simple/10.png","0","null","","200","1410.1300000213087","yes","332.51500001642853","","target","",""
"","null","html-keyboard-response","92","173276","0.0-14.0-0.39","SS1604610420062","","null","","","","","","","","","","","","<img src=images/blank.png width =""500"" height = ""500"" style=""border:5px solid black"">","","",""
"","331.83000003919005","stimulus-presentation","93","173812","0.0-14.0-1.39","SS1604610420062","<img src='images/simple/17.png' width ='500' height = '500' style='border:5px solid black'>","40","all_simple","images/simple/1.png","images/simple/17.png","images/simple/5.png,images/simple/8.png,images/simple/6.png,images/simple/15.png,images/simple/4.png,images/simple/3.png,images/simple/10.png","0","null","","200","531.83000003919","","","","background","",""
"","null","html-keyboard-response","94","174707","0.0-14.0-0.40","SS1604610420062","","null","","","","","","","","","","","","<img src=images/blank.png width =""500"" height = ""500"" style=""border:5px solid black"">","","",""
"","1160.0049999542534","stimulus-presentation","95","176073","0.0-14.0-1.40","SS1604610420062","<img src='images/simple/1.png' width ='500' height = '500' style='border:5px solid black'>","40","all_simple","images/simple/1.png","images/simple/17.png","images/simple/5.png,images/simple/8.png,images/simple/6.png,images/simple/15.png,images/simple/4.png,images/simple/3.png,images/simple/10.png","0","null","","200","1360.0049999542534","yes","249.11999993491918","","target","",""
"","null","html-keyboard-response","96","177130","0.0-14.0-0.41","SS1604610420062","","null","","","","","","","","","","","","<img src=images/blank.png width =""500"" height = ""500"" style=""border:5px solid black"">","","",""
"","416.10000003129244","stimulus-presentation","97","177749","0.0-14.0-1.41","SS1604610420062","<img src='images/simple/15.png' width ='500' height = '500' style='border:5px solid black'>","40","all_simple","images/simple/1.png","images/simple/17.png","images/simple/5.png,images/simple/8.png,images/simple/6.png,images/simple/15.png,images/simple/4.png,images/simple/3.png,images/simple/10.png","0","null","","200","616.1000000312924","","","","deviant","",""
"","null","html-keyboard-response","98","178685","0.0-14.0-0.42","SS1604610420062","","null","","","","","","","","","","","","<img src=images/blank.png width =""500"" height = ""500"" style=""border:5px solid black"">","","",""
"","175.6850000238046","stimulus-presentation","99","179066","0.0-14.0-1.42","SS1604610420062","<img src='images/simple/17.png' width ='500' height = '500' style='border:5px solid black'>","40","all_simple","images/simple/1.png","images/simple/17.png","images/simple/5.png,images/simple/8.png,images/simple/6.png,images/simple/15.png,images/simple/4.png,images/simple/3.png,images/simple/10.png","0","null","","200","375.6850000238046","","","","background","",""
"","null","html-keyboard-response","100","180226","0.0-14.0-0.43","SS1604610420062","","null","","","","","","","","","","","","<img src=images/blank.png width =""500"" height = ""500"" style=""border:5px solid black"">","","",""
"","197.06000003498048","stimulus-presentation","101","180629","0.0-14.0-1.43","SS1604610420062","<img src='images/simple/17.png' width ='500' height = '500' style='border:5px solid black'>","40","all_simple","images/simple/1.png","images/simple/17.png","images/simple/5.png,images/simple/8.png,images/simple/6.png,images/simple/15.png,images/simple/4.png,images/simple/3.png,images/simple/10.png","0","null","","200","397.0600000349805","","","","background","",""
"","null","html-keyboard-response","102","181701","0.0-14.0-0.44","SS1604610420062","","null","","","","","","","","","","","","<img src=images/blank.png width =""500"" height = ""500"" style=""border:5px solid black"">","","",""
"","1030.2949999459088","stimulus-presentation","103","182935","0.0-14.0-1.44","SS1604610420062","<img src='images/simple/1.png' width ='500' height = '500' style='border:5px solid black'>","40","all_simple","images/simple/1.png","images/simple/17.png","images/simple/5.png,images/simple/8.png,images/simple/6.png,images/simple/15.png,images/simple/4.png,images/simple/3.png,images/simple/10.png","0","null","","200","1230.2949999459088","yes","265.36999992094934","","target","",""
"","null","html-keyboard-response","104","184215","0.0-14.0-0.45","SS1604610420062","","null","","","","","","","","","","","","<img src=images/blank.png width =""500"" height = ""500"" style=""border:5px solid black"">","","",""
"","294.5700000273064","stimulus-presentation","105","184713","0.0-14.0-1.45","SS1604610420062","<img src='images/simple/8.png' width ='500' height = '500' style='border:5px solid black'>","40","all_simple","images/simple/1.png","images/simple/17.png","images/simple/5.png,images/simple/8.png,images/simple/6.png,images/simple/15.png,images/simple/4.png,images/simple/3.png,images/simple/10.png","0","null","","200","494.5700000273064","","","","deviant","",""
"","null","html-keyboard-response","106","185555","0.0-14.0-0.46","SS1604610420062","","null","","","","","","","","","","","","<img src=images/blank.png width =""500"" height = ""500"" style=""border:5px solid black"">","","",""
"","159.80500006116927","stimulus-presentation","107","185918","0.0-14.0-1.46","SS1604610420062","<img src='images/simple/17.png' width ='500' height = '500' style='border:5px solid black'>","40","all_simple","images/simple/1.png","images/simple/17.png","images/simple/5.png,images/simple/8.png,images/simple/6.png,images/simple/15.png,images/simple/4.png,images/simple/3.png,images/simple/10.png","0","null","","200","359.80500006116927","","","","background","",""
"","null","html-keyboard-response","108","187066","0.0-14.0-0.47","SS1604610420062","","null","","","","","","","","","","","","<img src=images/blank.png width =""500"" height = ""500"" style=""border:5px solid black"">","","",""
"","143.75499996822327","stimulus-presentation","109","187413","0.0-14.0-1.47","SS1604610420062","<img src='images/simple/17.png' width ='500' height = '500' style='border:5px solid black'>","40","all_simple","images/simple/1.png","images/simple/17.png","images/simple/5.png,images/simple/8.png,images/simple/6.png,images/simple/15.png,images/simple/4.png,images/simple/3.png,images/simple/10.png","0","null","","200","343.7549999682233","","","","background","",""
"","null","html-keyboard-response","110","188609","0.0-14.0-0.48","SS1604610420062","","null","","","","","","","","","","","","<img src=images/blank.png width =""500"" height = ""500"" style=""border:5px solid black"">","","",""
"","132.61500000953674","stimulus-presentation","111","188944","0.0-14.0-1.48","SS1604610420062","<img src='images/simple/17.png' width ='500' height = '500' style='border:5px solid black'>","40","all_simple","images/simple/1.png","images/simple/17.png","images/simple/5.png,images/simple/8.png,images/simple/6.png,images/simple/15.png,images/simple/4.png,images/simple/3.png,images/simple/10.png","0","null","","200","332.61500000953674","","","","background","",""
"[{""page_index"":0,""viewing_time"":2782}]","2782","task-instructions","112","191729","0.0-15.0","SS1604610420062","","","","","","","","","","","","","","","","",""
"[{""page_index"":0,""viewing_time"":8109.249999979511},{""page_index"":1,""viewing_time"":3555.519999936223},{""page_index"":2,""viewing_time"":1552.8050001012161}]","13217.739999992773","instructions","113","204948","0.0-16.0","SS1604610420062","","","","","","","","","","","","","","","","",""
"","null","html-keyboard-response","114","206243","0.0-17.0-0.0","SS1604610420062","","null","","","","","","","","","","","","<img src=images/blank.png width =""500"" height = ""500"" style=""border:5px solid black"">","","",""
"","451.50500000454485","stimulus-presentation","115","206898","0.0-17.0-1.0","SS1604610420062","<img src='images/simple/14.png' width ='500' height = '500' style='border:5px solid black'>","40","mixed_complex_deviant","images/simple/2.png","images/simple/14.png","images/complex/9.png,images/complex/12.png,images/complex/15.png,images/complex/4.png,images/complex/18.png,images/complex/2.png,images/complex/14.png","1","null","","200","651.5050000045449","","","","background","",""
"","null","html-keyboard-response","116","207895","0.0-17.0-0.1","SS1604610420062","","null","","","","","","","","","","","","<img src=images/blank.png width =""500"" height = ""500"" style=""border:5px solid black"">","","",""
"","206.28499996382743","stimulus-presentation","117","208305","0.0-17.0-1.1","SS1604610420062","<img src='images/simple/14.png' width ='500' height = '500' style='border:5px solid black'>","40","mixed_complex_deviant","images/simple/2.png","images/simple/14.png","images/complex/9.png,images/complex/12.png,images/complex/15.png,images/complex/4.png,images/complex/18.png,images/complex/2.png,images/complex/14.png","1","null","","200","406.28499996382743","","","","background","",""
"","null","html-keyboard-response","118","209290","0.0-17.0-0.2","SS1604610420062","","null","","","","","","","","","","","","<img src=images/blank.png width =""500"" height = ""500"" style=""border:5px solid black"">","","",""
"","117.04000004101545","stimulus-presentation","119","209611","0.0-17.0-1.2","SS1604610420062","<img src='images/simple/14.png' width ='500' height = '500' style='border:5px solid black'>","40","mixed_complex_deviant","images/simple/2.png","images/simple/14.png","images/complex/9.png,images/complex/12.png,images/complex/15.png,images/complex/4.png,images/complex/18.png,images/complex/2.png,images/complex/14.png","1","null","","200","317.04000004101545","","","","background","",""
"","null","html-keyboard-response","120","210746","0.0-17.0-0.3","SS1604610420062","","null","","","","","","","","","","","","<img src=images/blank.png width =""500"" height = ""500"" style=""border:5px solid black"">","","",""
"","133.16999992821366","stimulus-presentation","121","211083","0.0-17.0-1.3","SS1604610420062","<img src='images/simple/14.png' width ='500' height = '500' style='border:5px solid black'>","40","mixed_complex_deviant","images/simple/2.png","images/simple/14.png","images/complex/9.png,images/complex/12.png,images/complex/15.png,images/complex/4.png,images/complex/18.png,images/complex/2.png,images/complex/14.png","1","null","","200","333.16999992821366","","","","background","",""
"","null","html-keyboard-response","122","212049","0.0-17.0-0.4","SS1604610420062","","null","","","","","","","","","","","","<img src=images/blank.png width =""500"" height = ""500"" style=""border:5px solid black"">","","",""
"","403.34000007715076","stimulus-presentation","123","212659","0.0-17.0-1.4","SS1604610420062","<img src='images/complex/4.png' width ='500' height = '500' style='border:5px solid black'>","40","mixed_complex_deviant","images/simple/2.png","images/simple/14.png","images/complex/9.png,images/complex/12.png,images/complex/15.png,images/complex/4.png,images/complex/18.png,images/complex/2.png,images/complex/14.png","1","null","","200","603.3400000771508","","","","deviant","",""
"","null","html-keyboard-response","124","213511","0.0-17.0-0.5","SS1604610420062","","null","","","","","","","","","","","","<img src=images/blank.png width =""500"" height = ""500"" style=""border:5px solid black"">","","",""
"","133.00000003073364","stimulus-presentation","125","213851","0.0-17.0-1.5","SS1604610420062","<img src='images/simple/14.png' width ='500' height = '500' style='border:5px solid black'>","40","mixed_complex_deviant","images/simple/2.png","images/simple/14.png","images/complex/9.png,images/complex/12.png,images/complex/15.png,images/complex/4.png,images/complex/18.png,images/complex/2.png,images/complex/14.png","1","null","","200","333.00000003073364","","","","background","",""
"","null","html-keyboard-response","126","215143","0.0-17.0-0.6","SS1604610420062","","null","","","","","","","","","","","","<img src=images/blank.png width =""500"" height = ""500"" style=""border:5px solid black"">","","",""
"","193.4549999423325","stimulus-presentation","127","215539","0.0-17.0-1.6","SS1604610420062","<img src='images/simple/14.png' width ='500' height = '500' style='border:5px solid black'>","40","mixed_complex_deviant","images/simple/2.png","images/simple/14.png","images/complex/9.png,images/complex/12.png,images/complex/15.png,images/complex/4.png,images/complex/18.png,images/complex/2.png,images/complex/14.png","1","null","","200","393.4549999423325","","","","background","",""
"","null","html-keyboard-response","128","216461","0.0-17.0-0.7","SS1604610420062","","null","","","","","","","","","","","","<img src=images/blank.png width =""500"" height = ""500"" style=""border:5px solid black"">","","",""
"","110.8150000218302","stimulus-presentation","129","216776","0.0-17.0-1.7","SS1604610420062","<img src='images/simple/14.png' width ='500' height = '500' style='border:5px solid black'>","40","mixed_complex_deviant","images/simple/2.png","images/simple/14.png","images/complex/9.png,images/complex/12.png,images/complex/15.png,images/complex/4.png,images/complex/18.png,images/complex/2.png,images/complex/14.png","1","null","","200","310.8150000218302","","","","background","",""
"","null","html-keyboard-response","130","217583","0.0-17.0-0.8","SS1604610420062","","null","","","","","","","","","","","","<img src=images/blank.png width =""500"" height = ""500"" style=""border:5px solid black"">","","",""
"","302.54500010050833","stimulus-presentation","131","218093","0.0-17.0-1.8","SS1604610420062","<img src='images/complex/12.png' width ='500' height = '500' style='border:5px solid black'>","40","mixed_complex_deviant","images/simple/2.png","images/simple/14.png","images/complex/9.png,images/complex/12.png,images/complex/15.png,images/complex/4.png,images/complex/18.png,images/complex/2.png,images/complex/14.png","1","null","","200","502.54500010050833","","","","deviant","",""
"","null","html-keyboard-response","132","219314","0.0-17.0-0.9","SS1604610420062","","null","","","","","","","","","","","","<img src=images/blank.png width =""500"" height = ""500"" style=""border:5px solid black"">","","",""
"","205.9800000861287","stimulus-presentation","133","219725","0.0-17.0-1.9","SS1604610420062","<img src='images/simple/14.png' width ='500' height = '500' style='border:5px solid black'>","40","mixed_complex_deviant","images/simple/2.png","images/simple/14.png","images/complex/9.png,images/complex/12.png,images/complex/15.png,images/complex/4.png,images/complex/18.png,images/complex/2.png,images/complex/14.png","1","null","","200","405.9800000861287","","","","background","",""
"","null","html-keyboard-response","134","220942","0.0-17.0-0.10","SS1604610420062","","null","","","","","","","","","","","","<img src=images/blank.png width =""500"" height = ""500"" style=""border:5px solid black"">","","",""
"","1009.3849999830127","stimulus-presentation","135","222154","0.0-17.0-1.10","SS1604610420062","<img src='images/simple/2.png' width ='500' height = '500' style='border:5px solid black'>","40","mixed_complex_deviant","images/simple/2.png","images/simple/14.png","images/complex/9.png,images/complex/12.png,images/complex/15.png,images/complex/4.png,images/complex/18.png,images/complex/2.png,images/complex/14.png","1","null","","200","1209.3849999830127","yes","290.830000070855","","target","",""
"","null","html-keyboard-response","136","223066","0.0-17.0-0.11","SS1604610420062","","null","","","","","","","","","","","","<img src=images/blank.png width =""500"" height = ""500"" style=""border:5px solid black"">","","",""
"","187.2499999590218","stimulus-presentation","137","223460","0.0-17.0-1.11","SS1604610420062","<img src='images/simple/14.png' width ='500' height = '500' style='border:5px solid black'>","40","mixed_complex_deviant","images/simple/2.png","images/simple/14.png","images/complex/9.png,images/complex/12.png,images/complex/15.png,images/complex/4.png,images/complex/18.png,images/complex/2.png,images/complex/14.png","1","null","","200","387.2499999590218","","","","background","",""
"","null","html-keyboard-response","138","224667","0.0-17.0-0.12","SS1604610420062","","null","","","","","","","","","","","","<img src=images/blank.png width =""500"" height = ""500"" style=""border:5px solid black"">","","",""
"","218.19000004325062","stimulus-presentation","139","225090","0.0-17.0-1.12","SS1604610420062","<img src='images/simple/14.png' width ='500' height = '500' style='border:5px solid black'>","40","mixed_complex_deviant","images/simple/2.png","images/simple/14.png","images/complex/9.png,images/complex/12.png,images/complex/15.png,images/complex/4.png,images/complex/18.png,images/complex/2.png,images/complex/14.png","1","null","","200","418.1900000432506","","","","background","",""
"","null","html-keyboard-response","140","225970","0.0-17.0-0.13","SS1604610420062","","null","","","","","","","","","","","","<img src=images/blank.png width =""500"" height = ""500"" style=""border:5px solid black"">","","",""
"","139.57500003743917","stimulus-presentation","141","226316","0.0-17.0-1.13","SS1604610420062","<img src='images/simple/14.png' width ='500' height = '500' style='border:5px solid black'>","40","mixed_complex_deviant","images/simple/2.png","images/simple/14.png","images/complex/9.png,images/complex/12.png,images/complex/15.png,images/complex/4.png,images/complex/18.png,images/complex/2.png,images/complex/14.png","1","null","","200","339.57500003743917","","","","background","",""
"","null","html-keyboard-response","142","227340","0.0-17.0-0.14","SS1604610420062","","null","","","","","","","","","","","","<img src=images/blank.png width =""500"" height = ""500"" style=""border:5px solid black"">","","",""
"","109.85500004608184","stimulus-presentation","143","227655","0.0-17.0-1.14","SS1604610420062","<img src='images/simple/14.png' width ='500' height = '500' style='border:5px solid black'>","40","mixed_complex_deviant","images/simple/2.png","images/simple/14.png","images/complex/9.png,images/complex/12.png,images/complex/15.png,images/complex/4.png,images/complex/18.png,images/complex/2.png,images/complex/14.png","1","null","","200","309.85500004608184","","","","background","",""
"","null","html-keyboard-response","144","228896","0.0-17.0-0.15","SS1604610420062","","null","","","","","","","","","","","","<img src=images/blank.png width =""500"" height = ""500"" style=""border:5px solid black"">","","",""
"","503.14499996602535","stimulus-presentation","145","229602","0.0-17.0-1.15","SS1604610420062","<img src='images/complex/14.png' width ='500' height = '500' style='border:5px solid black'>","40","mixed_complex_deviant","images/simple/2.png","images/simple/14.png","images/complex/9.png,images/complex/12.png,images/complex/15.png,images/complex/4.png,images/complex/18.png,images/complex/2.png,images/complex/14.png","1","null","","200","703.1449999660254","","","","deviant","",""
"","null","html-keyboard-response","146","230677","0.0-17.0-0.16","SS1604610420062","","null","","","","","","","","","","","","<img src=images/blank.png width =""500"" height = ""500"" style=""border:5px solid black"">","","",""
"","205.97000000998378","stimulus-presentation","147","231090","0.0-17.0-1.16","SS1604610420062","<img src='images/simple/14.png' width ='500' height = '500' style='border:5px solid black'>","40","mixed_complex_deviant","images/simple/2.png","images/simple/14.png","images/complex/9.png,images/complex/12.png,images/complex/15.png,images/complex/4.png,images/complex/18.png,images/complex/2.png,images/complex/14.png","1","null","","200","405.9700000099838","","","","background","",""
"","null","html-keyboard-response","148","232095","0.0-17.0-0.17","SS1604610420062","","null","","","","","","","","","","","","<img src=images/blank.png width =""500"" height = ""500"" style=""border:5px solid black"">","","",""
"","104.94499991182238","stimulus-presentation","149","232402","0.0-17.0-1.17","SS1604610420062","<img src='images/simple/14.png' width ='500' height = '500' style='border:5px solid black'>","40","mixed_complex_deviant","images/simple/2.png","images/simple/14.png","images/complex/9.png,images/complex/12.png,images/complex/15.png,images/complex/4.png,images/complex/18.png,images/complex/2.png,images/complex/14.png","1","null","","200","304.9449999118224","","","","background","",""
"","null","html-keyboard-response","150","233341","0.0-17.0-0.18","SS1604610420062","","null","","","","","","","","","","","","<img src=images/blank.png width =""500"" height = ""500"" style=""border:5px solid black"">","","",""
"","93.31000002566725","stimulus-presentation","151","233640","0.0-17.0-1.18","SS1604610420062","<img src='images/simple/14.png' width ='500' height = '500' style='border:5px solid black'>","40","mixed_complex_deviant","images/simple/2.png","images/simple/14.png","images/complex/9.png,images/complex/12.png,images/complex/15.png,images/complex/4.png,images/complex/18.png,images/complex/2.png,images/complex/14.png","1","null","","200","293.31000002566725","","","","background","",""
"","null","html-keyboard-response","152","234924","0.0-17.0-0.19","SS1604610420062","","null","","","","","","","","","","","","<img src=images/blank.png width =""500"" height = ""500"" style=""border:5px solid black"">","","",""
"","165.58999998960644","stimulus-presentation","153","235294","0.0-17.0-1.19","SS1604610420062","<img src='images/simple/14.png' width ='500' height = '500' style='border:5px solid black'>","40","mixed_complex_deviant","images/simple/2.png","images/simple/14.png","images/complex/9.png,images/complex/12.png,images/complex/15.png,images/complex/4.png,images/complex/18.png,images/complex/2.png,images/complex/14.png","1","null","","200","365.58999998960644","","","","background","",""
"","null","html-keyboard-response","154","236300","0.0-17.0-0.20","SS1604610420062","","null","","","","","","","","","","","","<img src=images/blank.png width =""500"" height = ""500"" style=""border:5px solid black"">","","",""
"","341.93500003311783","stimulus-presentation","155","236847","0.0-17.0-1.20","SS1604610420062","<img src='images/complex/15.png' width ='500' height = '500' style='border:5px solid black'>","40","mixed_complex_deviant","images/simple/2.png","images/simple/14.png","images/complex/9.png,images/complex/12.png,images/complex/15.png,images/complex/4.png,images/complex/18.png,images/complex/2.png,images/complex/14.png","1","null","","200","541.9350000331178","","","","deviant","",""
"","null","html-keyboard-response","156","237875","0.0-17.0-0.21","SS1604610420062","","null","","","","","","","","","","","","<img src=images/blank.png width =""500"" height = ""500"" style=""border:5px solid black"">","","",""
"","207.8149999724701","stimulus-presentation","157","238287","0.0-17.0-1.21","SS1604610420062","<img src='images/simple/14.png' width ='500' height = '500' style='border:5px solid black'>","40","mixed_complex_deviant","images/simple/2.png","images/simple/14.png","images/complex/9.png,images/complex/12.png,images/complex/15.png,images/complex/4.png,images/complex/18.png,images/complex/2.png,images/complex/14.png","1","null","","200","407.8149999724701","","","","background","",""
"","null","html-keyboard-response","158","239465","0.0-17.0-0.22","SS1604610420062","","null","","","","","","","","","","","","<img src=images/blank.png width =""500"" height = ""500"" style=""border:5px solid black"">","","",""
"","180.90499995741993","stimulus-presentation","159","239851","0.0-17.0-1.22","SS1604610420062","<img src='images/simple/14.png' width ='500' height = '500' style='border:5px solid black'>","40","mixed_complex_deviant","images/simple/2.png","images/simple/14.png","images/complex/9.png,images/complex/12.png,images/complex/15.png,images/complex/4.png,images/complex/18.png,images/complex/2.png,images/complex/14.png","1","null","","200","380.90499995741993","","","","background","",""
"","null","html-keyboard-response","160","240880","0.0-17.0-0.23","SS1604610420062","","null","","","","","","","","","","","","<img src=images/blank.png width =""500"" height = ""500"" style=""border:5px solid black"">","","",""
"","129.59999998565763","stimulus-presentation","161","241213","0.0-17.0-1.23","SS1604610420062","<img src='images/simple/14.png' width ='500' height = '500' style='border:5px solid black'>","40","mixed_complex_deviant","images/simple/2.png","images/simple/14.png","images/complex/9.png,images/complex/12.png,images/complex/15.png,images/complex/4.png,images/complex/18.png,images/complex/2.png,images/complex/14.png","1","null","","200","329.59999998565763","","","","background","",""
"","null","html-keyboard-response","162","242515","0.0-17.0-0.24","SS1604610420062","","null","","","","","","","","","","","","<img src=images/blank.png width =""500"" height = ""500"" style=""border:5px solid black"">","","",""
"","878.8250000216067","stimulus-presentation","163","243597","0.0-17.0-1.24","SS1604610420062","<img src='images/simple/2.png' width ='500' height = '500' style='border:5px solid black'>","40","mixed_complex_deviant","images/simple/2.png","images/simple/14.png","images/complex/9.png,images/complex/12.png,images/complex/15.png,images/complex/4.png,images/complex/18.png,images/complex/2.png,images/complex/14.png","1","null","","200","1078.8250000216067","yes","237.56000003777444","","target","",""
"","null","html-keyboard-response","164","244556","0.0-17.0-0.25","SS1604610420062","","null","","","","","","","","","","","","<img src=images/blank.png width =""500"" height = ""500"" style=""border:5px solid black"">","","",""
"","1032.480000052601","stimulus-presentation","165","245791","0.0-17.0-1.25","SS1604610420062","<img src='images/simple/2.png' width ='500' height = '500' style='border:5px solid black'>","40","mixed_complex_deviant","images/simple/2.png","images/simple/14.png","images/complex/9.png,images/complex/12.png,images/complex/15.png,images/complex/4.png,images/complex/18.png,images/complex/2.png,images/complex/14.png","1","null","","200","1232.480000052601","yes","300.0200000824407","","target","",""
"","null","html-keyboard-response","166","246822","0.0-17.0-0.26","SS1604610420062","","null","","","","","","","","","","","","<img src=images/blank.png width =""500"" height = ""500"" style=""border:5px solid black"">","","",""
"","213.96500000264496","stimulus-presentation","167","247242","0.0-17.0-1.26","SS1604610420062","<img src='images/complex/9.png' width ='500' height = '500' style='border:5px solid black'>","40","mixed_complex_deviant","images/simple/2.png","images/simple/14.png","images/complex/9.png,images/complex/12.png,images/complex/15.png,images/complex/4.png,images/complex/18.png,images/complex/2.png,images/complex/14.png","1","null","","200","413.96500000264496","","","","deviant","",""
"","null","html-keyboard-response","168","248145","0.0-17.0-0.27","SS1604610420062","","null","","","","","","","","","","","","<img src=images/blank.png width =""500"" height = ""500"" style=""border:5px solid black"">","","",""
"","161.9349999818951","stimulus-presentation","169","248514","0.0-17.0-1.27","SS1604610420062","<img src='images/simple/14.png' width ='500' height = '500' style='border:5px solid black'>","40","mixed_complex_deviant","images/simple/2.png","images/simple/14.png","images/complex/9.png,images/complex/12.png,images/complex/15.png,images/complex/4.png,images/complex/18.png,images/complex/2.png,images/complex/14.png","1","null","","200","361.9349999818951","","","","background","",""
"","null","html-keyboard-response","170","249793","0.0-17.0-0.28","SS1604610420062","","null","","","","","","","","","","","","<img src=images/blank.png width =""500"" height = ""500"" style=""border:5px solid black"">","","",""
"","123.37000004481524","stimulus-presentation","171","250121","0.0-17.0-1.28","SS1604610420062","<img src='images/simple/14.png' width ='500' height = '500' style='border:5px solid black'>","40","mixed_complex_deviant","images/simple/2.png","images/simple/14.png","images/complex/9.png,images/complex/12.png,images/complex/15.png,images/complex/4.png,images/complex/18.png,images/complex/2.png,images/complex/14.png","1","null","","200","323.37000004481524","","","","background","",""
"","null","html-keyboard-response","172","251335","0.0-17.0-0.29","SS1604610420062","","null","","","","","","","","","","","","<img src=images/blank.png width =""500"" height = ""500"" style=""border:5px solid black"">","","",""
"","225.9750000666827","stimulus-presentation","173","251765","0.0-17.0-1.29","SS1604610420062","<img src='images/simple/14.png' width ='500' height = '500' style='border:5px solid black'>","40","mixed_complex_deviant","images/simple/2.png","images/simple/14.png","images/complex/9.png,images/complex/12.png,images/complex/15.png,images/complex/4.png,images/complex/18.png,images/complex/2.png,images/complex/14.png","1","null","","200","425.9750000666827","","","","background","",""
"","null","html-keyboard-response","174","252659","0.0-17.0-0.30","SS1604610420062","","null","","","","","","","","","","","","<img src=images/blank.png width =""500"" height = ""500"" style=""border:5px solid black"">","","",""
"","117.4550000578165","stimulus-presentation","175","252979","0.0-17.0-1.30","SS1604610420062","<img src='images/simple/14.png' width ='500' height = '500' style='border:5px solid black'>","40","mixed_complex_deviant","images/simple/2.png","images/simple/14.png","images/complex/9.png,images/complex/12.png,images/complex/15.png,images/complex/4.png,images/complex/18.png,images/complex/2.png,images/complex/14.png","1","null","","200","317.4550000578165","","","","background","",""
"","null","html-keyboard-response","176","254025","0.0-17.0-0.31","SS1604610420062","","null","","","","","","","","","","","","<img src=images/blank.png width =""500"" height = ""500"" style=""border:5px solid black"">","","",""
"","922.4000000394881","stimulus-presentation","177","255151","0.0-17.0-1.31","SS1604610420062","<img src='images/simple/2.png' width ='500' height = '500' style='border:5px solid black'>","40","mixed_complex_deviant","images/simple/2.png","images/simple/14.png","images/complex/9.png,images/complex/12.png,images/complex/15.png,images/complex/4.png,images/complex/18.png,images/complex/2.png,images/complex/14.png","1","null","","200","1122.400000039488","yes","235.66999996546656","","target","",""
"","null","html-keyboard-response","178","256388","0.0-17.0-0.32","SS1604610420062","","null","","","","","","","","","","","","<img src=images/blank.png width =""500"" height = ""500"" style=""border:5px solid black"">","","",""
"","864.1200000420213","stimulus-presentation","179","257457","0.0-17.0-1.32","SS1604610420062","<img src='images/simple/2.png' width ='500' height = '500' style='border:5px solid black'>","40","mixed_complex_deviant","images/simple/2.png","images/simple/14.png","images/complex/9.png,images/complex/12.png,images/complex/15.png,images/complex/4.png,images/complex/18.png,images/complex/2.png,images/complex/14.png","1","null","","200","1064.1200000420213","yes","200.70000004488975","","target","",""
"","null","html-keyboard-response","180","258392","0.0-17.0-0.33","SS1604610420062","","null","","","","","","","","","","","","<img src=images/blank.png width =""500"" height = ""500"" style=""border:5px solid black"">","","",""
"","804.9650000175461","stimulus-presentation","181","259403","0.0-17.0-1.33","SS1604610420062","<img src='images/simple/2.png' width ='500' height = '500' style='border:5px solid black'>","40","mixed_complex_deviant","images/simple/2.png","images/simple/14.png","images/complex/9.png,images/complex/12.png,images/complex/15.png,images/complex/4.png,images/complex/18.png,images/complex/2.png,images/complex/14.png","1","null","","200","1004.9650000175461","yes","163.61499996855855","","target","",""
"","null","html-keyboard-response","182","260417","0.0-17.0-0.34","SS1604610420062","","null","","","","","","","","","","","","<img src=images/blank.png width =""500"" height = ""500"" style=""border:5px solid black"">","","",""
"","268.5899999924004","stimulus-presentation","183","260888","0.0-17.0-1.34","SS1604610420062","<img src='images/simple/14.png' width ='500' height = '500' style='border:5px solid black'>","40","mixed_complex_deviant","images/simple/2.png","images/simple/14.png","images/complex/9.png,images/complex/12.png,images/complex/15.png,images/complex/4.png,images/complex/18.png,images/complex/2.png,images/complex/14.png","1","null","","200","468.5899999924004","","","","background","",""
"","null","html-keyboard-response","184","262128","0.0-17.0-0.35","SS1604610420062","","null","","","","","","","","","","","","<img src=images/blank.png width =""500"" height = ""500"" style=""border:5px solid black"">","","",""
"","175.21499993745238","stimulus-presentation","185","262509","0.0-17.0-1.35","SS1604610420062","<img src='images/simple/14.png' width ='500' height = '500' style='border:5px solid black'>","40","mixed_complex_deviant","images/simple/2.png","images/simple/14.png","images/complex/9.png,images/complex/12.png,images/complex/15.png,images/complex/4.png,images/complex/18.png,images/complex/2.png,images/complex/14.png","1","null","","200","375.2149999374524","","","","background","",""
"","null","html-keyboard-response","186","263330","0.0-17.0-0.36","SS1604610420062","","null","","","","","","","","","","","","<img src=images/blank.png width =""500"" height = ""500"" style=""border:5px solid black"">","","",""
"","256.4499999862164","stimulus-presentation","187","263791","0.0-17.0-1.36","SS1604610420062","<img src='images/simple/14.png' width ='500' height = '500' style='border:5px solid black'>","40","mixed_complex_deviant","images/simple/2.png","images/simple/14.png","images/complex/9.png,images/complex/12.png,images/complex/15.png,images/complex/4.png,images/complex/18.png,images/complex/2.png,images/complex/14.png","1","null","","200","456.4499999862164","","","","background","",""
"","null","html-keyboard-response","188","264907","0.0-17.0-0.37","SS1604610420062","","null","","","","","","","","","","","","<img src=images/blank.png width =""500"" height = ""500"" style=""border:5px solid black"">","","",""
"","187.6599999377504","stimulus-presentation","189","265298","0.0-17.0-1.37","SS1604610420062","<img src='images/simple/14.png' width ='500' height = '500' style='border:5px solid black'>","40","mixed_complex_deviant","images/simple/2.png","images/simple/14.png","images/complex/9.png,images/complex/12.png,images/complex/15.png,images/complex/4.png,images/complex/18.png,images/complex/2.png,images/complex/14.png","1","null","","200","387.6599999377504","","","","background","",""
"","null","html-keyboard-response","190","266187","0.0-17.0-0.38","SS1604610420062","","null","","","","","","","","","","","","<img src=images/blank.png width =""500"" height = ""500"" style=""border:5px solid black"">","","",""
"","186.43499992322177","stimulus-presentation","191","266581","0.0-17.0-1.38","SS1604610420062","<img src='images/simple/14.png' width ='500' height = '500' style='border:5px solid black'>","40","mixed_complex_deviant","images/simple/2.png","images/simple/14.png","images/complex/9.png,images/complex/12.png,images/complex/15.png,images/complex/4.png,images/complex/18.png,images/complex/2.png,images/complex/14.png","1","null","","200","386.43499992322177","","","","background","",""
"","null","html-keyboard-response","192","267413","0.0-17.0-0.39","SS1604610420062","","null","","","","","","","","","","","","<img src=images/blank.png width =""500"" height = ""500"" style=""border:5px solid black"">","","",""
"","165.94499989878386","stimulus-presentation","193","267785","0.0-17.0-1.39","SS1604610420062","<img src='images/simple/14.png' width ='500' height = '500' style='border:5px solid black'>","40","mixed_complex_deviant","images/simple/2.png","images/simple/14.png","images/complex/9.png,images/complex/12.png,images/complex/15.png,images/complex/4.png,images/complex/18.png,images/complex/2.png,images/complex/14.png","1","null","","200","365.94499989878386","","","","background","",""
"","null","html-keyboard-response","194","268967","0.0-17.0-0.40","SS1604610420062","","null","","","","","","","","","","","","<img src=images/blank.png width =""500"" height = ""500"" style=""border:5px solid black"">","","",""
"","156.2599999597296","stimulus-presentation","195","269326","0.0-17.0-1.40","SS1604610420062","<img src='images/simple/14.png' width ='500' height = '500' style='border:5px solid black'>","40","mixed_complex_deviant","images/simple/2.png","images/simple/14.png","images/complex/9.png,images/complex/12.png,images/complex/15.png,images/complex/4.png,images/complex/18.png,images/complex/2.png,images/complex/14.png","1","null","","200","356.2599999597296","","","","background","",""
"","null","html-keyboard-response","196","270285","0.0-17.0-0.41","SS1604610420062","","null","","","","","","","","","","","","<img src=images/blank.png width =""500"" height = ""500"" style=""border:5px solid black"">","","",""
"","402.5499999988824","stimulus-presentation","197","270890","0.0-17.0-1.41","SS1604610420062","<img src='images/complex/2.png' width ='500' height = '500' style='border:5px solid black'>","40","mixed_complex_deviant","images/simple/2.png","images/simple/14.png","images/complex/9.png,images/complex/12.png,images/complex/15.png,images/complex/4.png,images/complex/18.png,images/complex/2.png,images/complex/14.png","1","null","","200","602.5499999988824","","","","deviant","",""
"","null","html-keyboard-response","198","271812","0.0-17.0-0.42","SS1604610420062","","null","","","","","","","","","","","","<img src=images/blank.png width =""500"" height = ""500"" style=""border:5px solid black"">","","",""
"","247.60000000242144","stimulus-presentation","199","272262","0.0-17.0-1.42","SS1604610420062","<img src='images/simple/14.png' width ='500' height = '500' style='border:5px solid black'>","40","mixed_complex_deviant","images/simple/2.png","images/simple/14.png","images/complex/9.png,images/complex/12.png,images/complex/15.png,images/complex/4.png,images/complex/18.png,images/complex/2.png,images/complex/14.png","1","null","","200","447.60000000242144","","","","background","",""
"","null","html-keyboard-response","200","273401","0.0-17.0-0.43","SS1604610420062","","null","","","","","","","","","","","","<img src=images/blank.png width =""500"" height = ""500"" style=""border:5px solid black"">","","",""
"","166.51000001002103","stimulus-presentation","201","273771","0.0-17.0-1.43","SS1604610420062","<img src='images/simple/14.png' width ='500' height = '500' style='border:5px solid black'>","40","mixed_complex_deviant","images/simple/2.png","images/simple/14.png","images/complex/9.png,images/complex/12.png,images/complex/15.png,images/complex/4.png,images/complex/18.png,images/complex/2.png,images/complex/14.png","1","null","","200","366.51000001002103","","","","background","",""
"","null","html-keyboard-response","202","274686","0.0-17.0-0.44","SS1604610420062","","null","","","","","","","","","","","","<img src=images/blank.png width =""500"" height = ""500"" style=""border:5px solid black"">","","",""
"","185.3300000075251","stimulus-presentation","203","275075","0.0-17.0-1.44","SS1604610420062","<img src='images/simple/14.png' width ='500' height = '500' style='border:5px solid black'>","40","mixed_complex_deviant","images/simple/2.png","images/simple/14.png","images/complex/9.png,images/complex/12.png,images/complex/15.png,images/complex/4.png,images/complex/18.png,images/complex/2.png,images/complex/14.png","1","null","","200","385.3300000075251","","","","background","",""
"","null","html-keyboard-response","204","276350","0.0-17.0-0.45","SS1604610420062","","null","","","","","","","","","","","","<img src=images/blank.png width =""500"" height = ""500"" style=""border:5px solid black"">","","",""
"","330.6549999397248","stimulus-presentation","205","276886","0.0-17.0-1.45","SS1604610420062","<img src='images/complex/18.png' width ='500' height = '500' style='border:5px solid black'>","40","mixed_complex_deviant","images/simple/2.png","images/simple/14.png","images/complex/9.png,images/complex/12.png,images/complex/15.png,images/complex/4.png,images/complex/18.png,images/complex/2.png,images/complex/14.png","1","null","","200","530.6549999397248","","","","deviant","",""
"","null","html-keyboard-response","206","277897","0.0-17.0-0.46","SS1604610420062","","null","","","","","","","","","","","","<img src=images/blank.png width =""500"" height = ""500"" style=""border:5px solid black"">","","",""
"","131.47500006016344","stimulus-presentation","207","278237","0.0-17.0-1.46","SS1604610420062","<img src='images/simple/14.png' width ='500' height = '500' style='border:5px solid black'>","40","mixed_complex_deviant","images/simple/2.png","images/simple/14.png","images/complex/9.png,images/complex/12.png,images/complex/15.png,images/complex/4.png,images/complex/18.png,images/complex/2.png,images/complex/14.png","1","null","","200","331.47500006016344","","","","background","",""
"","null","html-keyboard-response","208","279252","0.0-17.0-0.47","SS1604610420062","","null","","","","","","","","","","","","<img src=images/blank.png width =""500"" height = ""500"" style=""border:5px solid black"">","","",""
"","176.10500007867813","stimulus-presentation","209","279632","0.0-17.0-1.47","SS1604610420062","<img src='images/simple/14.png' width ='500' height = '500' style='border:5px solid black'>","40","mixed_complex_deviant","images/simple/2.png","images/simple/14.png","images/complex/9.png,images/complex/12.png,images/complex/15.png,images/complex/4.png,images/complex/18.png,images/complex/2.png,images/complex/14.png","1","null","","200","376.10500007867813","","","","background","",""
"","null","html-keyboard-response","210","280893","0.0-17.0-0.48","SS1604610420062","","null","","","","","","","","","","","","<img src=images/blank.png width =""500"" height = ""500"" style=""border:5px solid black"">","","",""
"","1187.0050000725314","stimulus-presentation","211","282286","0.0-17.0-1.48","SS1604610420062","<img src='images/simple/2.png' width ='500' height = '500' style='border:5px solid black'>","40","mixed_complex_deviant","images/simple/2.png","images/simple/14.png","images/complex/9.png,images/complex/12.png,images/complex/15.png,images/complex/4.png,images/complex/18.png,images/complex/2.png,images/complex/14.png","1","null","","200","1387.0050000725314","yes","343.3550000190735","","target","",""
"[{""page_index"":0,""viewing_time"":2659}]","2659","task-instructions","212","284948","0.0-18.0","SS1604610420062","","","","","","","","","","","","","","","","",""
"[{""page_index"":0,""viewing_time"":2685.479999985546},{""page_index"":1,""viewing_time"":2711.4000000292435},{""page_index"":2,""viewing_time"":1305.034999968484}]","6702.090000035241","instructions","213","291653","0.0-19.0","SS1604610420062","","","","","","","","","","","","","","","","",""
"","null","html-keyboard-response","214","292955","0.0-20.0-0.0","SS1604610420062","","null","","","","","","","","","","","","<img src=images/blank.png width =""500"" height = ""500"" style=""border:5px solid black"">","","",""
"","244.01000002399087","stimulus-presentation","215","293403","0.0-20.0-1.0","SS1604610420062","<img src='images/complex/5.png' width ='500' height = '500' style='border:5px solid black'>","40","all_complex","images/complex/17.png","images/complex/7.png","images/complex/11.png,images/complex/3.png,images/complex/6.png,images/complex/1.png,images/complex/16.png,images/complex/10.png,images/complex/5.png","2","null","","200","444.01000002399087","","","","deviant","",""
"","null","html-keyboard-response","216","294371","0.0-20.0-0.1","SS1604610420062","","null","","","","","","","","","","","","<img src=images/blank.png width =""500"" height = ""500"" style=""border:5px solid black"">","","",""
"","232.3399999877438","stimulus-presentation","217","294808","0.0-20.0-1.1","SS1604610420062","<img src='images/complex/7.png' width ='500' height = '500' style='border:5px solid black'>","40","all_complex","images/complex/17.png","images/complex/7.png","images/complex/11.png,images/complex/3.png,images/complex/6.png,images/complex/1.png,images/complex/16.png,images/complex/10.png,images/complex/5.png","2","null","","200","432.3399999877438","","","","background","",""
"","null","html-keyboard-response","218","295718","0.0-20.0-0.2","SS1604610420062","","null","","","","","","","","","","","","<img src=images/blank.png width =""500"" height = ""500"" style=""border:5px solid black"">","","",""
"","292.6699999952689","stimulus-presentation","219","296214","0.0-20.0-1.2","SS1604610420062","<img src='images/complex/7.png' width ='500' height = '500' style='border:5px solid black'>","40","all_complex","images/complex/17.png","images/complex/7.png","images/complex/11.png,images/complex/3.png,images/complex/6.png,images/complex/1.png,images/complex/16.png,images/complex/10.png,images/complex/5.png","2","null","","200","492.6699999952689","","","","background","",""
"","null","html-keyboard-response","220","297215","0.0-20.0-0.3","SS1604610420062","","null","","","","","","","","","","","","<img src=images/blank.png width =""500"" height = ""500"" style=""border:5px solid black"">","","",""
"","156.0849999077618","stimulus-presentation","221","297576","0.0-20.0-1.3","SS1604610420062","<img src='images/complex/7.png' width ='500' height = '500' style='border:5px solid black'>","40","all_complex","images/complex/17.png","images/complex/7.png","images/complex/11.png,images/complex/3.png,images/complex/6.png,images/complex/1.png,images/complex/16.png,images/complex/10.png,images/complex/5.png","2","null","","200","356.0849999077618","","","","background","",""
"","null","html-keyboard-response","222","298531","0.0-20.0-0.4","SS1604610420062","","null","","","","","","","","","","","","<img src=images/blank.png width =""500"" height = ""500"" style=""border:5px solid black"">","","",""
"","457.1700000669807","stimulus-presentation","223","299195","0.0-20.0-1.4","SS1604610420062","<img src='images/complex/11.png' width ='500' height = '500' style='border:5px solid black'>","40","all_complex","images/complex/17.png","images/complex/7.png","images/complex/11.png,images/complex/3.png,images/complex/6.png,images/complex/1.png,images/complex/16.png,images/complex/10.png,images/complex/5.png","2","null","","200","657.1700000669807","","","","deviant","",""
"","null","html-keyboard-response","224","300319","0.0-20.0-0.5","SS1604610420062","","null","","","","","","","","","","","","<img src=images/blank.png width =""500"" height = ""500"" style=""border:5px solid black"">","","",""
"","201.11000002361834","stimulus-presentation","225","300726","0.0-20.0-1.5","SS1604610420062","<img src='images/complex/7.png' width ='500' height = '500' style='border:5px solid black'>","40","all_complex","images/complex/17.png","images/complex/7.png","images/complex/11.png,images/complex/3.png,images/complex/6.png,images/complex/1.png,images/complex/16.png,images/complex/10.png,images/complex/5.png","2","null","","200","401.11000002361834","","","","background","",""
"","null","html-keyboard-response","226","302020","0.0-20.0-0.6","SS1604610420062","","null","","","","","","","","","","","","<img src=images/blank.png width =""500"" height = ""500"" style=""border:5px solid black"">","","",""
"","917.0600000070408","stimulus-presentation","227","303144","0.0-20.0-1.6","SS1604610420062","<img src='images/complex/17.png' width ='500' height = '500' style='border:5px solid black'>","40","all_complex","images/complex/17.png","images/complex/7.png","images/complex/11.png,images/complex/3.png,images/complex/6.png,images/complex/1.png,images/complex/16.png,images/complex/10.png,images/complex/5.png","2","null","","200","1117.0600000070408","yes","287.46500005945563","","target","",""
"","null","html-keyboard-response","228","304044","0.0-20.0-0.7","SS1604610420062","","null","","","","","","","","","","","","<img src=images/blank.png width =""500"" height = ""500"" style=""border:5px solid black"">","","",""
"","224.7699999716133","stimulus-presentation","229","304472","0.0-20.0-1.7","SS1604610420062","<img src='images/complex/7.png' width ='500' height = '500' style='border:5px solid black'>","40","all_complex","images/complex/17.png","images/complex/7.png","images/complex/11.png,images/complex/3.png,images/complex/6.png,images/complex/1.png,images/complex/16.png,images/complex/10.png,images/complex/5.png","2","null","","200","424.7699999716133","","","","background","",""
"","null","html-keyboard-response","230","305506","0.0-20.0-0.8","SS1604610420062","","null","","","","","","","","","","","","<img src=images/blank.png width =""500"" height = ""500"" style=""border:5px solid black"">","","",""
"","178.67000005207956","stimulus-presentation","231","305890","0.0-20.0-1.8","SS1604610420062","<img src='images/complex/7.png' width ='500' height = '500' style='border:5px solid black'>","40","all_complex","images/complex/17.png","images/complex/7.png","images/complex/11.png,images/complex/3.png,images/complex/6.png,images/complex/1.png,images/complex/16.png,images/complex/10.png,images/complex/5.png","2","null","","200","378.67000005207956","","","","background","",""
"","null","html-keyboard-response","232","306971","0.0-20.0-0.9","SS1604610420062","","null","","","","","","","","","","","","<img src=images/blank.png width =""500"" height = ""500"" style=""border:5px solid black"">","","",""
"","919.095000019297","stimulus-presentation","233","308094","0.0-20.0-1.9","SS1604610420062","<img src='images/complex/17.png' width ='500' height = '500' style='border:5px solid black'>","40","all_complex","images/complex/17.png","images/complex/7.png","images/complex/11.png,images/complex/3.png,images/complex/6.png,images/complex/1.png,images/complex/16.png,images/complex/10.png,images/complex/5.png","2","null","","200","1119.095000019297","yes","288.79000002052635","","target","",""
"","null","html-keyboard-response","234","309093","0.0-20.0-0.10","SS1604610420062","","null","","","","","","","","","","","","<img src=images/blank.png width =""500"" height = ""500"" style=""border:5px solid black"">","","",""
"","193.7299999408424","stimulus-presentation","235","309490","0.0-20.0-1.10","SS1604610420062","<img src='images/complex/10.png' width ='500' height = '500' style='border:5px solid black'>","40","all_complex","images/complex/17.png","images/complex/7.png","images/complex/11.png,images/complex/3.png,images/complex/6.png,images/complex/1.png,images/complex/16.png,images/complex/10.png,images/complex/5.png","2","null","","200","393.7299999408424","","","","deviant","",""
"","null","html-keyboard-response","236","310739","0.0-20.0-0.11","SS1604610420062","","null","","","","","","","","","","","","<img src=images/blank.png width =""500"" height = ""500"" style=""border:5px solid black"">","","",""
"","152.37500006332994","stimulus-presentation","237","311098","0.0-20.0-1.11","SS1604610420062","<img src='images/complex/7.png' width ='500' height = '500' style='border:5px solid black'>","40","all_complex","images/complex/17.png","images/complex/7.png","images/complex/11.png,images/complex/3.png,images/complex/6.png,images/complex/1.png,images/complex/16.png,images/complex/10.png,images/complex/5.png","2","null","","200","352.37500006332994","","","","background","",""
"","null","html-keyboard-response","238","312013","0.0-20.0-0.12","SS1604610420062","","null","","","","","","","","","","","","<img src=images/blank.png width =""500"" height = ""500"" style=""border:5px solid black"">","","",""
"","116.76500004250556","stimulus-presentation","239","312336","0.0-20.0-1.12","SS1604610420062","<img src='images/complex/7.png' width ='500' height = '500' style='border:5px solid black'>","40","all_complex","images/complex/17.png","images/complex/7.png","images/complex/11.png,images/complex/3.png,images/complex/6.png,images/complex/1.png,images/complex/16.png,images/complex/10.png,images/complex/5.png","2","null","","200","316.76500004250556","","","","background","",""
"","null","html-keyboard-response","240","313597","0.0-20.0-0.13","SS1604610420062","","null","","","","","","","","","","","","<img src=images/blank.png width =""500"" height = ""500"" style=""border:5px solid black"">","","",""
"","200.42500004637986","stimulus-presentation","241","314001","0.0-20.0-1.13","SS1604610420062","<img src='images/complex/7.png' width ='500' height = '500' style='border:5px solid black'>","40","all_complex","images/complex/17.png","images/complex/7.png","images/complex/11.png,images/complex/3.png,images/complex/6.png,images/complex/1.png,images/complex/16.png,images/complex/10.png,images/complex/5.png","2","null","","200","400.42500004637986","","","","background","",""
"","null","html-keyboard-response","242","314818","0.0-20.0-0.14","SS1604610420062","","null","","","","","","","","","","","","<img src=images/blank.png width =""500"" height = ""500"" style=""border:5px solid black"">","","",""
"","147.9099999414757","stimulus-presentation","243","315171","0.0-20.0-1.14","SS1604610420062","<img src='images/complex/7.png' width ='500' height = '500' style='border:5px solid black'>","40","all_complex","images/complex/17.png","images/complex/7.png","images/complex/11.png,images/complex/3.png,images/complex/6.png,images/complex/1.png,images/complex/16.png,images/complex/10.png,images/complex/5.png","2","null","","200","347.9099999414757","","","","background","",""
"","null","html-keyboard-response","244","316059","0.0-20.0-0.15","SS1604610420062","","null","","","","","","","","","","","","<img src=images/blank.png width =""500"" height = ""500"" style=""border:5px solid black"">","","",""
"","133.31000006292015","stimulus-presentation","245","316397","0.0-20.0-1.15","SS1604610420062","<img src='images/complex/17.png' width ='500' height = '500' style='border:5px solid black'>","40","all_complex","images/complex/17.png","images/complex/7.png","images/complex/11.png,images/complex/3.png,images/complex/6.png,images/complex/1.png,images/complex/16.png,images/complex/10.png,images/complex/5.png","2","null","","200","333.31000006292015","","","","target","",""
"","null","html-keyboard-response","246","317549","0.0-20.0-0.16","SS1604610420062","","null","","","","","","","","","","","","<img src=images/blank.png width =""500"" height = ""500"" style=""border:5px solid black"">","","",""
"","350.31000000890344","stimulus-presentation","247","318107","0.0-20.0-1.16","SS1604610420062","<img src='images/complex/7.png' width ='500' height = '500' style='border:5px solid black'>","40","all_complex","images/complex/17.png","images/complex/7.png","images/complex/11.png,images/complex/3.png,images/complex/6.png,images/complex/1.png,images/complex/16.png,images/complex/10.png,images/complex/5.png","2","null","","200","550.3100000089034","","","","background","",""
"","null","html-keyboard-response","248","318976","0.0-20.0-0.17","SS1604610420062","","null","","","","","","","","","","","","<img src=images/blank.png width =""500"" height = ""500"" style=""border:5px solid black"">","","",""
"","207.93500007130206","stimulus-presentation","249","319390","0.0-20.0-1.17","SS1604610420062","<img src='images/complex/7.png' width ='500' height = '500' style='border:5px solid black'>","40","all_complex","images/complex/17.png","images/complex/7.png","images/complex/11.png,images/complex/3.png,images/complex/6.png,images/complex/1.png,images/complex/16.png,images/complex/10.png,images/complex/5.png","2","null","","200","407.93500007130206","","","","background","",""
"","null","html-keyboard-response","250","320665","0.0-20.0-0.18","SS1604610420062","","null","","","","","","","","","","","","<img src=images/blank.png width =""500"" height = ""500"" style=""border:5px solid black"">","","",""
"","444.275000016205","stimulus-presentation","251","321314","0.0-20.0-1.18","SS1604610420062","<img src='images/complex/3.png' width ='500' height = '500' style='border:5px solid black'>","40","all_complex","images/complex/17.png","images/complex/7.png","images/complex/11.png,images/complex/3.png,images/complex/6.png,images/complex/1.png,images/complex/16.png,images/complex/10.png,images/complex/5.png","2","null","","200","644.275000016205","","","","deviant","",""
"","null","html-keyboard-response","252","322428","0.0-20.0-0.19","SS1604610420062","","null","","","","","","","","","","","","<img src=images/blank.png width =""500"" height = ""500"" style=""border:5px solid black"">","","",""
"","1110.4599999962375","stimulus-presentation","253","323744","0.0-20.0-1.19","SS1604610420062","<img src='images/complex/17.png' width ='500' height = '500' style='border:5px solid black'>","40","all_complex","images/complex/17.png","images/complex/7.png","images/complex/11.png,images/complex/3.png,images/complex/6.png,images/complex/1.png,images/complex/16.png,images/complex/10.png,images/complex/5.png","2","null","","200","1310.4599999962375","yes","323.60000000335276","","target","",""
"","null","html-keyboard-response","254","325020","0.0-20.0-0.20","SS1604610420062","","null","","","","","","","","","","","","<img src=images/blank.png width =""500"" height = ""500"" style=""border:5px solid black"">","","",""
"","192.45500001125038","stimulus-presentation","255","325420","0.0-20.0-1.20","SS1604610420062","<img src='images/complex/7.png' width ='500' height = '500' style='border:5px solid black'>","40","all_complex","images/complex/17.png","images/complex/7.png","images/complex/11.png,images/complex/3.png,images/complex/6.png,images/complex/1.png,images/complex/16.png,images/complex/10.png,images/complex/5.png","2","null","","200","392.4550000112504","","","","background","",""
"","null","html-keyboard-response","256","326275","0.0-20.0-0.21","SS1604610420062","","null","","","","","","","","","","","","<img src=images/blank.png width =""500"" height = ""500"" style=""border:5px solid black"">","","",""
"","456.19499997701496","stimulus-presentation","257","326940","0.0-20.0-1.21","SS1604610420062","<img src='images/complex/16.png' width ='500' height = '500' style='border:5px solid black'>","40","all_complex","images/complex/17.png","images/complex/7.png","images/complex/11.png,images/complex/3.png,images/complex/6.png,images/complex/1.png,images/complex/16.png,images/complex/10.png,images/complex/5.png","2","null","","200","656.194999977015","","","","deviant","",""
"","null","html-keyboard-response","258","327984","0.0-20.0-0.22","SS1604610420062","","null","","","","","","","","","","","","<img src=images/blank.png width =""500"" height = ""500"" style=""border:5px solid black"">","","",""
"","289.2449999926612","stimulus-presentation","259","328480","0.0-20.0-1.22","SS1604610420062","<img src='images/complex/7.png' width ='500' height = '500' style='border:5px solid black'>","40","all_complex","images/complex/17.png","images/complex/7.png","images/complex/11.png,images/complex/3.png,images/complex/6.png,images/complex/1.png,images/complex/16.png,images/complex/10.png,images/complex/5.png","2","null","","200","489.2449999926612","","","","background","",""
"","null","html-keyboard-response","260","329297","0.0-20.0-0.23","SS1604610420062","","null","","","","","","","","","","","","<img src=images/blank.png width =""500"" height = ""500"" style=""border:5px solid black"">","","",""
"","632.2299999883398","stimulus-presentation","261","330134","0.0-20.0-1.23","SS1604610420062","<img src='images/complex/7.png' width ='500' height = '500' style='border:5px solid black'>","40","all_complex","images/complex/17.png","images/complex/7.png","images/complex/11.png,images/complex/3.png,images/complex/6.png,images/complex/1.png,images/complex/16.png,images/complex/10.png,images/complex/5.png","2","null","","200","832.2299999883398","","","","background","",""
"","null","html-keyboard-response","262","331163","0.0-20.0-0.24","SS1604610420062","","null","","","","","","","","","","","","<img src=images/blank.png width =""500"" height = ""500"" style=""border:5px solid black"">","","",""
"","226.89000004902482","stimulus-presentation","263","331596","0.0-20.0-1.24","SS1604610420062","<img src='images/complex/7.png' width ='500' height = '500' style='border:5px solid black'>","40","all_complex","images/complex/17.png","images/complex/7.png","images/complex/11.png,images/complex/3.png,images/complex/6.png,images/complex/1.png,images/complex/16.png,images/complex/10.png,images/complex/5.png","2","null","","200","426.8900000490248","","","","background","",""
"","null","html-keyboard-response","264","332609","0.0-20.0-0.25","SS1604610420062","","null","","","","","","","","","","","","<img src=images/blank.png width =""500"" height = ""500"" style=""border:5px solid black"">","","",""
"","267.7949999924749","stimulus-presentation","265","333082","0.0-20.0-1.25","SS1604610420062","<img src='images/complex/7.png' width ='500' height = '500' style='border:5px solid black'>","40","all_complex","images/complex/17.png","images/complex/7.png","images/complex/11.png,images/complex/3.png,images/complex/6.png,images/complex/1.png,images/complex/16.png,images/complex/10.png,images/complex/5.png","2","null","","200","467.7949999924749","","","","background","",""
"","null","html-keyboard-response","266","334013","0.0-20.0-0.26","SS1604610420062","","null","","","","","","","","","","","","<img src=images/blank.png width =""500"" height = ""500"" style=""border:5px solid black"">","","",""
"","212.83000009134412","stimulus-presentation","267","334431","0.0-20.0-1.26","SS1604610420062","<img src='images/complex/7.png' width ='500' height = '500' style='border:5px solid black'>","40","all_complex","images/complex/17.png","images/complex/7.png","images/complex/11.png,images/complex/3.png,images/complex/6.png,images/complex/1.png,images/complex/16.png,images/complex/10.png,images/complex/5.png","2","null","","200","412.8300000913441","","","","background","",""
"","null","html-keyboard-response","268","335485","0.0-20.0-0.27","SS1604610420062","","null","","","","","","","","","","","","<img src=images/blank.png width =""500"" height = ""500"" style=""border:5px solid black"">","","",""
"","170.3599999891594","stimulus-presentation","269","335860","0.0-20.0-1.27","SS1604610420062","<img src='images/complex/7.png' width ='500' height = '500' style='border:5px solid black'>","40","all_complex","images/complex/17.png","images/complex/7.png","images/complex/11.png,images/complex/3.png,images/complex/6.png,images/complex/1.png,images/complex/16.png,images/complex/10.png,images/complex/5.png","2","null","","200","370.3599999891594","","","","background","",""
"","null","html-keyboard-response","270","337062","0.0-20.0-0.28","SS1604610420062","","null","","","","","","","","","","","","<img src=images/blank.png width =""500"" height = ""500"" style=""border:5px solid black"">","","",""
"","178.9000000571832","stimulus-presentation","271","337448","0.0-20.0-1.28","SS1604610420062","<img src='images/complex/7.png' width ='500' height = '500' style='border:5px solid black'>","40","all_complex","images/complex/17.png","images/complex/7.png","images/complex/11.png,images/complex/3.png,images/complex/6.png,images/complex/1.png,images/complex/16.png,images/complex/10.png,images/complex/5.png","2","null","","200","378.9000000571832","","","","background","",""
"","null","html-keyboard-response","272","338297","0.0-20.0-0.29","SS1604610420062","","null","","","","","","","","","","","","<img src=images/blank.png width =""500"" height = ""500"" style=""border:5px solid black"">","","",""
"","147.25000003818423","stimulus-presentation","273","338650","0.0-20.0-1.29","SS1604610420062","<img src='images/complex/7.png' width ='500' height = '500' style='border:5px solid black'>","40","all_complex","images/complex/17.png","images/complex/7.png","images/complex/11.png,images/complex/3.png,images/complex/6.png,images/complex/1.png,images/complex/16.png,images/complex/10.png,images/complex/5.png","2","null","","200","347.2500000381842","","","","background","",""
"","null","html-keyboard-response","274","339471","0.0-20.0-0.30","SS1604610420062","","null","","","","","","","","","","","","<img src=images/blank.png width =""500"" height = ""500"" style=""border:5px solid black"">","","",""
"","209.10000009462237","stimulus-presentation","275","339888","0.0-20.0-1.30","SS1604610420062","<img src='images/complex/7.png' width ='500' height = '500' style='border:5px solid black'>","40","all_complex","images/complex/17.png","images/complex/7.png","images/complex/11.png,images/complex/3.png,images/complex/6.png,images/complex/1.png,images/complex/16.png,images/complex/10.png,images/complex/5.png","2","null","","200","409.1000000946224","","","","background","",""
"","null","html-keyboard-response","276","341146","0.0-20.0-0.31","SS1604610420062","","null","","","","","","","","","","","","<img src=images/blank.png width =""500"" height = ""500"" style=""border:5px solid black"">","","",""
"","300.16000010073185","stimulus-presentation","277","341654","0.0-20.0-1.31","SS1604610420062","<img src='images/complex/6.png' width ='500' height = '500' style='border:5px solid black'>","40","all_complex","images/complex/17.png","images/complex/7.png","images/complex/11.png,images/complex/3.png,images/complex/6.png,images/complex/1.png,images/complex/16.png,images/complex/10.png,images/complex/5.png","2","null","","200","500.16000010073185","","","","deviant","",""
"","null","html-keyboard-response","278","342846","0.0-20.0-0.32","SS1604610420062","","null","","","","","","","","","","","","<img src=images/blank.png width =""500"" height = ""500"" style=""border:5px solid black"">","","",""
"","301.4999999431893","stimulus-presentation","279","343352","0.0-20.0-1.32","SS1604610420062","<img src='images/complex/7.png' width ='500' height = '500' style='border:5px solid black'>","40","all_complex","images/complex/17.png","images/complex/7.png","images/complex/11.png,images/complex/3.png,images/complex/6.png,images/complex/1.png,images/complex/16.png,images/complex/10.png,images/complex/5.png","2","null","","200","501.4999999431893","","","","background","",""
"","null","html-keyboard-response","280","344178","0.0-20.0-0.33","SS1604610420062","","null","","","","","","","","","","","","<img src=images/blank.png width =""500"" height = ""500"" style=""border:5px solid black"">","","",""
"","204.82000010088086","stimulus-presentation","281","344590","0.0-20.0-1.33","SS1604610420062","<img src='images/complex/7.png' width ='500' height = '500' style='border:5px solid black'>","40","all_complex","images/complex/17.png","images/complex/7.png","images/complex/11.png,images/complex/3.png,images/complex/6.png,images/complex/1.png,images/complex/16.png,images/complex/10.png,images/complex/5.png","2","null","","200","404.82000010088086","","","","background","",""
"","null","html-keyboard-response","282","345673","0.0-20.0-0.34","SS1604610420062","","null","","","","","","","","","","","","<img src=images/blank.png width =""500"" height = ""500"" style=""border:5px solid black"">","","",""
"","128.00499994773418","stimulus-presentation","283","346008","0.0-20.0-1.34","SS1604610420062","<img src='images/complex/7.png' width ='500' height = '500' style='border:5px solid black'>","40","all_complex","images/complex/17.png","images/complex/7.png","images/complex/11.png,images/complex/3.png,images/complex/6.png,images/complex/1.png,images/complex/16.png,images/complex/10.png,images/complex/5.png","2","null","","200","328.0049999477342","","","","background","",""
"","null","html-keyboard-response","284","347258","0.0-20.0-0.35","SS1604610420062","","null","","","","","","","","","","","","<img src=images/blank.png width =""500"" height = ""500"" style=""border:5px solid black"">","","",""
