"view_history","rt","trial_type","trial_index","time_elapsed","internal_node_id","subject","trial_stimulus","key_press","task_type","task_target_stimulus","task_background_stimulus","task_deviant_stimuli","task_order_number","block_order_number","trial_order_number","minimum_viewing_duration","trial_looking_time","trial_pressed_space_bar","trial_space_bar_rt","stimulus","trial_stimulus_type","responses","question_order"
"[{""page_index"":0,""viewing_time"":2945.7950000069104},{""page_index"":1,""viewing_time"":2070.07999997586},{""page_index"":2,""viewing_time"":976.9950000336394},{""page_index"":3,""viewing_time"":816.1250000121072},{""page_index"":4,""viewing_time"":760.2099999785423},{""page_index"":5,""viewing_time"":896.439999982249},{""page_index"":6,""viewing_time"":790.9250000375323},{""page_index"":7,""viewing_time"":504.419999953825}]","9762.90000003064","instructions","0","9766","0.0-0.0","SS1602797585862","","","","","","","","","","","","","","","","",""
"[{""page_index"":0,""viewing_time"":1089.8250000318512},{""page_index"":1,""viewing_time"":5808.175000012852},{""page_index"":2,""viewing_time"":1255.8849999913946}]","8154.615000006743","instructions","1","17924","0.0-1.0","SS1602797585862","","","","","","","","","","","","","","","","",""
"","1151.1249999748543","practice-block","2","19281","0.0-2.0","SS1602797585862","<img src='images/practice/practice_background.jpeg' width ='500' height = '500' style='border:5px solid black'>","40","null","images/practice/practice_target.jpg","null","null","null","null","","200","1351.1249999748543","","","","","",""
"","null","html-keyboard-response","3","20420","0.0-3.0","SS1602797585862","","null","","","","","","","","","","","","<img src=images/blank.png width =""500"" height = ""500"" style=""border:5px solid black"">","","",""
"","321.63999998010695","practice-block","4","20951","0.0-4.0","SS1602797585862","<img src='images/practice/practice_background.jpeg' width ='500' height = '500' style='border:5px solid black'>","40","null","images/practice/practice_target.jpg","null","null","null","null","","200","521.639999980107","","","","","",""
"","null","html-keyboard-response","5","22158","0.0-5.0","SS1602797585862","","null","","","","","","","","","","","","<img src=images/blank.png width =""500"" height = ""500"" style=""border:5px solid black"">","","",""
"","4238.669999991544","practice-block","6","26604","0.0-6.0","SS1602797585862","<img src='images/practice/practice_deviant.jpeg' width ='500' height = '500' style='border:5px solid black'>","40","null","images/practice/practice_target.jpg","null","null","null","null","","200","4438.669999991544","yes","618.384999979753","","","",""
"","null","html-keyboard-response","7","27466","0.0-7.0","SS1602797585862","","null","","","","","","","","","","","","<img src=images/blank.png width =""500"" height = ""500"" style=""border:5px solid black"">","","",""
"","4592.345000011846","practice-block","8","32265","0.0-8.0-0.0","SS1602797585862","<img src='images/practice/practice_target.jpg' width ='500' height = '500' style='border:5px solid black'>","40","null","images/practice/practice_target.jpg","null","null","null","null","","200","4792.345000011846","yes","2430.5049999966286","","","",""
"","null","html-keyboard-response","9","33227","0.0-9.0","SS1602797585862","","null","","","","","","","","","","","","<img src=images/blank.png width =""500"" height = ""500"" style=""border:5px solid black"">","","",""
"","269.72500002011657","practice-block","10","33704","0.0-10.0","SS1602797585862","<img src='images/practice/practice_background.jpeg' width ='500' height = '500' style='border:5px solid black'>","40","null","images/practice/practice_target.jpg","null","null","null","null","","200","469.72500002011657","","","","","",""
"[{""page_index"":0,""viewing_time"":1690}]","1691","task-instructions","11","35397","0.0-11.0","SS1602797585862","","","","","","","","","","","","","","","","",""
"[{""page_index"":0,""viewing_time"":683.5999999893829},{""page_index"":1,""viewing_time"":992.0200000051409},{""page_index"":2,""viewing_time"":704.0949999936856}]","2380.1749999984168","instructions","12","37780","0.0-12.0","SS1602797585862","","","","","","","","","","","","","","","","",""
"","null","html-keyboard-response","13","38627","0.0-13.0-0.0","SS1602797585862","","null","","","","","","","","","","","","<img src=images/blank.png width =""500"" height = ""500"" style=""border:5px solid black"">","","",""
"","2608.330000017304","stimulus-presentation","14","41447","0.0-13.0-1.0","SS1602797585862","<img src='images/complex/13.png' width ='500' height = '500' style='border:5px solid black'>","40","mixed_simple_deviant","images/complex/13.png","images/complex/17.png","images/simple/9.png,images/simple/8.png,images/simple/5.png,images/simple/4.png,images/simple/16.png,images/simple/12.png,images/simple/2.png","0","null","","200","2808.330000017304","yes","1617.8400000208057","","target","",""
"","null","html-keyboard-response","15","42671","0.0-13.0-0.1","SS1602797585862","","null","","","","","","","","","","","","<img src=images/blank.png width =""500"" height = ""500"" style=""border:5px solid black"">","","",""
"","387.5499999849126","stimulus-presentation","16","43265","0.0-13.0-1.1","SS1602797585862","<img src='images/complex/17.png' width ='500' height = '500' style='border:5px solid black'>","40","mixed_simple_deviant","images/complex/13.png","images/complex/17.png","images/simple/9.png,images/simple/8.png,images/simple/5.png,images/simple/4.png,images/simple/16.png,images/simple/12.png,images/simple/2.png","0","null","","200","587.5499999849126","","","","background","",""
"","null","html-keyboard-response","17","44459","0.0-13.0-0.2","SS1602797585862","","null","","","","","","","","","","","","<img src=images/blank.png width =""500"" height = ""500"" style=""border:5px solid black"">","","",""
"","269.22000001650304","stimulus-presentation","18","44936","0.0-13.0-1.2","SS1602797585862","<img src='images/complex/17.png' width ='500' height = '500' style='border:5px solid black'>","40","mixed_simple_deviant","images/complex/13.png","images/complex/17.png","images/simple/9.png,images/simple/8.png,images/simple/5.png,images/simple/4.png,images/simple/16.png,images/simple/12.png,images/simple/2.png","0","null","","200","469.22000001650304","","","","background","",""
"","null","html-keyboard-response","19","45999","0.0-13.0-0.3","SS1602797585862","","null","","","","","","","","","","","","<img src=images/blank.png width =""500"" height = ""500"" style=""border:5px solid black"">","","",""
"","241.72999995062128","stimulus-presentation","20","46448","0.0-13.0-1.3","SS1602797585862","<img src='images/complex/17.png' width ='500' height = '500' style='border:5px solid black'>","40","mixed_simple_deviant","images/complex/13.png","images/complex/17.png","images/simple/9.png,images/simple/8.png,images/simple/5.png,images/simple/4.png,images/simple/16.png,images/simple/12.png,images/simple/2.png","0","null","","200","441.7299999506213","","","","background","",""
"","null","html-keyboard-response","21","47448","0.0-13.0-0.4","SS1602797585862","","null","","","","","","","","","","","","<img src=images/blank.png width =""500"" height = ""500"" style=""border:5px solid black"">","","",""
"","392.1649999683723","stimulus-presentation","22","48050","0.0-13.0-1.4","SS1602797585862","<img src='images/simple/4.png' width ='500' height = '500' style='border:5px solid black'>","40","mixed_simple_deviant","images/complex/13.png","images/complex/17.png","images/simple/9.png,images/simple/8.png,images/simple/5.png,images/simple/4.png,images/simple/16.png,images/simple/12.png,images/simple/2.png","0","null","","200","592.1649999683723","","","","deviant","",""
"","null","html-keyboard-response","23","48959","0.0-13.0-0.5","SS1602797585862","","null","","","","","","","","","","","","<img src=images/blank.png width =""500"" height = ""500"" style=""border:5px solid black"">","","",""
"","311.67500000447035","stimulus-presentation","24","49481","0.0-13.0-1.5","SS1602797585862","<img src='images/complex/17.png' width ='500' height = '500' style='border:5px solid black'>","40","mixed_simple_deviant","images/complex/13.png","images/complex/17.png","images/simple/9.png,images/simple/8.png,images/simple/5.png,images/simple/4.png,images/simple/16.png,images/simple/12.png,images/simple/2.png","0","null","","200","511.67500000447035","","","","background","",""
"","null","html-keyboard-response","25","50765","0.0-13.0-0.6","SS1602797585862","","null","","","","","","","","","","","","<img src=images/blank.png width =""500"" height = ""500"" style=""border:5px solid black"">","","",""
"","349.4850000133738","stimulus-presentation","26","51321","0.0-13.0-1.6","SS1602797585862","<img src='images/complex/17.png' width ='500' height = '500' style='border:5px solid black'>","40","mixed_simple_deviant","images/complex/13.png","images/complex/17.png","images/simple/9.png,images/simple/8.png,images/simple/5.png,images/simple/4.png,images/simple/16.png,images/simple/12.png,images/simple/2.png","0","null","","200","549.4850000133738","","","","background","",""
"","null","html-keyboard-response","27","52271","0.0-13.0-0.7","SS1602797585862","","null","","","","","","","","","","","","<img src=images/blank.png width =""500"" height = ""500"" style=""border:5px solid black"">","","",""
"","467.59000001475215","stimulus-presentation","28","52945","0.0-13.0-1.7","SS1602797585862","<img src='images/complex/17.png' width ='500' height = '500' style='border:5px solid black'>","40","mixed_simple_deviant","images/complex/13.png","images/complex/17.png","images/simple/9.png,images/simple/8.png,images/simple/5.png,images/simple/4.png,images/simple/16.png,images/simple/12.png,images/simple/2.png","0","null","","200","667.5900000147521","","","","background","",""
"","null","html-keyboard-response","29","54234","0.0-13.0-0.8","SS1602797585862","","null","","","","","","","","","","","","<img src=images/blank.png width =""500"" height = ""500"" style=""border:5px solid black"">","","",""
"","399.62500002002344","stimulus-presentation","30","54844","0.0-13.0-1.8","SS1602797585862","<img src='images/complex/17.png' width ='500' height = '500' style='border:5px solid black'>","40","mixed_simple_deviant","images/complex/13.png","images/complex/17.png","images/simple/9.png,images/simple/8.png,images/simple/5.png,images/simple/4.png,images/simple/16.png,images/simple/12.png,images/simple/2.png","0","null","","200","599.6250000200234","","","","background","",""
"","null","html-keyboard-response","31","55757","0.0-13.0-0.9","SS1602797585862","","null","","","","","","","","","","","","<img src=images/blank.png width =""500"" height = ""500"" style=""border:5px solid black"">","","",""
"","430.67500001052395","stimulus-presentation","32","56394","0.0-13.0-1.9","SS1602797585862","<img src='images/complex/17.png' width ='500' height = '500' style='border:5px solid black'>","40","mixed_simple_deviant","images/complex/13.png","images/complex/17.png","images/simple/9.png,images/simple/8.png,images/simple/5.png,images/simple/4.png,images/simple/16.png,images/simple/12.png,images/simple/2.png","0","null","","200","630.675000010524","","","","background","",""
"","null","html-keyboard-response","33","57323","0.0-13.0-0.10","SS1602797585862","","null","","","","","","","","","","","","<img src=images/blank.png width =""500"" height = ""500"" style=""border:5px solid black"">","","",""
"","1405.7250000187196","stimulus-presentation","34","58936","0.0-13.0-1.10","SS1602797585862","<img src='images/complex/13.png' width ='500' height = '500' style='border:5px solid black'>","40","mixed_simple_deviant","images/complex/13.png","images/complex/17.png","images/simple/9.png,images/simple/8.png,images/simple/5.png,images/simple/4.png,images/simple/16.png,images/simple/12.png,images/simple/2.png","0","null","","200","1605.7250000187196","yes","797.9400000185706","","target","",""
"","null","html-keyboard-response","35","60185","0.0-13.0-0.11","SS1602797585862","","null","","","","","","","","","","","","<img src=images/blank.png width =""500"" height = ""500"" style=""border:5px solid black"">","","",""
"","315.279999980703","stimulus-presentation","36","60706","0.0-13.0-1.11","SS1602797585862","<img src='images/simple/2.png' width ='500' height = '500' style='border:5px solid black'>","40","mixed_simple_deviant","images/complex/13.png","images/complex/17.png","images/simple/9.png,images/simple/8.png,images/simple/5.png,images/simple/4.png,images/simple/16.png,images/simple/12.png,images/simple/2.png","0","null","","200","515.279999980703","","","","deviant","",""
"","null","html-keyboard-response","37","61641","0.0-13.0-0.12","SS1602797585862","","null","","","","","","","","","","","","<img src=images/blank.png width =""500"" height = ""500"" style=""border:5px solid black"">","","",""
"","347.6200000150129","stimulus-presentation","38","62199","0.0-13.0-1.12","SS1602797585862","<img src='images/complex/17.png' width ='500' height = '500' style='border:5px solid black'>","40","mixed_simple_deviant","images/complex/13.png","images/complex/17.png","images/simple/9.png,images/simple/8.png,images/simple/5.png,images/simple/4.png,images/simple/16.png,images/simple/12.png,images/simple/2.png","0","null","","200","547.6200000150129","","","","background","",""
"","null","html-keyboard-response","39","63333","0.0-13.0-0.13","SS1602797585862","","null","","","","","","","","","","","","<img src=images/blank.png width =""500"" height = ""500"" style=""border:5px solid black"">","","",""
"","252.2150000440888","stimulus-presentation","40","63792","0.0-13.0-1.13","SS1602797585862","<img src='images/complex/17.png' width ='500' height = '500' style='border:5px solid black'>","40","mixed_simple_deviant","images/complex/13.png","images/complex/17.png","images/simple/9.png,images/simple/8.png,images/simple/5.png,images/simple/4.png,images/simple/16.png,images/simple/12.png,images/simple/2.png","0","null","","200","452.2150000440888","","","","background","",""
"","null","html-keyboard-response","41","64911","0.0-13.0-0.14","SS1602797585862","","null","","","","","","","","","","","","<img src=images/blank.png width =""500"" height = ""500"" style=""border:5px solid black"">","","",""
"","204.15000000502914","stimulus-presentation","42","65322","0.0-13.0-1.14","SS1602797585862","<img src='images/complex/17.png' width ='500' height = '500' style='border:5px solid black'>","40","mixed_simple_deviant","images/complex/13.png","images/complex/17.png","images/simple/9.png,images/simple/8.png,images/simple/5.png,images/simple/4.png,images/simple/16.png,images/simple/12.png,images/simple/2.png","0","null","","200","404.15000000502914","","","","background","",""
"","null","html-keyboard-response","43","66583","0.0-13.0-0.15","SS1602797585862","","null","","","","","","","","","","","","<img src=images/blank.png width =""500"" height = ""500"" style=""border:5px solid black"">","","",""
"","226.7549999523908","stimulus-presentation","44","67016","0.0-13.0-1.15","SS1602797585862","<img src='images/complex/17.png' width ='500' height = '500' style='border:5px solid black'>","40","mixed_simple_deviant","images/complex/13.png","images/complex/17.png","images/simple/9.png,images/simple/8.png,images/simple/5.png,images/simple/4.png,images/simple/16.png,images/simple/12.png,images/simple/2.png","0","null","","200","426.7549999523908","","","","background","",""
"","null","html-keyboard-response","45","68227","0.0-13.0-0.16","SS1602797585862","","null","","","","","","","","","","","","<img src=images/blank.png width =""500"" height = ""500"" style=""border:5px solid black"">","","",""
"","114.11500000394881","stimulus-presentation","46","68553","0.0-13.0-1.16","SS1602797585862","<img src='images/complex/17.png' width ='500' height = '500' style='border:5px solid black'>","40","mixed_simple_deviant","images/complex/13.png","images/complex/17.png","images/simple/9.png,images/simple/8.png,images/simple/5.png,images/simple/4.png,images/simple/16.png,images/simple/12.png,images/simple/2.png","0","null","","200","314.1150000039488","","","","background","",""
"","null","html-keyboard-response","47","69484","0.0-13.0-0.17","SS1602797585862","","null","","","","","","","","","","","","<img src=images/blank.png width =""500"" height = ""500"" style=""border:5px solid black"">","","",""
"","373.0349999968894","stimulus-presentation","48","70063","0.0-13.0-1.17","SS1602797585862","<img src='images/simple/9.png' width ='500' height = '500' style='border:5px solid black'>","40","mixed_simple_deviant","images/complex/13.png","images/complex/17.png","images/simple/9.png,images/simple/8.png,images/simple/5.png,images/simple/4.png,images/simple/16.png,images/simple/12.png,images/simple/2.png","0","null","","200","573.0349999968894","","","","deviant","",""
"","null","html-keyboard-response","49","70977","0.0-13.0-0.18","SS1602797585862","","null","","","","","","","","","","","","<img src=images/blank.png width =""500"" height = ""500"" style=""border:5px solid black"">","","",""
"","216.8699999456294","stimulus-presentation","50","71401","0.0-13.0-1.18","SS1602797585862","<img src='images/complex/17.png' width ='500' height = '500' style='border:5px solid black'>","40","mixed_simple_deviant","images/complex/13.png","images/complex/17.png","images/simple/9.png,images/simple/8.png,images/simple/5.png,images/simple/4.png,images/simple/16.png,images/simple/12.png,images/simple/2.png","0","null","","200","416.8699999456294","","","","background","",""
"","null","html-keyboard-response","51","72253","0.0-13.0-0.19","SS1602797585862","","null","","","","","","","","","","","","<img src=images/blank.png width =""500"" height = ""500"" style=""border:5px solid black"">","","",""
"","184.93000004673377","stimulus-presentation","52","72644","0.0-13.0-1.19","SS1602797585862","<img src='images/complex/17.png' width ='500' height = '500' style='border:5px solid black'>","40","mixed_simple_deviant","images/complex/13.png","images/complex/17.png","images/simple/9.png,images/simple/8.png,images/simple/5.png,images/simple/4.png,images/simple/16.png,images/simple/12.png,images/simple/2.png","0","null","","200","384.93000004673377","","","","background","",""
"","null","html-keyboard-response","53","73537","0.0-13.0-0.20","SS1602797585862","","null","","","","","","","","","","","","<img src=images/blank.png width =""500"" height = ""500"" style=""border:5px solid black"">","","",""
"","535.9600000083447","stimulus-presentation","54","74280","0.0-13.0-1.20","SS1602797585862","<img src='images/simple/8.png' width ='500' height = '500' style='border:5px solid black'>","40","mixed_simple_deviant","images/complex/13.png","images/complex/17.png","images/simple/9.png,images/simple/8.png,images/simple/5.png,images/simple/4.png,images/simple/16.png,images/simple/12.png,images/simple/2.png","0","null","","200","735.9600000083447","","","","deviant","",""
"","null","html-keyboard-response","55","75239","0.0-13.0-0.21","SS1602797585862","","null","","","","","","","","","","","","<img src=images/blank.png width =""500"" height = ""500"" style=""border:5px solid black"">","","",""
"","446.05499994941056","stimulus-presentation","56","75890","0.0-13.0-1.21","SS1602797585862","<img src='images/complex/17.png' width ='500' height = '500' style='border:5px solid black'>","40","mixed_simple_deviant","images/complex/13.png","images/complex/17.png","images/simple/9.png,images/simple/8.png,images/simple/5.png,images/simple/4.png,images/simple/16.png,images/simple/12.png,images/simple/2.png","0","null","","200","646.0549999494106","","","","background","",""
"","null","html-keyboard-response","57","77077","0.0-13.0-0.22","SS1602797585862","","null","","","","","","","","","","","","<img src=images/blank.png width =""500"" height = ""500"" style=""border:5px solid black"">","","",""
"","123.96499997703359","stimulus-presentation","58","77408","0.0-13.0-1.22","SS1602797585862","<img src='images/complex/17.png' width ='500' height = '500' style='border:5px solid black'>","40","mixed_simple_deviant","images/complex/13.png","images/complex/17.png","images/simple/9.png,images/simple/8.png,images/simple/5.png,images/simple/4.png,images/simple/16.png,images/simple/12.png,images/simple/2.png","0","null","","200","323.9649999770336","","","","background","",""
"","null","html-keyboard-response","59","78528","0.0-13.0-0.23","SS1602797585862","","null","","","","","","","","","","","","<img src=images/blank.png width =""500"" height = ""500"" style=""border:5px solid black"">","","",""
"","208.45500001451","stimulus-presentation","60","78945","0.0-13.0-1.23","SS1602797585862","<img src='images/complex/17.png' width ='500' height = '500' style='border:5px solid black'>","40","mixed_simple_deviant","images/complex/13.png","images/complex/17.png","images/simple/9.png,images/simple/8.png,images/simple/5.png,images/simple/4.png,images/simple/16.png,images/simple/12.png,images/simple/2.png","0","null","","200","408.45500001451","","","","background","",""
"","null","html-keyboard-response","61","80128","0.0-13.0-0.24","SS1602797585862","","null","","","","","","","","","","","","<img src=images/blank.png width =""500"" height = ""500"" style=""border:5px solid black"">","","",""
"","168.18500001681969","stimulus-presentation","62","80505","0.0-13.0-1.24","SS1602797585862","<img src='images/complex/17.png' width ='500' height = '500' style='border:5px solid black'>","40","mixed_simple_deviant","images/complex/13.png","images/complex/17.png","images/simple/9.png,images/simple/8.png,images/simple/5.png,images/simple/4.png,images/simple/16.png,images/simple/12.png,images/simple/2.png","0","null","","200","368.1850000168197","","","","background","",""
"","null","html-keyboard-response","63","81722","0.0-13.0-0.25","SS1602797585862","","null","","","","","","","","","","","","<img src=images/blank.png width =""500"" height = ""500"" style=""border:5px solid black"">","","",""
"","438.6800000211224","stimulus-presentation","64","82368","0.0-13.0-1.25","SS1602797585862","<img src='images/complex/17.png' width ='500' height = '500' style='border:5px solid black'>","40","mixed_simple_deviant","images/complex/13.png","images/complex/17.png","images/simple/9.png,images/simple/8.png,images/simple/5.png,images/simple/4.png,images/simple/16.png,images/simple/12.png,images/simple/2.png","0","null","","200","638.6800000211224","","","","background","",""
"","null","html-keyboard-response","65","83609","0.0-13.0-0.26","SS1602797585862","","null","","","","","","","","","","","","<img src=images/blank.png width =""500"" height = ""500"" style=""border:5px solid black"">","","",""
"","35.10500001721084","stimulus-presentation","66","83849","0.0-13.0-1.26","SS1602797585862","<img src='images/complex/17.png' width ='500' height = '500' style='border:5px solid black'>","40","mixed_simple_deviant","images/complex/13.png","images/complex/17.png","images/simple/9.png,images/simple/8.png,images/simple/5.png,images/simple/4.png,images/simple/16.png,images/simple/12.png,images/simple/2.png","0","null","","200","235.10500001721084","","","","background","",""
"","null","html-keyboard-response","67","84887","0.0-13.0-0.27","SS1602797585862","","null","","","","","","","","","","","","<img src=images/blank.png width =""500"" height = ""500"" style=""border:5px solid black"">","","",""
"","353.5699999774806","stimulus-presentation","68","85450","0.0-13.0-1.27","SS1602797585862","<img src='images/complex/17.png' width ='500' height = '500' style='border:5px solid black'>","40","mixed_simple_deviant","images/complex/13.png","images/complex/17.png","images/simple/9.png,images/simple/8.png,images/simple/5.png,images/simple/4.png,images/simple/16.png,images/simple/12.png,images/simple/2.png","0","null","","200","553.5699999774806","","","","background","",""
"","null","html-keyboard-response","69","86728","0.0-13.0-0.28","SS1602797585862","","null","","","","","","","","","","","","<img src=images/blank.png width =""500"" height = ""500"" style=""border:5px solid black"">","","",""
"","95.9100000327453","stimulus-presentation","70","87036","0.0-13.0-1.28","SS1602797585862","<img src='images/complex/17.png' width ='500' height = '500' style='border:5px solid black'>","40","mixed_simple_deviant","images/complex/13.png","images/complex/17.png","images/simple/9.png,images/simple/8.png,images/simple/5.png,images/simple/4.png,images/simple/16.png,images/simple/12.png,images/simple/2.png","0","null","","200","295.9100000327453","","","","background","",""
"","null","html-keyboard-response","71","88283","0.0-13.0-0.29","SS1602797585862","","null","","","","","","","","","","","","<img src=images/blank.png width =""500"" height = ""500"" style=""border:5px solid black"">","","",""
"","370.11999997776","stimulus-presentation","72","88863","0.0-13.0-1.29","SS1602797585862","<img src='images/complex/17.png' width ='500' height = '500' style='border:5px solid black'>","40","mixed_simple_deviant","images/complex/13.png","images/complex/17.png","images/simple/9.png,images/simple/8.png,images/simple/5.png,images/simple/4.png,images/simple/16.png,images/simple/12.png,images/simple/2.png","0","null","","200","570.11999997776","","","","background","",""
"","null","html-keyboard-response","73","89968","0.0-13.0-0.30","SS1602797585862","","null","","","","","","","","","","","","<img src=images/blank.png width =""500"" height = ""500"" style=""border:5px solid black"">","","",""
"","342.8950000088662","stimulus-presentation","74","90521","0.0-13.0-1.30","SS1602797585862","<img src='images/simple/12.png' width ='500' height = '500' style='border:5px solid black'>","40","mixed_simple_deviant","images/complex/13.png","images/complex/17.png","images/simple/9.png,images/simple/8.png,images/simple/5.png,images/simple/4.png,images/simple/16.png,images/simple/12.png,images/simple/2.png","0","null","","200","542.8950000088662","","","","deviant","",""
"","null","html-keyboard-response","75","91628","0.0-13.0-0.31","SS1602797585862","","null","","","","","","","","","","","","<img src=images/blank.png width =""500"" height = ""500"" style=""border:5px solid black"">","","",""
"","181.79499998223037","stimulus-presentation","76","92015","0.0-13.0-1.31","SS1602797585862","<img src='images/complex/17.png' width ='500' height = '500' style='border:5px solid black'>","40","mixed_simple_deviant","images/complex/13.png","images/complex/17.png","images/simple/9.png,images/simple/8.png,images/simple/5.png,images/simple/4.png,images/simple/16.png,images/simple/12.png,images/simple/2.png","0","null","","200","381.79499998223037","","","","background","",""
"","null","html-keyboard-response","77","93296","0.0-13.0-0.32","SS1602797585862","","null","","","","","","","","","","","","<img src=images/blank.png width =""500"" height = ""500"" style=""border:5px solid black"">","","",""
"","105.53499998059124","stimulus-presentation","78","93609","0.0-13.0-1.32","SS1602797585862","<img src='images/complex/17.png' width ='500' height = '500' style='border:5px solid black'>","40","mixed_simple_deviant","images/complex/13.png","images/complex/17.png","images/simple/9.png,images/simple/8.png,images/simple/5.png,images/simple/4.png,images/simple/16.png,images/simple/12.png,images/simple/2.png","0","null","","200","305.53499998059124","","","","background","",""
"","null","html-keyboard-response","79","94638","0.0-13.0-0.33","SS1602797585862","","null","","","","","","","","","","","","<img src=images/blank.png width =""500"" height = ""500"" style=""border:5px solid black"">","","",""
"","162.47500001918525","stimulus-presentation","80","95009","0.0-13.0-1.33","SS1602797585862","<img src='images/complex/17.png' width ='500' height = '500' style='border:5px solid black'>","40","mixed_simple_deviant","images/complex/13.png","images/complex/17.png","images/simple/9.png,images/simple/8.png,images/simple/5.png,images/simple/4.png,images/simple/16.png,images/simple/12.png,images/simple/2.png","0","null","","200","362.47500001918525","","","","background","",""
"","null","html-keyboard-response","81","95867","0.0-13.0-0.34","SS1602797585862","","null","","","","","","","","","","","","<img src=images/blank.png width =""500"" height = ""500"" style=""border:5px solid black"">","","",""
"","154.0099999983795","stimulus-presentation","82","96233","0.0-13.0-1.34","SS1602797585862","<img src='images/complex/13.png' width ='500' height = '500' style='border:5px solid black'>","40","mixed_simple_deviant","images/complex/13.png","images/complex/17.png","images/simple/9.png,images/simple/8.png,images/simple/5.png,images/simple/4.png,images/simple/16.png,images/simple/12.png,images/simple/2.png","0","null","","200","354.0099999983795","","","","target","",""
"","null","html-keyboard-response","83","97128","0.0-13.0-0.35","SS1602797585862","","null","","","","","","","","","","","","<img src=images/blank.png width =""500"" height = ""500"" style=""border:5px solid black"">","","",""
"","1021.695000003092","stimulus-presentation","84","98360","0.0-13.0-1.35","SS1602797585862","<img src='images/complex/13.png' width ='500' height = '500' style='border:5px solid black'>","40","mixed_simple_deviant","images/complex/13.png","images/complex/17.png","images/simple/9.png,images/simple/8.png,images/simple/5.png,images/simple/4.png,images/simple/16.png,images/simple/12.png,images/simple/2.png","0","null","","200","1221.695000003092","yes","417.5800000084564","","target","",""
"","null","html-keyboard-response","85","99378","0.0-13.0-0.36","SS1602797585862","","null","","","","","","","","","","","","<img src=images/blank.png width =""500"" height = ""500"" style=""border:5px solid black"">","","",""
"","295.0349999591708","stimulus-presentation","86","99882","0.0-13.0-1.36","SS1602797585862","<img src='images/complex/17.png' width ='500' height = '500' style='border:5px solid black'>","40","mixed_simple_deviant","images/complex/13.png","images/complex/17.png","images/simple/9.png,images/simple/8.png,images/simple/5.png,images/simple/4.png,images/simple/16.png,images/simple/12.png,images/simple/2.png","0","null","","200","495.0349999591708","","","","background","",""
"","null","html-keyboard-response","87","100772","0.0-13.0-0.37","SS1602797585862","","null","","","","","","","","","","","","<img src=images/blank.png width =""500"" height = ""500"" style=""border:5px solid black"">","","",""
"","133.73000000137836","stimulus-presentation","88","101112","0.0-13.0-1.37","SS1602797585862","<img src='images/complex/17.png' width ='500' height = '500' style='border:5px solid black'>","40","mixed_simple_deviant","images/complex/13.png","images/complex/17.png","images/simple/9.png,images/simple/8.png,images/simple/5.png,images/simple/4.png,images/simple/16.png,images/simple/12.png,images/simple/2.png","0","null","","200","333.73000000137836","","","","background","",""
"","null","html-keyboard-response","89","102065","0.0-13.0-0.38","SS1602797585862","","null","","","","","","","","","","","","<img src=images/blank.png width =""500"" height = ""500"" style=""border:5px solid black"">","","",""
"","404.7900000005029","stimulus-presentation","90","102682","0.0-13.0-1.38","SS1602797585862","<img src='images/simple/16.png' width ='500' height = '500' style='border:5px solid black'>","40","mixed_simple_deviant","images/complex/13.png","images/complex/17.png","images/simple/9.png,images/simple/8.png,images/simple/5.png,images/simple/4.png,images/simple/16.png,images/simple/12.png,images/simple/2.png","0","null","","200","604.7900000005029","","","","deviant","",""
"","null","html-keyboard-response","91","103836","0.0-13.0-0.39","SS1602797585862","","null","","","","","","","","","","","","<img src=images/blank.png width =""500"" height = ""500"" style=""border:5px solid black"">","","",""
"","188.13999998383224","stimulus-presentation","92","104234","0.0-13.0-1.39","SS1602797585862","<img src='images/complex/17.png' width ='500' height = '500' style='border:5px solid black'>","40","mixed_simple_deviant","images/complex/13.png","images/complex/17.png","images/simple/9.png,images/simple/8.png,images/simple/5.png,images/simple/4.png,images/simple/16.png,images/simple/12.png,images/simple/2.png","0","null","","200","388.13999998383224","","","","background","",""
"","null","html-keyboard-response","93","105477","0.0-13.0-0.40","SS1602797585862","","null","","","","","","","","","","","","<img src=images/blank.png width =""500"" height = ""500"" style=""border:5px solid black"">","","",""
"","1194.7750000399537","stimulus-presentation","94","106881","0.0-13.0-1.40","SS1602797585862","<img src='images/complex/13.png' width ='500' height = '500' style='border:5px solid black'>","40","mixed_simple_deviant","images/complex/13.png","images/complex/17.png","images/simple/9.png,images/simple/8.png,images/simple/5.png,images/simple/4.png,images/simple/16.png,images/simple/12.png,images/simple/2.png","0","null","","200","1394.7750000399537","yes","578.2150000450201","","target","",""
"","null","html-keyboard-response","95","107703","0.0-13.0-0.41","SS1602797585862","","null","","","","","","","","","","","","<img src=images/blank.png width =""500"" height = ""500"" style=""border:5px solid black"">","","",""
"","280.1999999792315","stimulus-presentation","96","108195","0.0-13.0-1.41","SS1602797585862","<img src='images/complex/13.png' width ='500' height = '500' style='border:5px solid black'>","40","mixed_simple_deviant","images/complex/13.png","images/complex/17.png","images/simple/9.png,images/simple/8.png,images/simple/5.png,images/simple/4.png,images/simple/16.png,images/simple/12.png,images/simple/2.png","0","null","","200","480.1999999792315","","","","target","",""
"","null","html-keyboard-response","97","109158","0.0-13.0-0.42","SS1602797585862","","null","","","","","","","","","","","","<img src=images/blank.png width =""500"" height = ""500"" style=""border:5px solid black"">","","",""
"","256.63000001804903","stimulus-presentation","98","109624","0.0-13.0-1.42","SS1602797585862","<img src='images/complex/17.png' width ='500' height = '500' style='border:5px solid black'>","40","mixed_simple_deviant","images/complex/13.png","images/complex/17.png","images/simple/9.png,images/simple/8.png,images/simple/5.png,images/simple/4.png,images/simple/16.png,images/simple/12.png,images/simple/2.png","0","null","","200","456.63000001804903","","","","background","",""
"","null","html-keyboard-response","99","110683","0.0-13.0-0.43","SS1602797585862","","null","","","","","","","","","","","","<img src=images/blank.png width =""500"" height = ""500"" style=""border:5px solid black"">","","",""
"","255.05500001600012","stimulus-presentation","100","111146","0.0-13.0-1.43","SS1602797585862","<img src='images/complex/17.png' width ='500' height = '500' style='border:5px solid black'>","40","mixed_simple_deviant","images/complex/13.png","images/complex/17.png","images/simple/9.png,images/simple/8.png,images/simple/5.png,images/simple/4.png,images/simple/16.png,images/simple/12.png,images/simple/2.png","0","null","","200","455.0550000160001","","","","background","",""
"","null","html-keyboard-response","101","112347","0.0-13.0-0.44","SS1602797585862","","null","","","","","","","","","","","","<img src=images/blank.png width =""500"" height = ""500"" style=""border:5px solid black"">","","",""
"","216.18000004673377","stimulus-presentation","102","112770","0.0-13.0-1.44","SS1602797585862","<img src='images/complex/17.png' width ='500' height = '500' style='border:5px solid black'>","40","mixed_simple_deviant","images/complex/13.png","images/complex/17.png","images/simple/9.png,images/simple/8.png,images/simple/5.png,images/simple/4.png,images/simple/16.png,images/simple/12.png,images/simple/2.png","0","null","","200","416.18000004673377","","","","background","",""
"","null","html-keyboard-response","103","113993","0.0-13.0-0.45","SS1602797585862","","null","","","","","","","","","","","","<img src=images/blank.png width =""500"" height = ""500"" style=""border:5px solid black"">","","",""
"","453.6649999790825","stimulus-presentation","104","114658","0.0-13.0-1.45","SS1602797585862","<img src='images/simple/5.png' width ='500' height = '500' style='border:5px solid black'>","40","mixed_simple_deviant","images/complex/13.png","images/complex/17.png","images/simple/9.png,images/simple/8.png,images/simple/5.png,images/simple/4.png,images/simple/16.png,images/simple/12.png,images/simple/2.png","0","null","","200","653.6649999790825","","","","deviant","",""
"","null","html-keyboard-response","105","115830","0.0-13.0-0.46","SS1602797585862","","null","","","","","","","","","","","","<img src=images/blank.png width =""500"" height = ""500"" style=""border:5px solid black"">","","",""
"","1033.7450000224635","stimulus-presentation","106","117073","0.0-13.0-1.46","SS1602797585862","<img src='images/complex/13.png' width ='500' height = '500' style='border:5px solid black'>","40","mixed_simple_deviant","images/complex/13.png","images/complex/17.png","images/simple/9.png,images/simple/8.png,images/simple/5.png,images/simple/4.png,images/simple/16.png,images/simple/12.png,images/simple/2.png","0","null","","200","1233.7450000224635","yes","466.1550000309944","","target","",""
"","null","html-keyboard-response","107","118219","0.0-13.0-0.47","SS1602797585862","","null","","","","","","","","","","","","<img src=images/blank.png width =""500"" height = ""500"" style=""border:5px solid black"">","","",""
"","311.23499997192994","stimulus-presentation","108","118739","0.0-13.0-1.47","SS1602797585862","<img src='images/complex/17.png' width ='500' height = '500' style='border:5px solid black'>","40","mixed_simple_deviant","images/complex/13.png","images/complex/17.png","images/simple/9.png,images/simple/8.png,images/simple/5.png,images/simple/4.png,images/simple/16.png,images/simple/12.png,images/simple/2.png","0","null","","200","511.23499997192994","","","","background","",""
"","null","html-keyboard-response","109","119708","0.0-13.0-0.48","SS1602797585862","","null","","","","","","","","","","","","<img src=images/blank.png width =""500"" height = ""500"" style=""border:5px solid black"">","","",""
"","237.63499996857718","stimulus-presentation","110","120152","0.0-13.0-1.48","SS1602797585862","<img src='images/complex/17.png' width ='500' height = '500' style='border:5px solid black'>","40","mixed_simple_deviant","images/complex/13.png","images/complex/17.png","images/simple/9.png,images/simple/8.png,images/simple/5.png,images/simple/4.png,images/simple/16.png,images/simple/12.png,images/simple/2.png","0","null","","200","437.6349999685772","","","","background","",""
"[{""page_index"":0,""viewing_time"":1784}]","1784","task-instructions","111","121941","0.0-14.0","SS1602797585862","","","","","","","","","","","","","","","","",""
"[{""page_index"":0,""viewing_time"":802.945000003092},{""page_index"":1,""viewing_time"":1792.6899999729358},{""page_index"":2,""viewing_time"":863.3799999952316}]","3459.4749999814667","instructions","112","125406","0.0-15.0","SS1602797585862","","","","","","","","","","","","","","","","",""
"","null","html-keyboard-response","113","126699","0.0-16.0-0.0","SS1602797585862","","null","","","","","","","","","","","","<img src=images/blank.png width =""500"" height = ""500"" style=""border:5px solid black"">","","",""
"","942.925000039395","stimulus-presentation","114","127851","0.0-16.0-1.0","SS1602797585862","<img src='images/simple/13.png' width ='500' height = '500' style='border:5px solid black'>","40","all_simple","images/simple/3.png","images/simple/13.png","images/simple/14.png,images/simple/11.png,images/simple/10.png,images/simple/18.png,images/simple/6.png,images/simple/1.png,images/simple/7.png","1","null","","200","1142.925000039395","","","","background","",""
"","null","html-keyboard-response","115","128787","0.0-16.0-0.1","SS1602797585862","","null","","","","","","","","","","","","<img src=images/blank.png width =""500"" height = ""500"" style=""border:5px solid black"">","","",""
"","188.7699999497272","stimulus-presentation","116","129188","0.0-16.0-1.1","SS1602797585862","<img src='images/simple/13.png' width ='500' height = '500' style='border:5px solid black'>","40","all_simple","images/simple/3.png","images/simple/13.png","images/simple/14.png,images/simple/11.png,images/simple/10.png,images/simple/18.png,images/simple/6.png,images/simple/1.png,images/simple/7.png","1","null","","200","388.7699999497272","","","","background","",""
"","null","html-keyboard-response","117","130492","0.0-16.0-0.2","SS1602797585862","","null","","","","","","","","","","","","<img src=images/blank.png width =""500"" height = ""500"" style=""border:5px solid black"">","","",""
"","303.80500003229827","stimulus-presentation","118","131003","0.0-16.0-1.2","SS1602797585862","<img src='images/simple/6.png' width ='500' height = '500' style='border:5px solid black'>","40","all_simple","images/simple/3.png","images/simple/13.png","images/simple/14.png,images/simple/11.png,images/simple/10.png,images/simple/18.png,images/simple/6.png,images/simple/1.png,images/simple/7.png","1","null","","200","503.80500003229827","","","","deviant","",""
"","null","html-keyboard-response","119","132273","0.0-16.0-0.3","SS1602797585862","","null","","","","","","","","","","","","<img src=images/blank.png width =""500"" height = ""500"" style=""border:5px solid black"">","","",""
"","1103.6800000001676","stimulus-presentation","120","133584","0.0-16.0-1.3","SS1602797585862","<img src='images/simple/3.png' width ='500' height = '500' style='border:5px solid black'>","40","all_simple","images/simple/3.png","images/simple/13.png","images/simple/14.png,images/simple/11.png,images/simple/10.png,images/simple/18.png,images/simple/6.png,images/simple/1.png,images/simple/7.png","1","null","","200","1303.6800000001676","yes","489.7000000346452","","target","",""
"","null","html-keyboard-response","121","134407","0.0-16.0-0.4","SS1602797585862","","null","","","","","","","","","","","","<img src=images/blank.png width =""500"" height = ""500"" style=""border:5px solid black"">","","",""
"","349.90000003017485","stimulus-presentation","122","134967","0.0-16.0-1.4","SS1602797585862","<img src='images/simple/13.png' width ='500' height = '500' style='border:5px solid black'>","40","all_simple","images/simple/3.png","images/simple/13.png","images/simple/14.png,images/simple/11.png,images/simple/10.png,images/simple/18.png,images/simple/6.png,images/simple/1.png,images/simple/7.png","1","null","","200","549.9000000301749","","","","background","",""
"","null","html-keyboard-response","123","136039","0.0-16.0-0.5","SS1602797585862","","null","","","","","","","","","","","","<img src=images/blank.png width =""500"" height = ""500"" style=""border:5px solid black"">","","",""
"","144.83000000473112","stimulus-presentation","124","136395","0.0-16.0-1.5","SS1602797585862","<img src='images/simple/13.png' width ='500' height = '500' style='border:5px solid black'>","40","all_simple","images/simple/3.png","images/simple/13.png","images/simple/14.png,images/simple/11.png,images/simple/10.png,images/simple/18.png,images/simple/6.png,images/simple/1.png,images/simple/7.png","1","null","","200","344.8300000047311","","","","background","",""
"","null","html-keyboard-response","125","137323","0.0-16.0-0.6","SS1602797585862","","null","","","","","","","","","","","","<img src=images/blank.png width =""500"" height = ""500"" style=""border:5px solid black"">","","",""
"","254.0900000021793","stimulus-presentation","126","137787","0.0-16.0-1.6","SS1602797585862","<img src='images/simple/14.png' width ='500' height = '500' style='border:5px solid black'>","40","all_simple","images/simple/3.png","images/simple/13.png","images/simple/14.png,images/simple/11.png,images/simple/10.png,images/simple/18.png,images/simple/6.png,images/simple/1.png,images/simple/7.png","1","null","","200","454.0900000021793","","","","deviant","",""
"","null","html-keyboard-response","127","138777","0.0-16.0-0.7","SS1602797585862","","null","","","","","","","","","","","","<img src=images/blank.png width =""500"" height = ""500"" style=""border:5px solid black"">","","",""
"","1169.2949999705888","stimulus-presentation","128","140156","0.0-16.0-1.7","SS1602797585862","<img src='images/simple/13.png' width ='500' height = '500' style='border:5px solid black'>","40","all_simple","images/simple/3.png","images/simple/13.png","images/simple/14.png,images/simple/11.png,images/simple/10.png,images/simple/18.png,images/simple/6.png,images/simple/1.png,images/simple/7.png","1","null","","200","1369.2949999705888","","","","background","",""
"","null","html-keyboard-response","129","141341","0.0-16.0-0.8","SS1602797585862","","null","","","","","","","","","","","","<img src=images/blank.png width =""500"" height = ""500"" style=""border:5px solid black"">","","",""
"","153.9300000295043","stimulus-presentation","130","141706","0.0-16.0-1.8","SS1602797585862","<img src='images/simple/13.png' width ='500' height = '500' style='border:5px solid black'>","40","all_simple","images/simple/3.png","images/simple/13.png","images/simple/14.png,images/simple/11.png,images/simple/10.png,images/simple/18.png,images/simple/6.png,images/simple/1.png,images/simple/7.png","1","null","","200","353.9300000295043","","","","background","",""
"","null","html-keyboard-response","131","142754","0.0-16.0-0.9","SS1602797585862","","null","","","","","","","","","","","","<img src=images/blank.png width =""500"" height = ""500"" style=""border:5px solid black"">","","",""
"","1159.2400000081398","stimulus-presentation","132","144121","0.0-16.0-1.9","SS1602797585862","<img src='images/simple/3.png' width ='500' height = '500' style='border:5px solid black'>","40","all_simple","images/simple/3.png","images/simple/13.png","images/simple/14.png,images/simple/11.png,images/simple/10.png,images/simple/18.png,images/simple/6.png,images/simple/1.png,images/simple/7.png","1","null","","200","1359.2400000081398","yes","479.33499998180196","","target","",""
"","null","html-keyboard-response","133","145091","0.0-16.0-0.10","SS1602797585862","","null","","","","","","","","","","","","<img src=images/blank.png width =""500"" height = ""500"" style=""border:5px solid black"">","","",""
"","238.45000000437722","stimulus-presentation","134","145539","0.0-16.0-1.10","SS1602797585862","<img src='images/simple/11.png' width ='500' height = '500' style='border:5px solid black'>","40","all_simple","images/simple/3.png","images/simple/13.png","images/simple/14.png,images/simple/11.png,images/simple/10.png,images/simple/18.png,images/simple/6.png,images/simple/1.png,images/simple/7.png","1","null","","200","438.4500000043772","","","","deviant","",""
"","null","html-keyboard-response","135","146419","0.0-16.0-0.11","SS1602797585862","","null","","","","","","","","","","","","<img src=images/blank.png width =""500"" height = ""500"" style=""border:5px solid black"">","","",""
"","332.11000001756474","stimulus-presentation","136","146961","0.0-16.0-1.11","SS1602797585862","<img src='images/simple/13.png' width ='500' height = '500' style='border:5px solid black'>","40","all_simple","images/simple/3.png","images/simple/13.png","images/simple/14.png,images/simple/11.png,images/simple/10.png,images/simple/18.png,images/simple/6.png,images/simple/1.png,images/simple/7.png","1","null","","200","532.1100000175647","","","","background","",""
"","null","html-keyboard-response","137","148018","0.0-16.0-0.12","SS1602797585862","","null","","","","","","","","","","","","<img src=images/blank.png width =""500"" height = ""500"" style=""border:5px solid black"">","","",""
"","1205.3350000060163","stimulus-presentation","138","149434","0.0-16.0-1.12","SS1602797585862","<img src='images/simple/3.png' width ='500' height = '500' style='border:5px solid black'>","40","all_simple","images/simple/3.png","images/simple/13.png","images/simple/14.png,images/simple/11.png,images/simple/10.png,images/simple/18.png,images/simple/6.png,images/simple/1.png,images/simple/7.png","1","null","","200","1405.3350000060163","yes","589.815000013914","","target","",""
"","null","html-keyboard-response","139","150304","0.0-16.0-0.13","SS1602797585862","","null","","","","","","","","","","","","<img src=images/blank.png width =""500"" height = ""500"" style=""border:5px solid black"">","","",""
"","161.97499999543652","stimulus-presentation","140","150677","0.0-16.0-1.13","SS1602797585862","<img src='images/simple/13.png' width ='500' height = '500' style='border:5px solid black'>","40","all_simple","images/simple/3.png","images/simple/13.png","images/simple/14.png,images/simple/11.png,images/simple/10.png,images/simple/18.png,images/simple/6.png,images/simple/1.png,images/simple/7.png","1","null","","200","361.9749999954365","","","","background","",""
"","null","html-keyboard-response","141","151969","0.0-16.0-0.14","SS1602797585862","","null","","","","","","","","","","","","<img src=images/blank.png width =""500"" height = ""500"" style=""border:5px solid black"">","","",""
"","205.56500001112","stimulus-presentation","142","152384","0.0-16.0-1.14","SS1602797585862","<img src='images/simple/13.png' width ='500' height = '500' style='border:5px solid black'>","40","all_simple","images/simple/3.png","images/simple/13.png","images/simple/14.png,images/simple/11.png,images/simple/10.png,images/simple/18.png,images/simple/6.png,images/simple/1.png,images/simple/7.png","1","null","","200","405.56500001112","","","","background","",""
"","null","html-keyboard-response","143","153341","0.0-16.0-0.15","SS1602797585862","","null","","","","","","","","","","","","<img src=images/blank.png width =""500"" height = ""500"" style=""border:5px solid black"">","","",""
"","78.35499994689599","stimulus-presentation","144","153633","0.0-16.0-1.15","SS1602797585862","<img src='images/simple/1.png' width ='500' height = '500' style='border:5px solid black'>","40","all_simple","images/simple/3.png","images/simple/13.png","images/simple/14.png,images/simple/11.png,images/simple/10.png,images/simple/18.png,images/simple/6.png,images/simple/1.png,images/simple/7.png","1","null","","200","278.354999946896","","","","deviant","",""
"","null","html-keyboard-response","145","154578","0.0-16.0-0.16","SS1602797585862","","null","","","","","","","","","","","","<img src=images/blank.png width =""500"" height = ""500"" style=""border:5px solid black"">","","",""
"","318.8549999613315","stimulus-presentation","146","155105","0.0-16.0-1.16","SS1602797585862","<img src='images/simple/13.png' width ='500' height = '500' style='border:5px solid black'>","40","all_simple","images/simple/3.png","images/simple/13.png","images/simple/14.png,images/simple/11.png,images/simple/10.png,images/simple/18.png,images/simple/6.png,images/simple/1.png,images/simple/7.png","1","null","","200","518.8549999613315","","","","background","",""
"","null","html-keyboard-response","147","156338","0.0-16.0-0.17","SS1602797585862","","null","","","","","","","","","","","","<img src=images/blank.png width =""500"" height = ""500"" style=""border:5px solid black"">","","",""
"","185.9750000294298","stimulus-presentation","148","156732","0.0-16.0-1.17","SS1602797585862","<img src='images/simple/13.png' width ='500' height = '500' style='border:5px solid black'>","40","all_simple","images/simple/3.png","images/simple/13.png","images/simple/14.png,images/simple/11.png,images/simple/10.png,images/simple/18.png,images/simple/6.png,images/simple/1.png,images/simple/7.png","1","null","","200","385.9750000294298","","","","background","",""
"","null","html-keyboard-response","149","157914","0.0-16.0-0.18","SS1602797585862","","null","","","","","","","","","","","","<img src=images/blank.png width =""500"" height = ""500"" style=""border:5px solid black"">","","",""
"","130.71499997749925","stimulus-presentation","150","158257","0.0-16.0-1.18","SS1602797585862","<img src='images/simple/13.png' width ='500' height = '500' style='border:5px solid black'>","40","all_simple","images/simple/3.png","images/simple/13.png","images/simple/14.png,images/simple/11.png,images/simple/10.png,images/simple/18.png,images/simple/6.png,images/simple/1.png,images/simple/7.png","1","null","","200","330.71499997749925","","","","background","",""
"","null","html-keyboard-response","151","159086","0.0-16.0-0.19","SS1602797585862","","null","","","","","","","","","","","","<img src=images/blank.png width =""500"" height = ""500"" style=""border:5px solid black"">","","",""
"","155.2699999883771","stimulus-presentation","152","159450","0.0-16.0-1.19","SS1602797585862","<img src='images/simple/13.png' width ='500' height = '500' style='border:5px solid black'>","40","all_simple","images/simple/3.png","images/simple/13.png","images/simple/14.png,images/simple/11.png,images/simple/10.png,images/simple/18.png,images/simple/6.png,images/simple/1.png,images/simple/7.png","1","null","","200","355.2699999883771","","","","background","",""
"","null","html-keyboard-response","153","160314","0.0-16.0-0.20","SS1602797585862","","null","","","","","","","","","","","","<img src=images/blank.png width =""500"" height = ""500"" style=""border:5px solid black"">","","",""
"","143.50000000558794","stimulus-presentation","154","160664","0.0-16.0-1.20","SS1602797585862","<img src='images/simple/13.png' width ='500' height = '500' style='border:5px solid black'>","40","all_simple","images/simple/3.png","images/simple/13.png","images/simple/14.png,images/simple/11.png,images/simple/10.png,images/simple/18.png,images/simple/6.png,images/simple/1.png,images/simple/7.png","1","null","","200","343.50000000558794","","","","background","",""
"","null","html-keyboard-response","155","161722","0.0-16.0-0.21","SS1602797585862","","null","","","","","","","","","","","","<img src=images/blank.png width =""500"" height = ""500"" style=""border:5px solid black"">","","",""
"","184.50000003213063","stimulus-presentation","156","162114","0.0-16.0-1.21","SS1602797585862","<img src='images/simple/13.png' width ='500' height = '500' style='border:5px solid black'>","40","all_simple","images/simple/3.png","images/simple/13.png","images/simple/14.png,images/simple/11.png,images/simple/10.png,images/simple/18.png,images/simple/6.png,images/simple/1.png,images/simple/7.png","1","null","","200","384.50000003213063","","","","background","",""
"","null","html-keyboard-response","157","163095","0.0-16.0-0.22","SS1602797585862","","null","","","","","","","","","","","","<img src=images/blank.png width =""500"" height = ""500"" style=""border:5px solid black"">","","",""
"","249.91499999305233","stimulus-presentation","158","163554","0.0-16.0-1.22","SS1602797585862","<img src='images/simple/13.png' width ='500' height = '500' style='border:5px solid black'>","40","all_simple","images/simple/3.png","images/simple/13.png","images/simple/14.png,images/simple/11.png,images/simple/10.png,images/simple/18.png,images/simple/6.png,images/simple/1.png,images/simple/7.png","1","null","","200","449.91499999305233","","","","background","",""
"","null","html-keyboard-response","159","164821","0.0-16.0-0.23","SS1602797585862","","null","","","","","","","","","","","","<img src=images/blank.png width =""500"" height = ""500"" style=""border:5px solid black"">","","",""
"","137.9150000284426","stimulus-presentation","160","165171","0.0-16.0-1.23","SS1602797585862","<img src='images/simple/13.png' width ='500' height = '500' style='border:5px solid black'>","40","all_simple","images/simple/3.png","images/simple/13.png","images/simple/14.png,images/simple/11.png,images/simple/10.png,images/simple/18.png,images/simple/6.png,images/simple/1.png,images/simple/7.png","1","null","","200","337.9150000284426","","","","background","",""
"","null","html-keyboard-response","161","166269","0.0-16.0-0.24","SS1602797585862","","null","","","","","","","","","","","","<img src=images/blank.png width =""500"" height = ""500"" style=""border:5px solid black"">","","",""
"","122.78000003425404","stimulus-presentation","162","166602","0.0-16.0-1.24","SS1602797585862","<img src='images/simple/13.png' width ='500' height = '500' style='border:5px solid black'>","40","all_simple","images/simple/3.png","images/simple/13.png","images/simple/14.png,images/simple/11.png,images/simple/10.png,images/simple/18.png,images/simple/6.png,images/simple/1.png,images/simple/7.png","1","null","","200","322.78000003425404","","","","background","",""
"","null","html-keyboard-response","163","167831","0.0-16.0-0.25","SS1602797585862","","null","","","","","","","","","","","","<img src=images/blank.png width =""500"" height = ""500"" style=""border:5px solid black"">","","",""
"","157.52999996766448","stimulus-presentation","164","168201","0.0-16.0-1.25","SS1602797585862","<img src='images/simple/13.png' width ='500' height = '500' style='border:5px solid black'>","40","all_simple","images/simple/3.png","images/simple/13.png","images/simple/14.png,images/simple/11.png,images/simple/10.png,images/simple/18.png,images/simple/6.png,images/simple/1.png,images/simple/7.png","1","null","","200","357.5299999676645","","","","background","",""
"","null","html-keyboard-response","165","169405","0.0-16.0-0.26","SS1602797585862","","null","","","","","","","","","","","","<img src=images/blank.png width =""500"" height = ""500"" style=""border:5px solid black"">","","",""
"","168.33999997470528","stimulus-presentation","166","169786","0.0-16.0-1.26","SS1602797585862","<img src='images/simple/13.png' width ='500' height = '500' style='border:5px solid black'>","40","all_simple","images/simple/3.png","images/simple/13.png","images/simple/14.png,images/simple/11.png,images/simple/10.png,images/simple/18.png,images/simple/6.png,images/simple/1.png,images/simple/7.png","1","null","","200","368.3399999747053","","","","background","",""
"","null","html-keyboard-response","167","170611","0.0-16.0-0.27","SS1602797585862","","null","","","","","","","","","","","","<img src=images/blank.png width =""500"" height = ""500"" style=""border:5px solid black"">","","",""
"","1167.070000024978","stimulus-presentation","168","171986","0.0-16.0-1.27","SS1602797585862","<img src='images/simple/3.png' width ='500' height = '500' style='border:5px solid black'>","40","all_simple","images/simple/3.png","images/simple/13.png","images/simple/14.png,images/simple/11.png,images/simple/10.png,images/simple/18.png,images/simple/6.png,images/simple/1.png,images/simple/7.png","1","null","","200","1367.070000024978","yes","575.2650000504218","","target","",""
"","null","html-keyboard-response","169","173186","0.0-16.0-0.28","SS1602797585862","","null","","","","","","","","","","","","<img src=images/blank.png width =""500"" height = ""500"" style=""border:5px solid black"">","","",""
"","116.96499999379739","stimulus-presentation","170","173513","0.0-16.0-1.28","SS1602797585862","<img src='images/simple/7.png' width ='500' height = '500' style='border:5px solid black'>","40","all_simple","images/simple/3.png","images/simple/13.png","images/simple/14.png,images/simple/11.png,images/simple/10.png,images/simple/18.png,images/simple/6.png,images/simple/1.png,images/simple/7.png","1","null","","200","316.9649999937974","","","","deviant","",""
"","null","html-keyboard-response","171","174329","0.0-16.0-0.29","SS1602797585862","","null","","","","","","","","","","","","<img src=images/blank.png width =""500"" height = ""500"" style=""border:5px solid black"">","","",""
"","161.5999999921769","stimulus-presentation","172","174698","0.0-16.0-1.29","SS1602797585862","<img src='images/simple/13.png' width ='500' height = '500' style='border:5px solid black'>","40","all_simple","images/simple/3.png","images/simple/13.png","images/simple/14.png,images/simple/11.png,images/simple/10.png,images/simple/18.png,images/simple/6.png,images/simple/1.png,images/simple/7.png","1","null","","200","361.5999999921769","","","","background","",""
"","null","html-keyboard-response","173","175934","0.0-16.0-0.30","SS1602797585862","","null","","","","","","","","","","","","<img src=images/blank.png width =""500"" height = ""500"" style=""border:5px solid black"">","","",""
"","161.25499998452142","stimulus-presentation","174","176307","0.0-16.0-1.30","SS1602797585862","<img src='images/simple/13.png' width ='500' height = '500' style='border:5px solid black'>","40","all_simple","images/simple/3.png","images/simple/13.png","images/simple/14.png,images/simple/11.png,images/simple/10.png,images/simple/18.png,images/simple/6.png,images/simple/1.png,images/simple/7.png","1","null","","200","361.2549999845214","","","","background","",""
"","null","html-keyboard-response","175","177393","0.0-16.0-0.31","SS1602797585862","","null","","","","","","","","","","","","<img src=images/blank.png width =""500"" height = ""500"" style=""border:5px solid black"">","","",""
"","236.75999999977648","stimulus-presentation","176","177835","0.0-16.0-1.31","SS1602797585862","<img src='images/simple/13.png' width ='500' height = '500' style='border:5px solid black'>","40","all_simple","images/simple/3.png","images/simple/13.png","images/simple/14.png,images/simple/11.png,images/simple/10.png,images/simple/18.png,images/simple/6.png,images/simple/1.png,images/simple/7.png","1","null","","200","436.7599999997765","","","","background","",""
"","null","html-keyboard-response","177","178750","0.0-16.0-0.32","SS1602797585862","","null","","","","","","","","","","","","<img src=images/blank.png width =""500"" height = ""500"" style=""border:5px solid black"">","","",""
"","179.57999999634922","stimulus-presentation","178","179141","0.0-16.0-1.32","SS1602797585862","<img src='images/simple/13.png' width ='500' height = '500' style='border:5px solid black'>","40","all_simple","images/simple/3.png","images/simple/13.png","images/simple/14.png,images/simple/11.png,images/simple/10.png,images/simple/18.png,images/simple/6.png,images/simple/1.png,images/simple/7.png","1","null","","200","379.5799999963492","","","","background","",""
"","null","html-keyboard-response","179","180040","0.0-16.0-0.33","SS1602797585862","","null","","","","","","","","","","","","<img src=images/blank.png width =""500"" height = ""500"" style=""border:5px solid black"">","","",""
"","285.88999999919906","stimulus-presentation","180","180538","0.0-16.0-1.33","SS1602797585862","<img src='images/simple/13.png' width ='500' height = '500' style='border:5px solid black'>","40","all_simple","images/simple/3.png","images/simple/13.png","images/simple/14.png,images/simple/11.png,images/simple/10.png,images/simple/18.png,images/simple/6.png,images/simple/1.png,images/simple/7.png","1","null","","200","485.88999999919906","","","","background","",""
"","null","html-keyboard-response","181","181512","0.0-16.0-0.34","SS1602797585862","","null","","","","","","","","","","","","<img src=images/blank.png width =""500"" height = ""500"" style=""border:5px solid black"">","","",""
"","192.9899999522604","stimulus-presentation","182","181913","0.0-16.0-1.34","SS1602797585862","<img src='images/simple/13.png' width ='500' height = '500' style='border:5px solid black'>","40","all_simple","images/simple/3.png","images/simple/13.png","images/simple/14.png,images/simple/11.png,images/simple/10.png,images/simple/18.png,images/simple/6.png,images/simple/1.png,images/simple/7.png","1","null","","200","392.9899999522604","","","","background","",""
"","null","html-keyboard-response","183","183187","0.0-16.0-0.35","SS1602797585862","","null","","","","","","","","","","","","<img src=images/blank.png width =""500"" height = ""500"" style=""border:5px solid black"">","","",""
"","380.7999999844469","stimulus-presentation","184","183781","0.0-16.0-1.35","SS1602797585862","<img src='images/simple/18.png' width ='500' height = '500' style='border:5px solid black'>","40","all_simple","images/simple/3.png","images/simple/13.png","images/simple/14.png,images/simple/11.png,images/simple/10.png,images/simple/18.png,images/simple/6.png,images/simple/1.png,images/simple/7.png","1","null","","200","580.7999999844469","","","","deviant","",""
"","null","html-keyboard-response","185","184919","0.0-16.0-0.36","SS1602797585862","","null","","","","","","","","","","","","<img src=images/blank.png width =""500"" height = ""500"" style=""border:5px solid black"">","","",""
"","192.1849999926053","stimulus-presentation","186","185321","0.0-16.0-1.36","SS1602797585862","<img src='images/simple/13.png' width ='500' height = '500' style='border:5px solid black'>","40","all_simple","images/simple/3.png","images/simple/13.png","images/simple/14.png,images/simple/11.png,images/simple/10.png,images/simple/18.png,images/simple/6.png,images/simple/1.png,images/simple/7.png","1","null","","200","392.1849999926053","","","","background","",""
"","null","html-keyboard-response","187","186525","0.0-16.0-0.37","SS1602797585862","","null","","","","","","","","","","","","<img src=images/blank.png width =""500"" height = ""500"" style=""border:5px solid black"">","","",""
"","160.69500002777204","stimulus-presentation","188","186899","0.0-16.0-1.37","SS1602797585862","<img src='images/simple/13.png' width ='500' height = '500' style='border:5px solid black'>","40","all_simple","images/simple/3.png","images/simple/13.png","images/simple/14.png,images/simple/11.png,images/simple/10.png,images/simple/18.png,images/simple/6.png,images/simple/1.png,images/simple/7.png","1","null","","200","360.69500002777204","","","","background","",""
"","null","html-keyboard-response","189","187915","0.0-16.0-0.38","SS1602797585862","","null","","","","","","","","","","","","<img src=images/blank.png width =""500"" height = ""500"" style=""border:5px solid black"">","","",""
"","163.93000003881752","stimulus-presentation","190","188289","0.0-16.0-1.38","SS1602797585862","<img src='images/simple/13.png' width ='500' height = '500' style='border:5px solid black'>","40","all_simple","images/simple/3.png","images/simple/13.png","images/simple/14.png,images/simple/11.png,images/simple/10.png,images/simple/18.png,images/simple/6.png,images/simple/1.png,images/simple/7.png","1","null","","200","363.9300000388175","","","","background","",""
"","null","html-keyboard-response","191","189578","0.0-16.0-0.39","SS1602797585862","","null","","","","","","","","","","","","<img src=images/blank.png width =""500"" height = ""500"" style=""border:5px solid black"">","","",""
"","132.01000000117347","stimulus-presentation","192","189923","0.0-16.0-1.39","SS1602797585862","<img src='images/simple/13.png' width ='500' height = '500' style='border:5px solid black'>","40","all_simple","images/simple/3.png","images/simple/13.png","images/simple/14.png,images/simple/11.png,images/simple/10.png,images/simple/18.png,images/simple/6.png,images/simple/1.png,images/simple/7.png","1","null","","200","332.01000000117347","","","","background","",""
"","null","html-keyboard-response","193","190748","0.0-16.0-0.40","SS1602797585862","","null","","","","","","","","","","","","<img src=images/blank.png width =""500"" height = ""500"" style=""border:5px solid black"">","","",""
"","190.27000002097338","stimulus-presentation","194","191149","0.0-16.0-1.40","SS1602797585862","<img src='images/simple/13.png' width ='500' height = '500' style='border:5px solid black'>","40","all_simple","images/simple/3.png","images/simple/13.png","images/simple/14.png,images/simple/11.png,images/simple/10.png,images/simple/18.png,images/simple/6.png,images/simple/1.png,images/simple/7.png","1","null","","200","390.2700000209734","","","","background","",""
"","null","html-keyboard-response","195","192443","0.0-16.0-0.41","SS1602797585862","","null","","","","","","","","","","","","<img src=images/blank.png width =""500"" height = ""500"" style=""border:5px solid black"">","","",""
"","338.4749999968335","stimulus-presentation","196","192994","0.0-16.0-1.41","SS1602797585862","<img src='images/simple/10.png' width ='500' height = '500' style='border:5px solid black'>","40","all_simple","images/simple/3.png","images/simple/13.png","images/simple/14.png,images/simple/11.png,images/simple/10.png,images/simple/18.png,images/simple/6.png,images/simple/1.png,images/simple/7.png","1","null","","200","538.4749999968335","","","","deviant","",""
"","null","html-keyboard-response","197","193811","0.0-16.0-0.42","SS1602797585862","","null","","","","","","","","","","","","<img src=images/blank.png width =""500"" height = ""500"" style=""border:5px solid black"">","","",""
"","139.66999994590878","stimulus-presentation","198","194161","0.0-16.0-1.42","SS1602797585862","<img src='images/simple/13.png' width ='500' height = '500' style='border:5px solid black'>","40","all_simple","images/simple/3.png","images/simple/13.png","images/simple/14.png,images/simple/11.png,images/simple/10.png,images/simple/18.png,images/simple/6.png,images/simple/1.png,images/simple/7.png","1","null","","200","339.6699999459088","","","","background","",""
"","null","html-keyboard-response","199","195241","0.0-16.0-0.43","SS1602797585862","","null","","","","","","","","","","","","<img src=images/blank.png width =""500"" height = ""500"" style=""border:5px solid black"">","","",""
"","152.60500001022592","stimulus-presentation","200","195602","0.0-16.0-1.43","SS1602797585862","<img src='images/simple/13.png' width ='500' height = '500' style='border:5px solid black'>","40","all_simple","images/simple/3.png","images/simple/13.png","images/simple/14.png,images/simple/11.png,images/simple/10.png,images/simple/18.png,images/simple/6.png,images/simple/1.png,images/simple/7.png","1","null","","200","352.6050000102259","","","","background","",""
"","null","html-keyboard-response","201","196904","0.0-16.0-0.44","SS1602797585862","","null","","","","","","","","","","","","<img src=images/blank.png width =""500"" height = ""500"" style=""border:5px solid black"">","","",""
"","230.4800000274554","stimulus-presentation","202","197342","0.0-16.0-1.44","SS1602797585862","<img src='images/simple/13.png' width ='500' height = '500' style='border:5px solid black'>","40","all_simple","images/simple/3.png","images/simple/13.png","images/simple/14.png,images/simple/11.png,images/simple/10.png,images/simple/18.png,images/simple/6.png,images/simple/1.png,images/simple/7.png","1","null","","200","430.4800000274554","","","","background","",""
"","null","html-keyboard-response","203","198206","0.0-16.0-0.45","SS1602797585862","","null","","","","","","","","","","","","<img src=images/blank.png width =""500"" height = ""500"" style=""border:5px solid black"">","","",""
"","1138.1800000090152","stimulus-presentation","204","199554","0.0-16.0-1.45","SS1602797585862","<img src='images/simple/3.png' width ='500' height = '500' style='border:5px solid black'>","40","all_simple","images/simple/3.png","images/simple/13.png","images/simple/14.png,images/simple/11.png,images/simple/10.png,images/simple/18.png,images/simple/6.png,images/simple/1.png,images/simple/7.png","1","null","","200","1338.1800000090152","yes","522.9099999996834","","target","",""
"","null","html-keyboard-response","205","200410","0.0-16.0-0.46","SS1602797585862","","null","","","","","","","","","","","","<img src=images/blank.png width =""500"" height = ""500"" style=""border:5px solid black"">","","",""
"","136.90500002121553","stimulus-presentation","206","200760","0.0-16.0-1.46","SS1602797585862","<img src='images/simple/3.png' width ='500' height = '500' style='border:5px solid black'>","40","all_simple","images/simple/3.png","images/simple/13.png","images/simple/14.png,images/simple/11.png,images/simple/10.png,images/simple/18.png,images/simple/6.png,images/simple/1.png,images/simple/7.png","1","null","","200","336.9050000212155","","","","target","",""
"","null","html-keyboard-response","207","201833","0.0-16.0-0.47","SS1602797585862","","null","","","","","","","","","","","","<img src=images/blank.png width =""500"" height = ""500"" style=""border:5px solid black"">","","",""
"","115.0400000042282","stimulus-presentation","208","202160","0.0-16.0-1.47","SS1602797585862","<img src='images/simple/13.png' width ='500' height = '500' style='border:5px solid black'>","40","all_simple","images/simple/3.png","images/simple/13.png","images/simple/14.png,images/simple/11.png,images/simple/10.png,images/simple/18.png,images/simple/6.png,images/simple/1.png,images/simple/7.png","1","null","","200","315.0400000042282","","","","background","",""
"","null","html-keyboard-response","209","203071","0.0-16.0-0.48","SS1602797585862","","null","","","","","","","","","","","","<img src=images/blank.png width =""500"" height = ""500"" style=""border:5px solid black"">","","",""
"","147.51999999862164","stimulus-presentation","210","203432","0.0-16.0-1.48","SS1602797585862","<img src='images/simple/3.png' width ='500' height = '500' style='border:5px solid black'>","40","all_simple","images/simple/3.png","images/simple/13.png","images/simple/14.png,images/simple/11.png,images/simple/10.png,images/simple/18.png,images/simple/6.png,images/simple/1.png,images/simple/7.png","1","null","","200","347.51999999862164","","","","target","",""
"[{""page_index"":0,""viewing_time"":2330}]","2331","task-instructions","211","205767","0.0-17.0","SS1602797585862","","","","","","","","","","","","","","","","",""
"[{""page_index"":0,""viewing_time"":1272.67000003485},{""page_index"":1,""viewing_time"":13967.780000006314},{""page_index"":2,""viewing_time"":879.8099999548867}]","16120.725000044331","instructions","212","221894","0.0-18.0","SS1602797585862","","","","","","","","","","","","","","","","",""
"","null","html-keyboard-response","213","223025","0.0-19.0-0.0","SS1602797585862","","null","","","","","","","","","","","","<img src=images/blank.png width =""500"" height = ""500"" style=""border:5px solid black"">","","",""
"","1148.0049999663606","stimulus-presentation","214","224386","0.0-19.0-1.0","SS1602797585862","<img src='images/complex/10.png' width ='500' height = '500' style='border:5px solid black'>","40","all_complex","images/complex/10.png","images/complex/6.png","images/complex/18.png,images/complex/12.png,images/complex/15.png,images/complex/11.png,images/complex/4.png,images/complex/9.png,images/complex/2.png","2","null","","200","1348.0049999663606","yes","334.21000000089407","","target","",""
"","null","html-keyboard-response","215","225418","0.0-19.0-0.1","SS1602797585862","","null","","","","","","","","","","","","<img src=images/blank.png width =""500"" height = ""500"" style=""border:5px solid black"">","","",""
"","348.6250000423752","stimulus-presentation","216","225978","0.0-19.0-1.1","SS1602797585862","<img src='images/complex/6.png' width ='500' height = '500' style='border:5px solid black'>","40","all_complex","images/complex/10.png","images/complex/6.png","images/complex/18.png,images/complex/12.png,images/complex/15.png,images/complex/11.png,images/complex/4.png,images/complex/9.png,images/complex/2.png","2","null","","200","548.6250000423752","","","","background","",""
"","null","html-keyboard-response","217","226967","0.0-19.0-0.2","SS1602797585862","","null","","","","","","","","","","","","<img src=images/blank.png width =""500"" height = ""500"" style=""border:5px solid black"">","","",""
"","245.67500001285225","stimulus-presentation","218","227426","0.0-19.0-1.2","SS1602797585862","<img src='images/complex/6.png' width ='500' height = '500' style='border:5px solid black'>","40","all_complex","images/complex/10.png","images/complex/6.png","images/complex/18.png,images/complex/12.png,images/complex/15.png,images/complex/11.png,images/complex/4.png,images/complex/9.png,images/complex/2.png","2","null","","200","445.67500001285225","","","","background","",""
"","null","html-keyboard-response","219","228405","0.0-19.0-0.3","SS1602797585862","","null","","","","","","","","","","","","<img src=images/blank.png width =""500"" height = ""500"" style=""border:5px solid black"">","","",""
"","154.29000003496185","stimulus-presentation","220","228770","0.0-19.0-1.3","SS1602797585862","<img src='images/complex/6.png' width ='500' height = '500' style='border:5px solid black'>","40","all_complex","images/complex/10.png","images/complex/6.png","images/complex/18.png,images/complex/12.png,images/complex/15.png,images/complex/11.png,images/complex/4.png,images/complex/9.png,images/complex/2.png","2","null","","200","354.29000003496185","","","","background","",""
"","null","html-keyboard-response","221","229729","0.0-19.0-0.4","SS1602797585862","","null","","","","","","","","","","","","<img src=images/blank.png width =""500"" height = ""500"" style=""border:5px solid black"">","","",""
"","161.05999995488673","stimulus-presentation","222","230099","0.0-19.0-1.4","SS1602797585862","<img src='images/complex/6.png' width ='500' height = '500' style='border:5px solid black'>","40","all_complex","images/complex/10.png","images/complex/6.png","images/complex/18.png,images/complex/12.png,images/complex/15.png,images/complex/11.png,images/complex/4.png,images/complex/9.png,images/complex/2.png","2","null","","200","361.05999995488673","","","","background","",""
"","null","html-keyboard-response","223","230932","0.0-19.0-0.5","SS1602797585862","","null","","","","","","","","","","","","<img src=images/blank.png width =""500"" height = ""500"" style=""border:5px solid black"">","","",""
"","383.86499998159707","stimulus-presentation","224","231526","0.0-19.0-1.5","SS1602797585862","<img src='images/complex/15.png' width ='500' height = '500' style='border:5px solid black'>","40","all_complex","images/complex/10.png","images/complex/6.png","images/complex/18.png,images/complex/12.png,images/complex/15.png,images/complex/11.png,images/complex/4.png,images/complex/9.png,images/complex/2.png","2","null","","200","583.8649999815971","","","","deviant","",""
"","null","html-keyboard-response","225","232618","0.0-19.0-0.6","SS1602797585862","","null","","","","","","","","","","","","<img src=images/blank.png width =""500"" height = ""500"" style=""border:5px solid black"">","","",""
"","140.84000000730157","stimulus-presentation","226","232971","0.0-19.0-1.6","SS1602797585862","<img src='images/complex/10.png' width ='500' height = '500' style='border:5px solid black'>","40","all_complex","images/complex/10.png","images/complex/6.png","images/complex/18.png,images/complex/12.png,images/complex/15.png,images/complex/11.png,images/complex/4.png,images/complex/9.png,images/complex/2.png","2","null","","200","340.84000000730157","","","","target","",""
"","null","html-keyboard-response","227","233806","0.0-19.0-0.7","SS1602797585862","","null","","","","","","","","","","","","<img src=images/blank.png width =""500"" height = ""500"" style=""border:5px solid black"">","","",""
"","198.3100000070408","stimulus-presentation","228","234216","0.0-19.0-1.7","SS1602797585862","<img src='images/complex/6.png' width ='500' height = '500' style='border:5px solid black'>","40","all_complex","images/complex/10.png","images/complex/6.png","images/complex/18.png,images/complex/12.png,images/complex/15.png,images/complex/11.png,images/complex/4.png,images/complex/9.png,images/complex/2.png","2","null","","200","398.3100000070408","","","","background","",""
"","null","html-keyboard-response","229","235459","0.0-19.0-0.8","SS1602797585862","","null","","","","","","","","","","","","<img src=images/blank.png width =""500"" height = ""500"" style=""border:5px solid black"">","","",""
"","173.36000001523644","stimulus-presentation","230","235843","0.0-19.0-1.8","SS1602797585862","<img src='images/complex/6.png' width ='500' height = '500' style='border:5px solid black'>","40","all_complex","images/complex/10.png","images/complex/6.png","images/complex/18.png,images/complex/12.png,images/complex/15.png,images/complex/11.png,images/complex/4.png,images/complex/9.png,images/complex/2.png","2","null","","200","373.36000001523644","","","","background","",""
"","null","html-keyboard-response","231","236661","0.0-19.0-0.9","SS1602797585862","","null","","","","","","","","","","","","<img src=images/blank.png width =""500"" height = ""500"" style=""border:5px solid black"">","","",""
"","903.9299999712966","stimulus-presentation","232","237778","0.0-19.0-1.9","SS1602797585862","<img src='images/complex/10.png' width ='500' height = '500' style='border:5px solid black'>","40","all_complex","images/complex/10.png","images/complex/6.png","images/complex/18.png,images/complex/12.png,images/complex/15.png,images/complex/11.png,images/complex/4.png,images/complex/9.png,images/complex/2.png","2","null","","200","1103.9299999712966","yes","287.88499999791384","","target","",""
"","null","html-keyboard-response","233","238741","0.0-19.0-0.10","SS1602797585862","","null","","","","","","","","","","","","<img src=images/blank.png width =""500"" height = ""500"" style=""border:5px solid black"">","","",""
"","911.2599999643862","stimulus-presentation","234","239866","0.0-19.0-1.10","SS1602797585862","<img src='images/complex/10.png' width ='500' height = '500' style='border:5px solid black'>","40","all_complex","images/complex/10.png","images/complex/6.png","images/complex/18.png,images/complex/12.png,images/complex/15.png,images/complex/11.png,images/complex/4.png,images/complex/9.png,images/complex/2.png","2","null","","200","1111.2599999643862","yes","279.90500000305474","","target","",""
"","null","html-keyboard-response","235","240818","0.0-19.0-0.11","SS1602797585862","","null","","","","","","","","","","","","<img src=images/blank.png width =""500"" height = ""500"" style=""border:5px solid black"">","","",""
"","300.20999995758757","stimulus-presentation","236","241331","0.0-19.0-1.11","SS1602797585862","<img src='images/complex/6.png' width ='500' height = '500' style='border:5px solid black'>","40","all_complex","images/complex/10.png","images/complex/6.png","images/complex/18.png,images/complex/12.png,images/complex/15.png,images/complex/11.png,images/complex/4.png,images/complex/9.png,images/complex/2.png","2","null","","200","500.20999995758757","","","","background","",""
"","null","html-keyboard-response","237","242323","0.0-19.0-0.12","SS1602797585862","","null","","","","","","","","","","","","<img src=images/blank.png width =""500"" height = ""500"" style=""border:5px solid black"">","","",""
"","989.1150000039488","stimulus-presentation","238","243522","0.0-19.0-1.12","SS1602797585862","<img src='images/complex/10.png' width ='500' height = '500' style='border:5px solid black'>","40","all_complex","images/complex/10.png","images/complex/6.png","images/complex/18.png,images/complex/12.png,images/complex/15.png,images/complex/11.png,images/complex/4.png,images/complex/9.png,images/complex/2.png","2","null","","200","1189.1150000039488","yes","384.1550000361167","","target","",""
"","null","html-keyboard-response","239","244725","0.0-19.0-0.13","SS1602797585862","","null","","","","","","","","","","","","<img src=images/blank.png width =""500"" height = ""500"" style=""border:5px solid black"">","","",""
"","531.3800000003539","stimulus-presentation","240","245467","0.0-19.0-1.13","SS1602797585862","<img src='images/complex/9.png' width ='500' height = '500' style='border:5px solid black'>","40","all_complex","images/complex/10.png","images/complex/6.png","images/complex/18.png,images/complex/12.png,images/complex/15.png,images/complex/11.png,images/complex/4.png,images/complex/9.png,images/complex/2.png","2","null","","200","731.3800000003539","","","","deviant","",""
"","null","html-keyboard-response","241","246355","0.0-19.0-0.14","SS1602797585862","","null","","","","","","","","","","","","<img src=images/blank.png width =""500"" height = ""500"" style=""border:5px solid black"">","","",""
"","244.62000001221895","stimulus-presentation","242","246811","0.0-19.0-1.14","SS1602797585862","<img src='images/complex/6.png' width ='500' height = '500' style='border:5px solid black'>","40","all_complex","images/complex/10.png","images/complex/6.png","images/complex/18.png,images/complex/12.png,images/complex/15.png,images/complex/11.png,images/complex/4.png,images/complex/9.png,images/complex/2.png","2","null","","200","444.62000001221895","","","","background","",""
"","null","html-keyboard-response","243","248097","0.0-19.0-0.15","SS1602797585862","","null","","","","","","","","","","","","<img src=images/blank.png width =""500"" height = ""500"" style=""border:5px solid black"">","","",""
"","256.58499996643513","stimulus-presentation","244","248562","0.0-19.0-1.15","SS1602797585862","<img src='images/complex/6.png' width ='500' height = '500' style='border:5px solid black'>","40","all_complex","images/complex/10.png","images/complex/6.png","images/complex/18.png,images/complex/12.png,images/complex/15.png,images/complex/11.png,images/complex/4.png,images/complex/9.png,images/complex/2.png","2","null","","200","456.58499996643513","","","","background","",""
"","null","html-keyboard-response","245","249860","0.0-19.0-0.16","SS1602797585862","","null","","","","","","","","","","","","<img src=images/blank.png width =""500"" height = ""500"" style=""border:5px solid black"">","","",""
"","289.7899999516085","stimulus-presentation","246","250362","0.0-19.0-1.16","SS1602797585862","<img src='images/complex/2.png' width ='500' height = '500' style='border:5px solid black'>","40","all_complex","images/complex/10.png","images/complex/6.png","images/complex/18.png,images/complex/12.png,images/complex/15.png,images/complex/11.png,images/complex/4.png,images/complex/9.png,images/complex/2.png","2","null","","200","489.7899999516085","","","","deviant","",""
"","null","html-keyboard-response","247","251541","0.0-19.0-0.17","SS1602797585862","","null","","","","","","","","","","","","<img src=images/blank.png width =""500"" height = ""500"" style=""border:5px solid black"">","","",""
"","224.0750000346452","stimulus-presentation","248","251979","0.0-19.0-1.17","SS1602797585862","<img src='images/complex/6.png' width ='500' height = '500' style='border:5px solid black'>","40","all_complex","images/complex/10.png","images/complex/6.png","images/complex/18.png,images/complex/12.png,images/complex/15.png,images/complex/11.png,images/complex/4.png,images/complex/9.png,images/complex/2.png","2","null","","200","424.0750000346452","","","","background","",""
"","null","html-keyboard-response","249","252913","0.0-19.0-0.18","SS1602797585862","","null","","","","","","","","","","","","<img src=images/blank.png width =""500"" height = ""500"" style=""border:5px solid black"">","","",""
"","297.6550000021234","stimulus-presentation","250","253421","0.0-19.0-1.18","SS1602797585862","<img src='images/complex/6.png' width ='500' height = '500' style='border:5px solid black'>","40","all_complex","images/complex/10.png","images/complex/6.png","images/complex/18.png,images/complex/12.png,images/complex/15.png,images/complex/11.png,images/complex/4.png,images/complex/9.png,images/complex/2.png","2","null","","200","497.6550000021234","","","","background","",""
"","null","html-keyboard-response","251","254623","0.0-19.0-0.19","SS1602797585862","","null","","","","","","","","","","","","<img src=images/blank.png width =""500"" height = ""500"" style=""border:5px solid black"">","","",""
"","184.05999999959022","stimulus-presentation","252","255017","0.0-19.0-1.19","SS1602797585862","<img src='images/complex/6.png' width ='500' height = '500' style='border:5px solid black'>","40","all_complex","images/complex/10.png","images/complex/6.png","images/complex/18.png,images/complex/12.png,images/complex/15.png,images/complex/11.png,images/complex/4.png,images/complex/9.png,images/complex/2.png","2","null","","200","384.0599999995902","","","","background","",""
"","null","html-keyboard-response","253","256180","0.0-19.0-0.20","SS1602797585862","","null","","","","","","","","","","","","<img src=images/blank.png width =""500"" height = ""500"" style=""border:5px solid black"">","","",""
"","267.55500002764165","stimulus-presentation","254","256659","0.0-19.0-1.20","SS1602797585862","<img src='images/complex/6.png' width ='500' height = '500' style='border:5px solid black'>","40","all_complex","images/complex/10.png","images/complex/6.png","images/complex/18.png,images/complex/12.png,images/complex/15.png,images/complex/11.png,images/complex/4.png,images/complex/9.png,images/complex/2.png","2","null","","200","467.55500002764165","","","","background","",""
"","null","html-keyboard-response","255","257818","0.0-19.0-0.21","SS1602797585862","","null","","","","","","","","","","","","<img src=images/blank.png width =""500"" height = ""500"" style=""border:5px solid black"">","","",""
"","164.27499998826534","stimulus-presentation","256","258194","0.0-19.0-1.21","SS1602797585862","<img src='images/complex/6.png' width ='500' height = '500' style='border:5px solid black'>","40","all_complex","images/complex/10.png","images/complex/6.png","images/complex/18.png,images/complex/12.png,images/complex/15.png,images/complex/11.png,images/complex/4.png,images/complex/9.png,images/complex/2.png","2","null","","200","364.27499998826534","","","","background","",""
"","null","html-keyboard-response","257","259019","0.0-19.0-0.22","SS1602797585862","","null","","","","","","","","","","","","<img src=images/blank.png width =""500"" height = ""500"" style=""border:5px solid black"">","","",""
"","205.14000003458932","stimulus-presentation","258","259436","0.0-19.0-1.22","SS1602797585862","<img src='images/complex/6.png' width ='500' height = '500' style='border:5px solid black'>","40","all_complex","images/complex/10.png","images/complex/6.png","images/complex/18.png,images/complex/12.png,images/complex/15.png,images/complex/11.png,images/complex/4.png,images/complex/9.png,images/complex/2.png","2","null","","200","405.1400000345893","","","","background","",""
"","null","html-keyboard-response","259","260476","0.0-19.0-0.23","SS1602797585862","","null","","","","","","","","","","","","<img src=images/blank.png width =""500"" height = ""500"" style=""border:5px solid black"">","","",""
"","91.58499998738989","stimulus-presentation","260","260781","0.0-19.0-1.23","SS1602797585862","<img src='images/complex/6.png' width ='500' height = '500' style='border:5px solid black'>","40","all_complex","images/complex/10.png","images/complex/6.png","images/complex/18.png,images/complex/12.png,images/complex/15.png,images/complex/11.png,images/complex/4.png,images/complex/9.png,images/complex/2.png","2","null","","200","291.5849999873899","","","","background","",""
"","null","html-keyboard-response","261","261718","0.0-19.0-0.24","SS1602797585862","","null","","","","","","","","","","","","<img src=images/blank.png width =""500"" height = ""500"" style=""border:5px solid black"">","","",""
"","543.98499999661","stimulus-presentation","262","262476","0.0-19.0-1.24","SS1602797585862","<img src='images/complex/11.png' width ='500' height = '500' style='border:5px solid black'>","40","all_complex","images/complex/10.png","images/complex/6.png","images/complex/18.png,images/complex/12.png,images/complex/15.png,images/complex/11.png,images/complex/4.png,images/complex/9.png,images/complex/2.png","2","null","","200","743.98499999661","","","","deviant","",""
"","null","html-keyboard-response","263","263360","0.0-19.0-0.25","SS1602797585862","","null","","","","","","","","","","","","<img src=images/blank.png width =""500"" height = ""500"" style=""border:5px solid black"">","","",""
"","173.35499997716397","stimulus-presentation","264","263747","0.0-19.0-1.25","SS1602797585862","<img src='images/complex/6.png' width ='500' height = '500' style='border:5px solid black'>","40","all_complex","images/complex/10.png","images/complex/6.png","images/complex/18.png,images/complex/12.png,images/complex/15.png,images/complex/11.png,images/complex/4.png,images/complex/9.png,images/complex/2.png","2","null","","200","373.35499997716397","","","","background","",""
"","null","html-keyboard-response","265","264654","0.0-19.0-0.26","SS1602797585862","","null","","","","","","","","","","","","<img src=images/blank.png width =""500"" height = ""500"" style=""border:5px solid black"">","","",""
"","194.28499997593462","stimulus-presentation","266","265059","0.0-19.0-1.26","SS1602797585862","<img src='images/complex/6.png' width ='500' height = '500' style='border:5px solid black'>","40","all_complex","images/complex/10.png","images/complex/6.png","images/complex/18.png,images/complex/12.png,images/complex/15.png,images/complex/11.png,images/complex/4.png,images/complex/9.png,images/complex/2.png","2","null","","200","394.2849999759346","","","","background","",""
"","null","html-keyboard-response","267","266255","0.0-19.0-0.27","SS1602797585862","","null","","","","","","","","","","","","<img src=images/blank.png width =""500"" height = ""500"" style=""border:5px solid black"">","","",""
"","342.4850000301376","stimulus-presentation","268","266811","0.0-19.0-1.27","SS1602797585862","<img src='images/complex/18.png' width ='500' height = '500' style='border:5px solid black'>","40","all_complex","images/complex/10.png","images/complex/6.png","images/complex/18.png,images/complex/12.png,images/complex/15.png,images/complex/11.png,images/complex/4.png,images/complex/9.png,images/complex/2.png","2","null","","200","542.4850000301376","","","","deviant","",""
"","null","html-keyboard-response","269","267958","0.0-19.0-0.28","SS1602797585862","","null","","","","","","","","","","","","<img src=images/blank.png width =""500"" height = ""500"" style=""border:5px solid black"">","","",""
"","311.6450000088662","stimulus-presentation","270","268484","0.0-19.0-1.28","SS1602797585862","<img src='images/complex/6.png' width ='500' height = '500' style='border:5px solid black'>","40","all_complex","images/complex/10.png","images/complex/6.png","images/complex/18.png,images/complex/12.png,images/complex/15.png,images/complex/11.png,images/complex/4.png,images/complex/9.png,images/complex/2.png","2","null","","200","511.6450000088662","","","","background","",""
"","null","html-keyboard-response","271","269635","0.0-19.0-0.29","SS1602797585862","","null","","","","","","","","","","","","<img src=images/blank.png width =""500"" height = ""500"" style=""border:5px solid black"">","","",""
"","228.34500001044944","stimulus-presentation","272","270075","0.0-19.0-1.29","SS1602797585862","<img src='images/complex/10.png' width ='500' height = '500' style='border:5px solid black'>","40","all_complex","images/complex/10.png","images/complex/6.png","images/complex/18.png,images/complex/12.png,images/complex/15.png,images/complex/11.png,images/complex/4.png,images/complex/9.png,images/complex/2.png","2","null","","200","428.34500001044944","","","","target","",""
"","null","html-keyboard-response","273","271313","0.0-19.0-0.30","SS1602797585862","","null","","","","","","","","","","","","<img src=images/blank.png width =""500"" height = ""500"" style=""border:5px solid black"">","","",""
"","1151.5500000095926","stimulus-presentation","274","272676","0.0-19.0-1.30","SS1602797585862","<img src='images/complex/6.png' width ='500' height = '500' style='border:5px solid black'>","40","all_complex","images/complex/10.png","images/complex/6.png","images/complex/18.png,images/complex/12.png,images/complex/15.png,images/complex/11.png,images/complex/4.png,images/complex/9.png,images/complex/2.png","2","null","","200","1351.5500000095926","","","","background","",""
"","null","html-keyboard-response","275","273980","0.0-19.0-0.31","SS1602797585862","","null","","","","","","","","","","","","<img src=images/blank.png width =""500"" height = ""500"" style=""border:5px solid black"">","","",""
"","2509.269999980461","stimulus-presentation","276","276702","0.0-19.0-1.31","SS1602797585862","<img src='images/complex/6.png' width ='500' height = '500' style='border:5px solid black'>","40","all_complex","images/complex/10.png","images/complex/6.png","images/complex/18.png,images/complex/12.png,images/complex/15.png,images/complex/11.png,images/complex/4.png,images/complex/9.png,images/complex/2.png","2","null","","200","2709.269999980461","","","","background","",""
"","null","html-keyboard-response","277","277568","0.0-19.0-0.32","SS1602797585862","","null","","","","","","","","","","","","<img src=images/blank.png width =""500"" height = ""500"" style=""border:5px solid black"">","","",""
"","415.0950000039302","stimulus-presentation","278","278195","0.0-19.0-1.32","SS1602797585862","<img src='images/complex/6.png' width ='500' height = '500' style='border:5px solid black'>","40","all_complex","images/complex/10.png","images/complex/6.png","images/complex/18.png,images/complex/12.png,images/complex/15.png,images/complex/11.png,images/complex/4.png,images/complex/9.png,images/complex/2.png","2","null","","200","615.0950000039302","","","","background","",""
"","null","html-keyboard-response","279","279019","0.0-19.0-0.33","SS1602797585862","","null","","","","","","","","","","","","<img src=images/blank.png width =""500"" height = ""500"" style=""border:5px solid black"">","","",""
"","13526.41000004951","stimulus-presentation","280","292758","0.0-19.0-1.33","SS1602797585862","<img src='images/complex/6.png' width ='500' height = '500' style='border:5px solid black'>","40","all_complex","images/complex/10.png","images/complex/6.png","images/complex/18.png,images/complex/12.png,images/complex/15.png,images/complex/11.png,images/complex/4.png,images/complex/9.png,images/complex/2.png","2","null","","200","13726.41000004951","","","","background","",""
"","null","html-keyboard-response","281","293749","0.0-19.0-0.34","SS1602797585862","","null","","","","","","","","","","","","<img src=images/blank.png width =""500"" height = ""500"" style=""border:5px solid black"">","","",""
"","315.279999980703","stimulus-presentation","282","294275","0.0-19.0-1.34","SS1602797585862","<img src='images/complex/4.png' width ='500' height = '500' style='border:5px solid black'>","40","all_complex","images/complex/10.png","images/complex/6.png","images/complex/18.png,images/complex/12.png,images/complex/15.png,images/complex/11.png,images/complex/4.png,images/complex/9.png,images/complex/2.png","2","null","","200","515.279999980703","","","","deviant","",""
"","null","html-keyboard-response","283","295091","0.0-19.0-0.35","SS1602797585862","","null","","","","","","","","","","","","<img src=images/blank.png width =""500"" height = ""500"" style=""border:5px solid black"">","","",""
"","171.4050000300631","stimulus-presentation","284","295477","0.0-19.0-1.35","SS1602797585862","<img src='images/complex/6.png' width ='500' height = '500' style='border:5px solid black'>","40","all_complex","images/complex/10.png","images/complex/6.png","images/complex/18.png,images/complex/12.png,images/complex/15.png,images/complex/11.png,images/complex/4.png,images/complex/9.png,images/complex/2.png","2","null","","200","371.4050000300631","","","","background","",""
