"view_history","rt","trial_type","trial_index","time_elapsed","internal_node_id","subject","trial_stimulus","key_press","task_type","task_target_stimulus","task_background_stimulus","task_deviant_stimuli","task_order_number","block_order_number","trial_order_number","minimum_viewing_duration","trial_looking_time","trial_pressed_space_bar","trial_space_bar_rt","stimulus","trial_stimulus_type","responses","question_order"
"[{""page_index"":0,""viewing_time"":12106.96000000462}]","12108.445000019856","instructions","0","12136","0.0-0.0","SS1604513300372","","","","","","","","","","","","","","","","",""
"[{""page_index"":0,""viewing_time"":60915.15499999514},{""page_index"":1,""viewing_time"":7064.285000029486},{""page_index"":2,""viewing_time"":6393.054999993183},{""page_index"":3,""viewing_time"":11394.449999963399},{""page_index"":4,""viewing_time"":11054.065000033006},{""page_index"":5,""viewing_time"":9218.389999994542},{""page_index"":6,""viewing_time"":4488.055000023451},{""page_index"":7,""viewing_time"":7776.779999956489},{""page_index"":8,""viewing_time"":2919.244999997318}]","121223.7900000182","instructions","1","133364","0.0-1.0","SS1604513300372","","","","","","","","","","","","","","","","",""
"[{""page_index"":0,""viewing_time"":8514.239999989513},{""page_index"":1,""viewing_time"":8415.080000006128},{""page_index"":2,""viewing_time"":1831.145000003744}]","18761.140000016894","instructions","2","152128","0.0-2.0","SS1604513300372","","","","","","","","","","","","","","","","",""
"","3126.1750000412576","practice-block","3","155473","0.0-3.0","SS1604513300372","<img src='images/practice/practice_background.jpeg' width ='500' height = '500' style='border:5px solid black'>","40","null","images/practice/practice_target.jpg","null","null","null","null","","200","3326.1750000412576","","","","","",""
"","null","html-keyboard-response","4","156588","0.0-4.0","SS1604513300372","","null","","","","","","","","","","","","<img src=images/blank.png width =""500"" height = ""500"" style=""border:5px solid black"">","","",""
"","775.6999999983236","practice-block","5","157584","0.0-5.0","SS1604513300372","<img src='images/practice/practice_background.jpeg' width ='500' height = '500' style='border:5px solid black'>","40","null","images/practice/practice_target.jpg","null","null","null","null","","200","975.6999999983236","","","","","",""
"","null","html-keyboard-response","6","158560","0.0-6.0","SS1604513300372","","null","","","","","","","","","","","","<img src=images/blank.png width =""500"" height = ""500"" style=""border:5px solid black"">","","",""
"","499.2249999777414","practice-block","7","159278","0.0-7.0","SS1604513300372","<img src='images/practice/practice_deviant.jpeg' width ='500' height = '500' style='border:5px solid black'>","40","null","images/practice/practice_target.jpg","null","null","null","null","","200","699.2249999777414","","","","","",""
"","null","html-keyboard-response","8","160524","0.0-8.0","SS1604513300372","","null","","","","","","","","","","","","<img src=images/blank.png width =""500"" height = ""500"" style=""border:5px solid black"">","","",""
"","4352.0250000292435","practice-block","9","165099","0.0-9.0-0.0","SS1604513300372","<img src='images/practice/practice_target.jpg' width ='500' height = '500' style='border:5px solid black'>","40","null","images/practice/practice_target.jpg","null","null","null","null","","200","4552.0250000292435","yes","650.8450000546873","","","",""
"","null","html-keyboard-response","10","166163","0.0-10.0","SS1604513300372","","null","","","","","","","","","","","","<img src=images/blank.png width =""500"" height = ""500"" style=""border:5px solid black"">","","",""
"","587.5549999764189","practice-block","11","166968","0.0-11.0","SS1604513300372","<img src='images/practice/practice_background.jpeg' width ='500' height = '500' style='border:5px solid black'>","40","null","images/practice/practice_target.jpg","null","null","null","null","","200","787.5549999764189","","","","","",""
"[{""page_index"":0,""viewing_time"":1582}]","1583","task-instructions","12","168559","0.0-12.0","SS1604513300372","","","","","","","","","","","","","","","","",""
"[{""page_index"":0,""viewing_time"":1578.7100000306964},{""page_index"":1,""viewing_time"":11637.099999992643},{""page_index"":2,""viewing_time"":2310.7299999683164}]","15526.91000001505","instructions","13","184095","0.0-13.0","SS1604513300372","","","","","","","","","","","","","","","","",""
"","null","html-keyboard-response","14","185133","0.0-14.0-0.0","SS1604513300372","","null","","","","","","","","","","","","<img src=images/blank.png width =""500"" height = ""500"" style=""border:5px solid black"">","","",""
"","3134.5950000104494","stimulus-presentation","15","188490","0.0-14.0-1.0","SS1604513300372","<img src='images/simple/3.png' width ='500' height = '500' style='border:5px solid black'>","40","all_simple","images/simple/9.png","images/simple/3.png","images/simple/17.png,images/simple/5.png,images/simple/7.png,images/simple/8.png,images/simple/4.png,images/simple/18.png,images/simple/10.png","0","null","","200","3334.5950000104494","","","","background","",""
"","null","html-keyboard-response","16","189806","0.0-14.0-0.1","SS1604513300372","","null","","","","","","","","","","","","<img src=images/blank.png width =""500"" height = ""500"" style=""border:5px solid black"">","","",""
"","2240.014999988489","stimulus-presentation","17","192268","0.0-14.0-1.1","SS1604513300372","<img src='images/simple/10.png' width ='500' height = '500' style='border:5px solid black'>","40","all_simple","images/simple/9.png","images/simple/3.png","images/simple/17.png,images/simple/5.png,images/simple/7.png,images/simple/8.png,images/simple/4.png,images/simple/18.png,images/simple/10.png","0","null","","200","2440.014999988489","","","","deviant","",""
"","null","html-keyboard-response","18","193568","0.0-14.0-0.2","SS1604513300372","","null","","","","","","","","","","","","<img src=images/blank.png width =""500"" height = ""500"" style=""border:5px solid black"">","","",""
"","2913.5849999729544","stimulus-presentation","19","196694","0.0-14.0-1.2","SS1604513300372","<img src='images/simple/3.png' width ='500' height = '500' style='border:5px solid black'>","40","all_simple","images/simple/9.png","images/simple/3.png","images/simple/17.png,images/simple/5.png,images/simple/7.png,images/simple/8.png,images/simple/4.png,images/simple/18.png,images/simple/10.png","0","null","","200","3113.5849999729544","yes","1910.3800000157207","","background","",""
"","null","html-keyboard-response","20","197546","0.0-14.0-0.3","SS1604513300372","","null","","","","","","","","","","","","<img src=images/blank.png width =""500"" height = ""500"" style=""border:5px solid black"">","","",""
"","5958.474999992177","stimulus-presentation","21","203731","0.0-14.0-1.3","SS1604513300372","<img src='images/simple/3.png' width ='500' height = '500' style='border:5px solid black'>","40","all_simple","images/simple/9.png","images/simple/3.png","images/simple/17.png,images/simple/5.png,images/simple/7.png,images/simple/8.png,images/simple/4.png,images/simple/18.png,images/simple/10.png","0","null","","200","6158.474999992177","","","","background","",""
"","null","html-keyboard-response","22","204926","0.0-14.0-0.4","SS1604513300372","","null","","","","","","","","","","","","<img src=images/blank.png width =""500"" height = ""500"" style=""border:5px solid black"">","","",""
"","777.4450000142679","stimulus-presentation","23","205915","0.0-14.0-1.4","SS1604513300372","<img src='images/simple/3.png' width ='500' height = '500' style='border:5px solid black'>","40","all_simple","images/simple/9.png","images/simple/3.png","images/simple/17.png,images/simple/5.png,images/simple/7.png,images/simple/8.png,images/simple/4.png,images/simple/18.png,images/simple/10.png","0","null","","200","977.4450000142679","","","","background","",""
"","null","html-keyboard-response","24","206849","0.0-14.0-0.5","SS1604513300372","","null","","","","","","","","","","","","<img src=images/blank.png width =""500"" height = ""500"" style=""border:5px solid black"">","","",""
"","618.4099999954924","stimulus-presentation","25","207690","0.0-14.0-1.5","SS1604513300372","<img src='images/simple/9.png' width ='500' height = '500' style='border:5px solid black'>","40","all_simple","images/simple/9.png","images/simple/3.png","images/simple/17.png,images/simple/5.png,images/simple/7.png,images/simple/8.png,images/simple/4.png,images/simple/18.png,images/simple/10.png","0","null","","200","818.4099999954924","","","","target","",""
"","null","html-keyboard-response","26","208768","0.0-14.0-0.6","SS1604513300372","","null","","","","","","","","","","","","<img src=images/blank.png width =""500"" height = ""500"" style=""border:5px solid black"">","","",""
"","506.21000002138317","stimulus-presentation","27","209498","0.0-14.0-1.6","SS1604513300372","<img src='images/simple/3.png' width ='500' height = '500' style='border:5px solid black'>","40","all_simple","images/simple/9.png","images/simple/3.png","images/simple/17.png,images/simple/5.png,images/simple/7.png,images/simple/8.png,images/simple/4.png,images/simple/18.png,images/simple/10.png","0","null","","200","706.2100000213832","","","","background","",""
"","null","html-keyboard-response","28","210792","0.0-14.0-0.7","SS1604513300372","","null","","","","","","","","","","","","<img src=images/blank.png width =""500"" height = ""500"" style=""border:5px solid black"">","","",""
"","336.69499994721264","stimulus-presentation","29","211348","0.0-14.0-1.7","SS1604513300372","<img src='images/simple/3.png' width ='500' height = '500' style='border:5px solid black'>","40","all_simple","images/simple/9.png","images/simple/3.png","images/simple/17.png,images/simple/5.png,images/simple/7.png,images/simple/8.png,images/simple/4.png,images/simple/18.png,images/simple/10.png","0","null","","200","536.6949999472126","","","","background","",""
"","null","html-keyboard-response","30","212618","0.0-14.0-0.8","SS1604513300372","","null","","","","","","","","","","","","<img src=images/blank.png width =""500"" height = ""500"" style=""border:5px solid black"">","","",""
"","293.4549999772571","stimulus-presentation","31","213131","0.0-14.0-1.8","SS1604513300372","<img src='images/simple/3.png' width ='500' height = '500' style='border:5px solid black'>","40","all_simple","images/simple/9.png","images/simple/3.png","images/simple/17.png,images/simple/5.png,images/simple/7.png,images/simple/8.png,images/simple/4.png,images/simple/18.png,images/simple/10.png","0","null","","200","493.4549999772571","","","","background","",""
"","null","html-keyboard-response","32","214301","0.0-14.0-0.9","SS1604513300372","","null","","","","","","","","","","","","<img src=images/blank.png width =""500"" height = ""500"" style=""border:5px solid black"">","","",""
"","264.4299999810755","stimulus-presentation","33","214784","0.0-14.0-1.9","SS1604513300372","<img src='images/simple/3.png' width ='500' height = '500' style='border:5px solid black'>","40","all_simple","images/simple/9.png","images/simple/3.png","images/simple/17.png,images/simple/5.png,images/simple/7.png,images/simple/8.png,images/simple/4.png,images/simple/18.png,images/simple/10.png","0","null","","200","464.4299999810755","","","","background","",""
"","null","html-keyboard-response","34","215881","0.0-14.0-0.10","SS1604513300372","","null","","","","","","","","","","","","<img src=images/blank.png width =""500"" height = ""500"" style=""border:5px solid black"">","","",""
"","238.95500000799075","stimulus-presentation","35","216351","0.0-14.0-1.10","SS1604513300372","<img src='images/simple/3.png' width ='500' height = '500' style='border:5px solid black'>","40","all_simple","images/simple/9.png","images/simple/3.png","images/simple/17.png,images/simple/5.png,images/simple/7.png,images/simple/8.png,images/simple/4.png,images/simple/18.png,images/simple/10.png","0","null","","200","438.95500000799075","","","","background","",""
"","null","html-keyboard-response","36","217210","0.0-14.0-0.11","SS1604513300372","","null","","","","","","","","","","","","<img src=images/blank.png width =""500"" height = ""500"" style=""border:5px solid black"">","","",""
"","233.58500003814697","stimulus-presentation","37","217667","0.0-14.0-1.11","SS1604513300372","<img src='images/simple/3.png' width ='500' height = '500' style='border:5px solid black'>","40","all_simple","images/simple/9.png","images/simple/3.png","images/simple/17.png,images/simple/5.png,images/simple/7.png,images/simple/8.png,images/simple/4.png,images/simple/18.png,images/simple/10.png","0","null","","200","433.585000038147","","","","background","",""
"","null","html-keyboard-response","38","218615","0.0-14.0-0.12","SS1604513300372","","null","","","","","","","","","","","","<img src=images/blank.png width =""500"" height = ""500"" style=""border:5px solid black"">","","",""
"","186.4449999993667","stimulus-presentation","39","219035","0.0-14.0-1.12","SS1604513300372","<img src='images/simple/3.png' width ='500' height = '500' style='border:5px solid black'>","40","all_simple","images/simple/9.png","images/simple/3.png","images/simple/17.png,images/simple/5.png,images/simple/7.png,images/simple/8.png,images/simple/4.png,images/simple/18.png,images/simple/10.png","0","null","","200","386.4449999993667","","","","background","",""
"","null","html-keyboard-response","40","220022","0.0-14.0-0.13","SS1604513300372","","null","","","","","","","","","","","","<img src=images/blank.png width =""500"" height = ""500"" style=""border:5px solid black"">","","",""
"","182.96000000555068","stimulus-presentation","41","220439","0.0-14.0-1.13","SS1604513300372","<img src='images/simple/3.png' width ='500' height = '500' style='border:5px solid black'>","40","all_simple","images/simple/9.png","images/simple/3.png","images/simple/17.png,images/simple/5.png,images/simple/7.png,images/simple/8.png,images/simple/4.png,images/simple/18.png,images/simple/10.png","0","null","","200","382.9600000055507","","","","background","",""
"","null","html-keyboard-response","42","221371","0.0-14.0-0.14","SS1604513300372","","null","","","","","","","","","","","","<img src=images/blank.png width =""500"" height = ""500"" style=""border:5px solid black"">","","",""
"","217.24500000709668","stimulus-presentation","43","221809","0.0-14.0-1.14","SS1604513300372","<img src='images/simple/3.png' width ='500' height = '500' style='border:5px solid black'>","40","all_simple","images/simple/9.png","images/simple/3.png","images/simple/17.png,images/simple/5.png,images/simple/7.png,images/simple/8.png,images/simple/4.png,images/simple/18.png,images/simple/10.png","0","null","","200","417.2450000070967","","","","background","",""
"","null","html-keyboard-response","44","222785","0.0-14.0-0.15","SS1604513300372","","null","","","","","","","","","","","","<img src=images/blank.png width =""500"" height = ""500"" style=""border:5px solid black"">","","",""
"","242.64499999117106","stimulus-presentation","45","223261","0.0-14.0-1.15","SS1604513300372","<img src='images/simple/3.png' width ='500' height = '500' style='border:5px solid black'>","40","all_simple","images/simple/9.png","images/simple/3.png","images/simple/17.png,images/simple/5.png,images/simple/7.png,images/simple/8.png,images/simple/4.png,images/simple/18.png,images/simple/10.png","0","null","","200","442.64499999117106","","","","background","",""
"","null","html-keyboard-response","46","224429","0.0-14.0-0.16","SS1604513300372","","null","","","","","","","","","","","","<img src=images/blank.png width =""500"" height = ""500"" style=""border:5px solid black"">","","",""
"","235.9400000423193","stimulus-presentation","47","224891","0.0-14.0-1.16","SS1604513300372","<img src='images/simple/3.png' width ='500' height = '500' style='border:5px solid black'>","40","all_simple","images/simple/9.png","images/simple/3.png","images/simple/17.png,images/simple/5.png,images/simple/7.png,images/simple/8.png,images/simple/4.png,images/simple/18.png,images/simple/10.png","0","null","","200","435.9400000423193","","","","background","",""
"","null","html-keyboard-response","48","225755","0.0-14.0-0.17","SS1604513300372","","null","","","","","","","","","","","","<img src=images/blank.png width =""500"" height = ""500"" style=""border:5px solid black"">","","",""
"","455.92999999644235","stimulus-presentation","49","226445","0.0-14.0-1.17","SS1604513300372","<img src='images/simple/3.png' width ='500' height = '500' style='border:5px solid black'>","40","all_simple","images/simple/9.png","images/simple/3.png","images/simple/17.png,images/simple/5.png,images/simple/7.png,images/simple/8.png,images/simple/4.png,images/simple/18.png,images/simple/10.png","0","null","","200","655.9299999964423","","","","background","",""
"","null","html-keyboard-response","50","227523","0.0-14.0-0.18","SS1604513300372","","null","","","","","","","","","","","","<img src=images/blank.png width =""500"" height = ""500"" style=""border:5px solid black"">","","",""
"","632.0299999788404","stimulus-presentation","51","228392","0.0-14.0-1.18","SS1604513300372","<img src='images/simple/8.png' width ='500' height = '500' style='border:5px solid black'>","40","all_simple","images/simple/9.png","images/simple/3.png","images/simple/17.png,images/simple/5.png,images/simple/7.png,images/simple/8.png,images/simple/4.png,images/simple/18.png,images/simple/10.png","0","null","","200","832.0299999788404","","","","deviant","",""
"","null","html-keyboard-response","52","229713","0.0-14.0-0.19","SS1604513300372","","null","","","","","","","","","","","","<img src=images/blank.png width =""500"" height = ""500"" style=""border:5px solid black"">","","",""
"","457.98499998636544","stimulus-presentation","53","230406","0.0-14.0-1.19","SS1604513300372","<img src='images/simple/9.png' width ='500' height = '500' style='border:5px solid black'>","40","all_simple","images/simple/9.png","images/simple/3.png","images/simple/17.png,images/simple/5.png,images/simple/7.png,images/simple/8.png,images/simple/4.png,images/simple/18.png,images/simple/10.png","0","null","","200","657.9849999863654","","","","target","",""
"","null","html-keyboard-response","54","231354","0.0-14.0-0.20","SS1604513300372","","null","","","","","","","","","","","","<img src=images/blank.png width =""500"" height = ""500"" style=""border:5px solid black"">","","",""
"","422.42499999701977","stimulus-presentation","55","232011","0.0-14.0-1.20","SS1604513300372","<img src='images/simple/9.png' width ='500' height = '500' style='border:5px solid black'>","40","all_simple","images/simple/9.png","images/simple/3.png","images/simple/17.png,images/simple/5.png,images/simple/7.png,images/simple/8.png,images/simple/4.png,images/simple/18.png,images/simple/10.png","0","null","","200","622.4249999970198","","","","target","",""
"","null","html-keyboard-response","56","233169","0.0-14.0-0.21","SS1604513300372","","null","","","","","","","","","","","","<img src=images/blank.png width =""500"" height = ""500"" style=""border:5px solid black"">","","",""
"","240.90000003343448","stimulus-presentation","57","233669","0.0-14.0-1.21","SS1604513300372","<img src='images/simple/3.png' width ='500' height = '500' style='border:5px solid black'>","40","all_simple","images/simple/9.png","images/simple/3.png","images/simple/17.png,images/simple/5.png,images/simple/7.png,images/simple/8.png,images/simple/4.png,images/simple/18.png,images/simple/10.png","0","null","","200","440.9000000334345","","","","background","",""
"","null","html-keyboard-response","58","234933","0.0-14.0-0.22","SS1604513300372","","null","","","","","","","","","","","","<img src=images/blank.png width =""500"" height = ""500"" style=""border:5px solid black"">","","",""
"","226.88999999081716","stimulus-presentation","59","235395","0.0-14.0-1.22","SS1604513300372","<img src='images/simple/3.png' width ='500' height = '500' style='border:5px solid black'>","40","all_simple","images/simple/9.png","images/simple/3.png","images/simple/17.png,images/simple/5.png,images/simple/7.png,images/simple/8.png,images/simple/4.png,images/simple/18.png,images/simple/10.png","0","null","","200","426.88999999081716","","","","background","",""
"","null","html-keyboard-response","60","236302","0.0-14.0-0.23","SS1604513300372","","null","","","","","","","","","","","","<img src=images/blank.png width =""500"" height = ""500"" style=""border:5px solid black"">","","",""
"","177.83499998040497","stimulus-presentation","61","236715","0.0-14.0-1.23","SS1604513300372","<img src='images/simple/3.png' width ='500' height = '500' style='border:5px solid black'>","40","all_simple","images/simple/9.png","images/simple/3.png","images/simple/17.png,images/simple/5.png,images/simple/7.png,images/simple/8.png,images/simple/4.png,images/simple/18.png,images/simple/10.png","0","null","","200","377.834999980405","","","","background","",""
"","null","html-keyboard-response","62","238032","0.0-14.0-0.24","SS1604513300372","","null","","","","","","","","","","","","<img src=images/blank.png width =""500"" height = ""500"" style=""border:5px solid black"">","","",""
"","237.2050000121817","stimulus-presentation","63","238504","0.0-14.0-1.24","SS1604513300372","<img src='images/simple/3.png' width ='500' height = '500' style='border:5px solid black'>","40","all_simple","images/simple/9.png","images/simple/3.png","images/simple/17.png,images/simple/5.png,images/simple/7.png,images/simple/8.png,images/simple/4.png,images/simple/18.png,images/simple/10.png","0","null","","200","437.2050000121817","","","","background","",""
"","null","html-keyboard-response","64","239495","0.0-14.0-0.25","SS1604513300372","","null","","","","","","","","","","","","<img src=images/blank.png width =""500"" height = ""500"" style=""border:5px solid black"">","","",""
"","149.68999999109656","stimulus-presentation","65","239881","0.0-14.0-1.25","SS1604513300372","<img src='images/simple/3.png' width ='500' height = '500' style='border:5px solid black'>","40","all_simple","images/simple/9.png","images/simple/3.png","images/simple/17.png,images/simple/5.png,images/simple/7.png,images/simple/8.png,images/simple/4.png,images/simple/18.png,images/simple/10.png","0","null","","200","349.68999999109656","","","","background","",""
"","null","html-keyboard-response","66","240965","0.0-14.0-0.26","SS1604513300372","","null","","","","","","","","","","","","<img src=images/blank.png width =""500"" height = ""500"" style=""border:5px solid black"">","","",""
"","394.449999963399","stimulus-presentation","67","241594","0.0-14.0-1.26","SS1604513300372","<img src='images/simple/9.png' width ='500' height = '500' style='border:5px solid black'>","40","all_simple","images/simple/9.png","images/simple/3.png","images/simple/17.png,images/simple/5.png,images/simple/7.png,images/simple/8.png,images/simple/4.png,images/simple/18.png,images/simple/10.png","0","null","","200","594.449999963399","","","","target","",""
"","null","html-keyboard-response","68","242462","0.0-14.0-0.27","SS1604513300372","","null","","","","","","","","","","","","<img src=images/blank.png width =""500"" height = ""500"" style=""border:5px solid black"">","","",""
"","170.16500001773238","stimulus-presentation","69","242851","0.0-14.0-1.27","SS1604513300372","<img src='images/simple/3.png' width ='500' height = '500' style='border:5px solid black'>","40","all_simple","images/simple/9.png","images/simple/3.png","images/simple/17.png,images/simple/5.png,images/simple/7.png,images/simple/8.png,images/simple/4.png,images/simple/18.png,images/simple/10.png","0","null","","200","370.1650000177324","","","","background","",""
"","null","html-keyboard-response","70","244176","0.0-14.0-0.28","SS1604513300372","","null","","","","","","","","","","","","<img src=images/blank.png width =""500"" height = ""500"" style=""border:5px solid black"">","","",""
"","733.7049999623559","stimulus-presentation","71","245144","0.0-14.0-1.28","SS1604513300372","<img src='images/simple/18.png' width ='500' height = '500' style='border:5px solid black'>","40","all_simple","images/simple/9.png","images/simple/3.png","images/simple/17.png,images/simple/5.png,images/simple/7.png,images/simple/8.png,images/simple/4.png,images/simple/18.png,images/simple/10.png","0","null","","200","933.7049999623559","","","","deviant","",""
"","null","html-keyboard-response","72","246175","0.0-14.0-0.29","SS1604513300372","","null","","","","","","","","","","","","<img src=images/blank.png width =""500"" height = ""500"" style=""border:5px solid black"">","","",""
"","303.455000044778","stimulus-presentation","73","246714","0.0-14.0-1.29","SS1604513300372","<img src='images/simple/3.png' width ='500' height = '500' style='border:5px solid black'>","40","all_simple","images/simple/9.png","images/simple/3.png","images/simple/17.png,images/simple/5.png,images/simple/7.png,images/simple/8.png,images/simple/4.png,images/simple/18.png,images/simple/10.png","0","null","","200","503.455000044778","","","","background","",""
"","null","html-keyboard-response","74","248031","0.0-14.0-0.30","SS1604513300372","","null","","","","","","","","","","","","<img src=images/blank.png width =""500"" height = ""500"" style=""border:5px solid black"">","","",""
"","202.49500003410503","stimulus-presentation","75","248467","0.0-14.0-1.30","SS1604513300372","<img src='images/simple/3.png' width ='500' height = '500' style='border:5px solid black'>","40","all_simple","images/simple/9.png","images/simple/3.png","images/simple/17.png,images/simple/5.png,images/simple/7.png,images/simple/8.png,images/simple/4.png,images/simple/18.png,images/simple/10.png","0","null","","200","402.49500003410503","","","","background","",""
"","null","html-keyboard-response","76","249466","0.0-14.0-0.31","SS1604513300372","","null","","","","","","","","","","","","<img src=images/blank.png width =""500"" height = ""500"" style=""border:5px solid black"">","","",""
"","377.35999998403713","stimulus-presentation","77","250082","0.0-14.0-1.31","SS1604513300372","<img src='images/simple/7.png' width ='500' height = '500' style='border:5px solid black'>","40","all_simple","images/simple/9.png","images/simple/3.png","images/simple/17.png,images/simple/5.png,images/simple/7.png,images/simple/8.png,images/simple/4.png,images/simple/18.png,images/simple/10.png","0","null","","200","577.3599999840371","","","","deviant","",""
"","null","html-keyboard-response","78","251119","0.0-14.0-0.32","SS1604513300372","","null","","","","","","","","","","","","<img src=images/blank.png width =""500"" height = ""500"" style=""border:5px solid black"">","","",""
"","165.42500001378357","stimulus-presentation","79","251534","0.0-14.0-1.32","SS1604513300372","<img src='images/simple/3.png' width ='500' height = '500' style='border:5px solid black'>","40","all_simple","images/simple/9.png","images/simple/3.png","images/simple/17.png,images/simple/5.png,images/simple/7.png,images/simple/8.png,images/simple/4.png,images/simple/18.png,images/simple/10.png","0","null","","200","365.4250000137836","","","","background","",""
"","null","html-keyboard-response","80","252374","0.0-14.0-0.33","SS1604513300372","","null","","","","","","","","","","","","<img src=images/blank.png width =""500"" height = ""500"" style=""border:5px solid black"">","","",""
"","187.27999995462596","stimulus-presentation","81","252811","0.0-14.0-1.33","SS1604513300372","<img src='images/simple/3.png' width ='500' height = '500' style='border:5px solid black'>","40","all_simple","images/simple/9.png","images/simple/3.png","images/simple/17.png,images/simple/5.png,images/simple/7.png,images/simple/8.png,images/simple/4.png,images/simple/18.png,images/simple/10.png","0","null","","200","387.27999995462596","","","","background","",""
"","null","html-keyboard-response","82","254148","0.0-14.0-0.34","SS1604513300372","","null","","","","","","","","","","","","<img src=images/blank.png width =""500"" height = ""500"" style=""border:5px solid black"">","","",""
"","368.24999999953434","stimulus-presentation","83","254754","0.0-14.0-1.34","SS1604513300372","<img src='images/simple/17.png' width ='500' height = '500' style='border:5px solid black'>","40","all_simple","images/simple/9.png","images/simple/3.png","images/simple/17.png,images/simple/5.png,images/simple/7.png,images/simple/8.png,images/simple/4.png,images/simple/18.png,images/simple/10.png","0","null","","200","568.2499999995343","","","","deviant","",""
"","null","html-keyboard-response","84","255648","0.0-14.0-0.35","SS1604513300372","","null","","","","","","","","","","","","<img src=images/blank.png width =""500"" height = ""500"" style=""border:5px solid black"">","","",""
"","248.37000004481524","stimulus-presentation","85","256146","0.0-14.0-1.35","SS1604513300372","<img src='images/simple/3.png' width ='500' height = '500' style='border:5px solid black'>","40","all_simple","images/simple/9.png","images/simple/3.png","images/simple/17.png,images/simple/5.png,images/simple/7.png,images/simple/8.png,images/simple/4.png,images/simple/18.png,images/simple/10.png","0","null","","200","448.37000004481524","","","","background","",""
"","null","html-keyboard-response","86","257251","0.0-14.0-0.36","SS1604513300372","","null","","","","","","","","","","","","<img src=images/blank.png width =""500"" height = ""500"" style=""border:5px solid black"">","","",""
"","163.07499998947605","stimulus-presentation","87","257646","0.0-14.0-1.36","SS1604513300372","<img src='images/simple/3.png' width ='500' height = '500' style='border:5px solid black'>","40","all_simple","images/simple/9.png","images/simple/3.png","images/simple/17.png,images/simple/5.png,images/simple/7.png,images/simple/8.png,images/simple/4.png,images/simple/18.png,images/simple/10.png","0","null","","200","363.07499998947605","","","","background","",""
"","null","html-keyboard-response","88","258636","0.0-14.0-0.37","SS1604513300372","","null","","","","","","","","","","","","<img src=images/blank.png width =""500"" height = ""500"" style=""border:5px solid black"">","","",""
"","381.89000001875684","stimulus-presentation","89","259251","0.0-14.0-1.37","SS1604513300372","<img src='images/simple/9.png' width ='500' height = '500' style='border:5px solid black'>","40","all_simple","images/simple/9.png","images/simple/3.png","images/simple/17.png,images/simple/5.png,images/simple/7.png,images/simple/8.png,images/simple/4.png,images/simple/18.png,images/simple/10.png","0","null","","200","581.8900000187568","","","","target","",""
"","null","html-keyboard-response","90","260185","0.0-14.0-0.38","SS1604513300372","","null","","","","","","","","","","","","<img src=images/blank.png width =""500"" height = ""500"" style=""border:5px solid black"">","","",""
"","475.7400000235066","stimulus-presentation","91","260898","0.0-14.0-1.38","SS1604513300372","<img src='images/simple/4.png' width ='500' height = '500' style='border:5px solid black'>","40","all_simple","images/simple/9.png","images/simple/3.png","images/simple/17.png,images/simple/5.png,images/simple/7.png,images/simple/8.png,images/simple/4.png,images/simple/18.png,images/simple/10.png","0","null","","200","675.7400000235066","","","","deviant","",""
"","null","html-keyboard-response","92","261798","0.0-14.0-0.39","SS1604513300372","","null","","","","","","","","","","","","<img src=images/blank.png width =""500"" height = ""500"" style=""border:5px solid black"">","","",""
"","228.93500002101064","stimulus-presentation","93","262250","0.0-14.0-1.39","SS1604513300372","<img src='images/simple/3.png' width ='500' height = '500' style='border:5px solid black'>","40","all_simple","images/simple/9.png","images/simple/3.png","images/simple/17.png,images/simple/5.png,images/simple/7.png,images/simple/8.png,images/simple/4.png,images/simple/18.png,images/simple/10.png","0","null","","200","428.93500002101064","","","","background","",""
"","null","html-keyboard-response","94","263419","0.0-14.0-0.40","SS1604513300372","","null","","","","","","","","","","","","<img src=images/blank.png width =""500"" height = ""500"" style=""border:5px solid black"">","","",""
"","229.67499995138496","stimulus-presentation","95","263886","0.0-14.0-1.40","SS1604513300372","<img src='images/simple/3.png' width ='500' height = '500' style='border:5px solid black'>","40","all_simple","images/simple/9.png","images/simple/3.png","images/simple/17.png,images/simple/5.png,images/simple/7.png,images/simple/8.png,images/simple/4.png,images/simple/18.png,images/simple/10.png","0","null","","200","429.67499995138496","","","","background","",""
"","null","html-keyboard-response","96","265170","0.0-14.0-0.41","SS1604513300372","","null","","","","","","","","","","","","<img src=images/blank.png width =""500"" height = ""500"" style=""border:5px solid black"">","","",""
"","345.16500000609085","stimulus-presentation","97","265755","0.0-14.0-1.41","SS1604513300372","<img src='images/simple/9.png' width ='500' height = '500' style='border:5px solid black'>","40","all_simple","images/simple/9.png","images/simple/3.png","images/simple/17.png,images/simple/5.png,images/simple/7.png,images/simple/8.png,images/simple/4.png,images/simple/18.png,images/simple/10.png","0","null","","200","545.1650000060908","","","","target","",""
"","null","html-keyboard-response","98","266890","0.0-14.0-0.42","SS1604513300372","","null","","","","","","","","","","","","<img src=images/blank.png width =""500"" height = ""500"" style=""border:5px solid black"">","","",""
"","219.19500001240522","stimulus-presentation","99","267349","0.0-14.0-1.42","SS1604513300372","<img src='images/simple/3.png' width ='500' height = '500' style='border:5px solid black'>","40","all_simple","images/simple/9.png","images/simple/3.png","images/simple/17.png,images/simple/5.png,images/simple/7.png,images/simple/8.png,images/simple/4.png,images/simple/18.png,images/simple/10.png","0","null","","200","419.1950000124052","","","","background","",""
"","null","html-keyboard-response","100","268283","0.0-14.0-0.43","SS1604513300372","","null","","","","","","","","","","","","<img src=images/blank.png width =""500"" height = ""500"" style=""border:5px solid black"">","","",""
"","190.00999996205792","stimulus-presentation","101","268691","0.0-14.0-1.43","SS1604513300372","<img src='images/simple/3.png' width ='500' height = '500' style='border:5px solid black'>","40","all_simple","images/simple/9.png","images/simple/3.png","images/simple/17.png,images/simple/5.png,images/simple/7.png,images/simple/8.png,images/simple/4.png,images/simple/18.png,images/simple/10.png","0","null","","200","390.0099999620579","","","","background","",""
"","null","html-keyboard-response","102","269653","0.0-14.0-0.44","SS1604513300372","","null","","","","","","","","","","","","<img src=images/blank.png width =""500"" height = ""500"" style=""border:5px solid black"">","","",""
"","147.6050000055693","stimulus-presentation","103","270024","0.0-14.0-1.44","SS1604513300372","<img src='images/simple/3.png' width ='500' height = '500' style='border:5px solid black'>","40","all_simple","images/simple/9.png","images/simple/3.png","images/simple/17.png,images/simple/5.png,images/simple/7.png,images/simple/8.png,images/simple/4.png,images/simple/18.png,images/simple/10.png","0","null","","200","347.6050000055693","","","","background","",""
"","null","html-keyboard-response","104","271109","0.0-14.0-0.45","SS1604513300372","","null","","","","","","","","","","","","<img src=images/blank.png width =""500"" height = ""500"" style=""border:5px solid black"">","","",""
"","919.0649999654852","stimulus-presentation","105","272249","0.0-14.0-1.45","SS1604513300372","<img src='images/simple/5.png' width ='500' height = '500' style='border:5px solid black'>","40","all_simple","images/simple/9.png","images/simple/3.png","images/simple/17.png,images/simple/5.png,images/simple/7.png,images/simple/8.png,images/simple/4.png,images/simple/18.png,images/simple/10.png","0","null","","200","1119.0649999654852","","","","deviant","",""
"","null","html-keyboard-response","106","273203","0.0-14.0-0.46","SS1604513300372","","null","","","","","","","","","","","","<img src=images/blank.png width =""500"" height = ""500"" style=""border:5px solid black"">","","",""
"","207.2249999619089","stimulus-presentation","107","273661","0.0-14.0-1.46","SS1604513300372","<img src='images/simple/3.png' width ='500' height = '500' style='border:5px solid black'>","40","all_simple","images/simple/9.png","images/simple/3.png","images/simple/17.png,images/simple/5.png,images/simple/7.png,images/simple/8.png,images/simple/4.png,images/simple/18.png,images/simple/10.png","0","null","","200","407.2249999619089","","","","background","",""
"","null","html-keyboard-response","108","274603","0.0-14.0-0.47","SS1604513300372","","null","","","","","","","","","","","","<img src=images/blank.png width =""500"" height = ""500"" style=""border:5px solid black"">","","",""
"","234.47000002488494","stimulus-presentation","109","275086","0.0-14.0-1.47","SS1604513300372","<img src='images/simple/9.png' width ='500' height = '500' style='border:5px solid black'>","40","all_simple","images/simple/9.png","images/simple/3.png","images/simple/17.png,images/simple/5.png,images/simple/7.png,images/simple/8.png,images/simple/4.png,images/simple/18.png,images/simple/10.png","0","null","","200","434.47000002488494","","","","target","",""
"","null","html-keyboard-response","110","276185","0.0-14.0-0.48","SS1604513300372","","null","","","","","","","","","","","","<img src=images/blank.png width =""500"" height = ""500"" style=""border:5px solid black"">","","",""
"","166.86000005574897","stimulus-presentation","111","276605","0.0-14.0-1.48","SS1604513300372","<img src='images/simple/3.png' width ='500' height = '500' style='border:5px solid black'>","40","all_simple","images/simple/9.png","images/simple/3.png","images/simple/17.png,images/simple/5.png,images/simple/7.png,images/simple/8.png,images/simple/4.png,images/simple/18.png,images/simple/10.png","0","null","","200","366.86000005574897","","","","background","",""
"[{""page_index"":0,""viewing_time"":104682}]","104683","task-instructions","112","381315","0.0-15.0","SS1604513300372","","","","","","","","","","","","","","","","",""
"[{""page_index"":0,""viewing_time"":5772.784999979194},{""page_index"":1,""viewing_time"":7454.084999975748},{""page_index"":2,""viewing_time"":1865.830000024289}]","15093.354999960866","instructions","113","396423","0.0-16.0","SS1604513300372","","","","","","","","","","","","","","","","",""
"","null","html-keyboard-response","114","397654","0.0-17.0-0.0","SS1604513300372","","null","","","","","","","","","","","","<img src=images/blank.png width =""500"" height = ""500"" style=""border:5px solid black"">","","",""
"","1046.1449999711476","stimulus-presentation","115","398943","0.0-17.0-1.0","SS1604513300372","<img src='images/complex/13.png' width ='500' height = '500' style='border:5px solid black'>","40","all_complex","images/complex/17.png","images/complex/15.png","images/complex/8.png,images/complex/9.png,images/complex/13.png,images/complex/18.png,images/complex/1.png,images/complex/3.png,images/complex/4.png","1","null","","200","1246.1449999711476","","","","deviant","",""
"","null","html-keyboard-response","116","399982","0.0-17.0-0.1","SS1604513300372","","null","","","","","","","","","","","","<img src=images/blank.png width =""500"" height = ""500"" style=""border:5px solid black"">","","",""
"","379.45499998750165","stimulus-presentation","117","400596","0.0-17.0-1.1","SS1604513300372","<img src='images/complex/15.png' width ='500' height = '500' style='border:5px solid black'>","40","all_complex","images/complex/17.png","images/complex/15.png","images/complex/8.png,images/complex/9.png,images/complex/13.png,images/complex/18.png,images/complex/1.png,images/complex/3.png,images/complex/4.png","1","null","","200","579.4549999875017","","","","background","",""
"","null","html-keyboard-response","118","401879","0.0-17.0-0.2","SS1604513300372","","null","","","","","","","","","","","","<img src=images/blank.png width =""500"" height = ""500"" style=""border:5px solid black"">","","",""
"","250.02500001573935","stimulus-presentation","119","402363","0.0-17.0-1.2","SS1604513300372","<img src='images/complex/15.png' width ='500' height = '500' style='border:5px solid black'>","40","all_complex","images/complex/17.png","images/complex/15.png","images/complex/8.png,images/complex/9.png,images/complex/13.png,images/complex/18.png,images/complex/1.png,images/complex/3.png,images/complex/4.png","1","null","","200","450.02500001573935","","","","background","",""
"","null","html-keyboard-response","120","403661","0.0-17.0-0.3","SS1604513300372","","null","","","","","","","","","","","","<img src=images/blank.png width =""500"" height = ""500"" style=""border:5px solid black"">","","",""
"","1888.3849999983795","stimulus-presentation","121","405803","0.0-17.0-1.3","SS1604513300372","<img src='images/complex/17.png' width ='500' height = '500' style='border:5px solid black'>","40","all_complex","images/complex/17.png","images/complex/15.png","images/complex/8.png,images/complex/9.png,images/complex/13.png,images/complex/18.png,images/complex/1.png,images/complex/3.png,images/complex/4.png","1","null","","200","2088.3849999983795","yes","371.91500002518296","","target","",""
"","null","html-keyboard-response","122","407111","0.0-17.0-0.4","SS1604513300372","","null","","","","","","","","","","","","<img src=images/blank.png width =""500"" height = ""500"" style=""border:5px solid black"">","","",""
"","379.17000002926216","stimulus-presentation","123","407711","0.0-17.0-1.4","SS1604513300372","<img src='images/complex/15.png' width ='500' height = '500' style='border:5px solid black'>","40","all_complex","images/complex/17.png","images/complex/15.png","images/complex/8.png,images/complex/9.png,images/complex/13.png,images/complex/18.png,images/complex/1.png,images/complex/3.png,images/complex/4.png","1","null","","200","579.1700000292622","","","","background","",""
"","null","html-keyboard-response","124","408950","0.0-17.0-0.5","SS1604513300372","","null","","","","","","","","","","","","<img src=images/blank.png width =""500"" height = ""500"" style=""border:5px solid black"">","","",""
"","282.5050000101328","stimulus-presentation","125","409454","0.0-17.0-1.5","SS1604513300372","<img src='images/complex/15.png' width ='500' height = '500' style='border:5px solid black'>","40","all_complex","images/complex/17.png","images/complex/15.png","images/complex/8.png,images/complex/9.png,images/complex/13.png,images/complex/18.png,images/complex/1.png,images/complex/3.png,images/complex/4.png","1","null","","200","482.5050000101328","","","","background","",""
"","null","html-keyboard-response","126","410683","0.0-17.0-0.6","SS1604513300372","","null","","","","","","","","","","","","<img src=images/blank.png width =""500"" height = ""500"" style=""border:5px solid black"">","","",""
"","256.80000003194436","stimulus-presentation","127","411188","0.0-17.0-1.6","SS1604513300372","<img src='images/complex/15.png' width ='500' height = '500' style='border:5px solid black'>","40","all_complex","images/complex/17.png","images/complex/15.png","images/complex/8.png,images/complex/9.png,images/complex/13.png,images/complex/18.png,images/complex/1.png,images/complex/3.png,images/complex/4.png","1","null","","200","456.80000003194436","","","","background","",""
"","null","html-keyboard-response","128","412208","0.0-17.0-0.7","SS1604513300372","","null","","","","","","","","","","","","<img src=images/blank.png width =""500"" height = ""500"" style=""border:5px solid black"">","","",""
"","744.0399999613874","stimulus-presentation","129","413184","0.0-17.0-1.7","SS1604513300372","<img src='images/complex/4.png' width ='500' height = '500' style='border:5px solid black'>","40","all_complex","images/complex/17.png","images/complex/15.png","images/complex/8.png,images/complex/9.png,images/complex/13.png,images/complex/18.png,images/complex/1.png,images/complex/3.png,images/complex/4.png","1","null","","200","944.0399999613874","","","","deviant","",""
"","null","html-keyboard-response","130","414042","0.0-17.0-0.8","SS1604513300372","","null","","","","","","","","","","","","<img src=images/blank.png width =""500"" height = ""500"" style=""border:5px solid black"">","","",""
"","318.06000001961365","stimulus-presentation","131","414599","0.0-17.0-1.8","SS1604513300372","<img src='images/complex/15.png' width ='500' height = '500' style='border:5px solid black'>","40","all_complex","images/complex/17.png","images/complex/15.png","images/complex/8.png,images/complex/9.png,images/complex/13.png,images/complex/18.png,images/complex/1.png,images/complex/3.png,images/complex/4.png","1","null","","200","518.0600000196137","","","","background","",""
"","null","html-keyboard-response","132","415913","0.0-17.0-0.9","SS1604513300372","","null","","","","","","","","","","","","<img src=images/blank.png width =""500"" height = ""500"" style=""border:5px solid black"">","","",""
"","268.49499996751547","stimulus-presentation","133","416415","0.0-17.0-1.9","SS1604513300372","<img src='images/complex/15.png' width ='500' height = '500' style='border:5px solid black'>","40","all_complex","images/complex/17.png","images/complex/15.png","images/complex/8.png,images/complex/9.png,images/complex/13.png,images/complex/18.png,images/complex/1.png,images/complex/3.png,images/complex/4.png","1","null","","200","468.49499996751547","","","","background","",""
"","null","html-keyboard-response","134","417503","0.0-17.0-0.10","SS1604513300372","","null","","","","","","","","","","","","<img src=images/blank.png width =""500"" height = ""500"" style=""border:5px solid black"">","","",""
"","250.11999998241663","stimulus-presentation","135","418004","0.0-17.0-1.10","SS1604513300372","<img src='images/complex/15.png' width ='500' height = '500' style='border:5px solid black'>","40","all_complex","images/complex/17.png","images/complex/15.png","images/complex/8.png,images/complex/9.png,images/complex/13.png,images/complex/18.png,images/complex/1.png,images/complex/3.png,images/complex/4.png","1","null","","200","450.11999998241663","","","","background","",""
"","null","html-keyboard-response","136","419034","0.0-17.0-0.11","SS1604513300372","","null","","","","","","","","","","","","<img src=images/blank.png width =""500"" height = ""500"" style=""border:5px solid black"">","","",""
"","257.7049999963492","stimulus-presentation","137","419541","0.0-17.0-1.11","SS1604513300372","<img src='images/complex/15.png' width ='500' height = '500' style='border:5px solid black'>","40","all_complex","images/complex/17.png","images/complex/15.png","images/complex/8.png,images/complex/9.png,images/complex/13.png,images/complex/18.png,images/complex/1.png,images/complex/3.png,images/complex/4.png","1","null","","200","457.7049999963492","","","","background","",""
"","null","html-keyboard-response","138","420860","0.0-17.0-0.12","SS1604513300372","","null","","","","","","","","","","","","<img src=images/blank.png width =""500"" height = ""500"" style=""border:5px solid black"">","","",""
"","243.69999999180436","stimulus-presentation","139","421355","0.0-17.0-1.12","SS1604513300372","<img src='images/complex/15.png' width ='500' height = '500' style='border:5px solid black'>","40","all_complex","images/complex/17.png","images/complex/15.png","images/complex/8.png,images/complex/9.png,images/complex/13.png,images/complex/18.png,images/complex/1.png,images/complex/3.png,images/complex/4.png","1","null","","200","443.69999999180436","","","","background","",""
"","null","html-keyboard-response","140","422511","0.0-17.0-0.13","SS1604513300372","","null","","","","","","","","","","","","<img src=images/blank.png width =""500"" height = ""500"" style=""border:5px solid black"">","","",""
"","263.9399999752641","stimulus-presentation","141","423028","0.0-17.0-1.13","SS1604513300372","<img src='images/complex/15.png' width ='500' height = '500' style='border:5px solid black'>","40","all_complex","images/complex/17.png","images/complex/15.png","images/complex/8.png,images/complex/9.png,images/complex/13.png,images/complex/18.png,images/complex/1.png,images/complex/3.png,images/complex/4.png","1","null","","200","463.9399999752641","","","","background","",""
"","null","html-keyboard-response","142","424332","0.0-17.0-0.14","SS1604513300372","","null","","","","","","","","","","","","<img src=images/blank.png width =""500"" height = ""500"" style=""border:5px solid black"">","","",""
"","222.26000000955537","stimulus-presentation","143","424803","0.0-17.0-1.14","SS1604513300372","<img src='images/complex/15.png' width ='500' height = '500' style='border:5px solid black'>","40","all_complex","images/complex/17.png","images/complex/15.png","images/complex/8.png,images/complex/9.png,images/complex/13.png,images/complex/18.png,images/complex/1.png,images/complex/3.png,images/complex/4.png","1","null","","200","422.26000000955537","","","","background","",""
"","null","html-keyboard-response","144","425790","0.0-17.0-0.15","SS1604513300372","","null","","","","","","","","","","","","<img src=images/blank.png width =""500"" height = ""500"" style=""border:5px solid black"">","","",""
"","260.82000002497807","stimulus-presentation","145","426301","0.0-17.0-1.15","SS1604513300372","<img src='images/complex/15.png' width ='500' height = '500' style='border:5px solid black'>","40","all_complex","images/complex/17.png","images/complex/15.png","images/complex/8.png,images/complex/9.png,images/complex/13.png,images/complex/18.png,images/complex/1.png,images/complex/3.png,images/complex/4.png","1","null","","200","460.82000002497807","","","","background","",""
"","null","html-keyboard-response","146","427508","0.0-17.0-0.16","SS1604513300372","","null","","","","","","","","","","","","<img src=images/blank.png width =""500"" height = ""500"" style=""border:5px solid black"">","","",""
"","193.29499994637445","stimulus-presentation","147","427923","0.0-17.0-1.16","SS1604513300372","<img src='images/complex/15.png' width ='500' height = '500' style='border:5px solid black'>","40","all_complex","images/complex/17.png","images/complex/15.png","images/complex/8.png,images/complex/9.png,images/complex/13.png,images/complex/18.png,images/complex/1.png,images/complex/3.png,images/complex/4.png","1","null","","200","393.29499994637445","","","","background","",""
"","null","html-keyboard-response","148","429206","0.0-17.0-0.17","SS1604513300372","","null","","","","","","","","","","","","<img src=images/blank.png width =""500"" height = ""500"" style=""border:5px solid black"">","","",""
"","648.9799999981187","stimulus-presentation","149","430091","0.0-17.0-1.17","SS1604513300372","<img src='images/complex/9.png' width ='500' height = '500' style='border:5px solid black'>","40","all_complex","images/complex/17.png","images/complex/15.png","images/complex/8.png,images/complex/9.png,images/complex/13.png,images/complex/18.png,images/complex/1.png,images/complex/3.png,images/complex/4.png","1","null","","200","848.9799999981187","","","","deviant","",""
"","null","html-keyboard-response","150","431080","0.0-17.0-0.18","SS1604513300372","","null","","","","","","","","","","","","<img src=images/blank.png width =""500"" height = ""500"" style=""border:5px solid black"">","","",""
"","1732.8449999913573","stimulus-presentation","151","433064","0.0-17.0-1.18","SS1604513300372","<img src='images/complex/17.png' width ='500' height = '500' style='border:5px solid black'>","40","all_complex","images/complex/17.png","images/complex/15.png","images/complex/8.png,images/complex/9.png,images/complex/13.png,images/complex/18.png,images/complex/1.png,images/complex/3.png,images/complex/4.png","1","null","","200","1932.8449999913573","yes","414.4549999618903","","target","",""
"","null","html-keyboard-response","152","433989","0.0-17.0-0.19","SS1604513300372","","null","","","","","","","","","","","","<img src=images/blank.png width =""500"" height = ""500"" style=""border:5px solid black"">","","",""
"","319.5549999945797","stimulus-presentation","153","434565","0.0-17.0-1.19","SS1604513300372","<img src='images/complex/15.png' width ='500' height = '500' style='border:5px solid black'>","40","all_complex","images/complex/17.png","images/complex/15.png","images/complex/8.png,images/complex/9.png,images/complex/13.png,images/complex/18.png,images/complex/1.png,images/complex/3.png,images/complex/4.png","1","null","","200","519.5549999945797","","","","background","",""
"","null","html-keyboard-response","154","435813","0.0-17.0-0.20","SS1604513300372","","null","","","","","","","","","","","","<img src=images/blank.png width =""500"" height = ""500"" style=""border:5px solid black"">","","",""
"","193.97999998182058","stimulus-presentation","155","436240","0.0-17.0-1.20","SS1604513300372","<img src='images/complex/3.png' width ='500' height = '500' style='border:5px solid black'>","40","all_complex","images/complex/17.png","images/complex/15.png","images/complex/8.png,images/complex/9.png,images/complex/13.png,images/complex/18.png,images/complex/1.png,images/complex/3.png,images/complex/4.png","1","null","","200","393.9799999818206","","","","deviant","",""
"","null","html-keyboard-response","156","437191","0.0-17.0-0.21","SS1604513300372","","null","","","","","","","","","","","","<img src=images/blank.png width =""500"" height = ""500"" style=""border:5px solid black"">","","",""
"","165.88000004412606","stimulus-presentation","157","437625","0.0-17.0-1.21","SS1604513300372","<img src='images/complex/15.png' width ='500' height = '500' style='border:5px solid black'>","40","all_complex","images/complex/17.png","images/complex/15.png","images/complex/8.png,images/complex/9.png,images/complex/13.png,images/complex/18.png,images/complex/1.png,images/complex/3.png,images/complex/4.png","1","null","","200","365.88000004412606","","","","background","",""
"","null","html-keyboard-response","158","438708","0.0-17.0-0.22","SS1604513300372","","null","","","","","","","","","","","","<img src=images/blank.png width =""500"" height = ""500"" style=""border:5px solid black"">","","",""
"","2637.715000018943","stimulus-presentation","159","441584","0.0-17.0-1.22","SS1604513300372","<img src='images/complex/17.png' width ='500' height = '500' style='border:5px solid black'>","40","all_complex","images/complex/17.png","images/complex/15.png","images/complex/8.png,images/complex/9.png,images/complex/13.png,images/complex/18.png,images/complex/1.png,images/complex/3.png,images/complex/4.png","1","null","","200","2837.715000018943","yes","416.36000003200024","","target","",""
"","null","html-keyboard-response","160","442718","0.0-17.0-0.23","SS1604513300372","","null","","","","","","","","","","","","<img src=images/blank.png width =""500"" height = ""500"" style=""border:5px solid black"">","","",""
"","351.7050000373274","stimulus-presentation","161","443341","0.0-17.0-1.23","SS1604513300372","<img src='images/complex/8.png' width ='500' height = '500' style='border:5px solid black'>","40","all_complex","images/complex/17.png","images/complex/15.png","images/complex/8.png,images/complex/9.png,images/complex/13.png,images/complex/18.png,images/complex/1.png,images/complex/3.png,images/complex/4.png","1","null","","200","551.7050000373274","","","","deviant","",""
"","null","html-keyboard-response","162","444236","0.0-17.0-0.24","SS1604513300372","","null","","","","","","","","","","","","<img src=images/blank.png width =""500"" height = ""500"" style=""border:5px solid black"">","","",""
"","337.1599999954924","stimulus-presentation","163","444846","0.0-17.0-1.24","SS1604513300372","<img src='images/complex/15.png' width ='500' height = '500' style='border:5px solid black'>","40","all_complex","images/complex/17.png","images/complex/15.png","images/complex/8.png,images/complex/9.png,images/complex/13.png,images/complex/18.png,images/complex/1.png,images/complex/3.png,images/complex/4.png","1","null","","200","537.1599999954924","","","","background","",""
"","null","html-keyboard-response","164","445913","0.0-17.0-0.25","SS1604513300372","","null","","","","","","","","","","","","<img src=images/blank.png width =""500"" height = ""500"" style=""border:5px solid black"">","","",""
"","1847.1999999601394","stimulus-presentation","165","448025","0.0-17.0-1.25","SS1604513300372","<img src='images/complex/17.png' width ='500' height = '500' style='border:5px solid black'>","40","all_complex","images/complex/17.png","images/complex/15.png","images/complex/8.png,images/complex/9.png,images/complex/13.png,images/complex/18.png,images/complex/1.png,images/complex/3.png,images/complex/4.png","1","null","","200","2047.1999999601394","yes","359.01999997440726","","target","",""
"","null","html-keyboard-response","166","448889","0.0-17.0-0.26","SS1604513300372","","null","","","","","","","","","","","","<img src=images/blank.png width =""500"" height = ""500"" style=""border:5px solid black"">","","",""
"","289.3400000175461","stimulus-presentation","167","449447","0.0-17.0-1.26","SS1604513300372","<img src='images/complex/15.png' width ='500' height = '500' style='border:5px solid black'>","40","all_complex","images/complex/17.png","images/complex/15.png","images/complex/8.png,images/complex/9.png,images/complex/13.png,images/complex/18.png,images/complex/1.png,images/complex/3.png,images/complex/4.png","1","null","","200","489.3400000175461","","","","background","",""
"","null","html-keyboard-response","168","450637","0.0-17.0-0.27","SS1604513300372","","null","","","","","","","","","","","","<img src=images/blank.png width =""500"" height = ""500"" style=""border:5px solid black"">","","",""
"","179.8549999948591","stimulus-presentation","169","451086","0.0-17.0-1.27","SS1604513300372","<img src='images/complex/15.png' width ='500' height = '500' style='border:5px solid black'>","40","all_complex","images/complex/17.png","images/complex/15.png","images/complex/8.png,images/complex/9.png,images/complex/13.png,images/complex/18.png,images/complex/1.png,images/complex/3.png,images/complex/4.png","1","null","","200","379.8549999948591","","","","background","",""
"","null","html-keyboard-response","170","452047","0.0-17.0-0.28","SS1604513300372","","null","","","","","","","","","","","","<img src=images/blank.png width =""500"" height = ""500"" style=""border:5px solid black"">","","",""
"","1373.1150000239722","stimulus-presentation","171","453672","0.0-17.0-1.28","SS1604513300372","<img src='images/complex/17.png' width ='500' height = '500' style='border:5px solid black'>","40","all_complex","images/complex/17.png","images/complex/15.png","images/complex/8.png,images/complex/9.png,images/complex/13.png,images/complex/18.png,images/complex/1.png,images/complex/3.png,images/complex/4.png","1","null","","200","1573.1150000239722","yes","366.58500001067296","","target","",""
"","null","html-keyboard-response","172","454849","0.0-17.0-0.29","SS1604513300372","","null","","","","","","","","","","","","<img src=images/blank.png width =""500"" height = ""500"" style=""border:5px solid black"">","","",""
"","197.5349999847822","stimulus-presentation","173","455282","0.0-17.0-1.29","SS1604513300372","<img src='images/complex/15.png' width ='500' height = '500' style='border:5px solid black'>","40","all_complex","images/complex/17.png","images/complex/15.png","images/complex/8.png,images/complex/9.png,images/complex/13.png,images/complex/18.png,images/complex/1.png,images/complex/3.png,images/complex/4.png","1","null","","200","397.5349999847822","","","","background","",""
"","null","html-keyboard-response","174","456222","0.0-17.0-0.30","SS1604513300372","","null","","","","","","","","","","","","<img src=images/blank.png width =""500"" height = ""500"" style=""border:5px solid black"">","","",""
"","156.09000000404194","stimulus-presentation","175","456631","0.0-17.0-1.30","SS1604513300372","<img src='images/complex/15.png' width ='500' height = '500' style='border:5px solid black'>","40","all_complex","images/complex/17.png","images/complex/15.png","images/complex/8.png,images/complex/9.png,images/complex/13.png,images/complex/18.png,images/complex/1.png,images/complex/3.png,images/complex/4.png","1","null","","200","356.09000000404194","","","","background","",""
"","null","html-keyboard-response","176","457965","0.0-17.0-0.31","SS1604513300372","","null","","","","","","","","","","","","<img src=images/blank.png width =""500"" height = ""500"" style=""border:5px solid black"">","","",""
"","181.32500001229346","stimulus-presentation","177","458387","0.0-17.0-1.31","SS1604513300372","<img src='images/complex/15.png' width ='500' height = '500' style='border:5px solid black'>","40","all_complex","images/complex/17.png","images/complex/15.png","images/complex/8.png,images/complex/9.png,images/complex/13.png,images/complex/18.png,images/complex/1.png,images/complex/3.png,images/complex/4.png","1","null","","200","381.32500001229346","","","","background","",""
"","null","html-keyboard-response","178","459422","0.0-17.0-0.32","SS1604513300372","","null","","","","","","","","","","","","<img src=images/blank.png width =""500"" height = ""500"" style=""border:5px solid black"">","","",""
"","191.08499999856576","stimulus-presentation","179","459864","0.0-17.0-1.32","SS1604513300372","<img src='images/complex/15.png' width ='500' height = '500' style='border:5px solid black'>","40","all_complex","images/complex/17.png","images/complex/15.png","images/complex/8.png,images/complex/9.png,images/complex/13.png,images/complex/18.png,images/complex/1.png,images/complex/3.png,images/complex/4.png","1","null","","200","391.08499999856576","","","","background","",""
"","null","html-keyboard-response","180","461086","0.0-17.0-0.33","SS1604513300372","","null","","","","","","","","","","","","<img src=images/blank.png width =""500"" height = ""500"" style=""border:5px solid black"">","","",""
"","168.07000001426786","stimulus-presentation","181","461502","0.0-17.0-1.33","SS1604513300372","<img src='images/complex/15.png' width ='500' height = '500' style='border:5px solid black'>","40","all_complex","images/complex/17.png","images/complex/15.png","images/complex/8.png,images/complex/9.png,images/complex/13.png,images/complex/18.png,images/complex/1.png,images/complex/3.png,images/complex/4.png","1","null","","200","368.07000001426786","","","","background","",""
"","null","html-keyboard-response","182","462597","0.0-17.0-0.34","SS1604513300372","","null","","","","","","","","","","","","<img src=images/blank.png width =""500"" height = ""500"" style=""border:5px solid black"">","","",""
"","510.5650000041351","stimulus-presentation","183","463329","0.0-17.0-1.34","SS1604513300372","<img src='images/complex/18.png' width ='500' height = '500' style='border:5px solid black'>","40","all_complex","images/complex/17.png","images/complex/15.png","images/complex/8.png,images/complex/9.png,images/complex/13.png,images/complex/18.png,images/complex/1.png,images/complex/3.png,images/complex/4.png","1","null","","200","710.5650000041351","","","","deviant","",""
"","null","html-keyboard-response","184","464211","0.0-17.0-0.35","SS1604513300372","","null","","","","","","","","","","","","<img src=images/blank.png width =""500"" height = ""500"" style=""border:5px solid black"">","","",""
"","237.14500002097338","stimulus-presentation","185","464717","0.0-17.0-1.35","SS1604513300372","<img src='images/complex/15.png' width ='500' height = '500' style='border:5px solid black'>","40","all_complex","images/complex/17.png","images/complex/15.png","images/complex/8.png,images/complex/9.png,images/complex/13.png,images/complex/18.png,images/complex/1.png,images/complex/3.png,images/complex/4.png","1","null","","200","437.1450000209734","","","","background","",""
"","null","html-keyboard-response","186","465843","0.0-17.0-0.36","SS1604513300372","","null","","","","","","","","","","","","<img src=images/blank.png width =""500"" height = ""500"" style=""border:5px solid black"">","","",""
"","1399.349999963306","stimulus-presentation","187","467465","0.0-17.0-1.36","SS1604513300372","<img src='images/complex/17.png' width ='500' height = '500' style='border:5px solid black'>","40","all_complex","images/complex/17.png","images/complex/15.png","images/complex/8.png,images/complex/9.png,images/complex/13.png,images/complex/18.png,images/complex/1.png,images/complex/3.png,images/complex/4.png","1","null","","200","1599.349999963306","yes","376.5249999705702","","target","",""
"","null","html-keyboard-response","188","468414","0.0-17.0-0.37","SS1604513300372","","null","","","","","","","","","","","","<img src=images/blank.png width =""500"" height = ""500"" style=""border:5px solid black"">","","",""
"","186.2599999876693","stimulus-presentation","189","468850","0.0-17.0-1.37","SS1604513300372","<img src='images/complex/15.png' width ='500' height = '500' style='border:5px solid black'>","40","all_complex","images/complex/17.png","images/complex/15.png","images/complex/8.png,images/complex/9.png,images/complex/13.png,images/complex/18.png,images/complex/1.png,images/complex/3.png,images/complex/4.png","1","null","","200","386.2599999876693","","","","background","",""
"","null","html-keyboard-response","190","469979","0.0-17.0-0.38","SS1604513300372","","null","","","","","","","","","","","","<img src=images/blank.png width =""500"" height = ""500"" style=""border:5px solid black"">","","",""
"","211.150000046473","stimulus-presentation","191","470424","0.0-17.0-1.38","SS1604513300372","<img src='images/complex/15.png' width ='500' height = '500' style='border:5px solid black'>","40","all_complex","images/complex/17.png","images/complex/15.png","images/complex/8.png,images/complex/9.png,images/complex/13.png,images/complex/18.png,images/complex/1.png,images/complex/3.png,images/complex/4.png","1","null","","200","411.150000046473","","","","background","",""
"","null","html-keyboard-response","192","471758","0.0-17.0-0.39","SS1604513300372","","null","","","","","","","","","","","","<img src=images/blank.png width =""500"" height = ""500"" style=""border:5px solid black"">","","",""
"","1108.505000011064","stimulus-presentation","193","473134","0.0-17.0-1.39","SS1604513300372","<img src='images/complex/17.png' width ='500' height = '500' style='border:5px solid black'>","40","all_complex","images/complex/17.png","images/complex/15.png","images/complex/8.png,images/complex/9.png,images/complex/13.png,images/complex/18.png,images/complex/1.png,images/complex/3.png,images/complex/4.png","1","null","","200","1308.505000011064","yes","279.29500001482666","","target","",""
"","null","html-keyboard-response","194","474127","0.0-17.0-0.40","SS1604513300372","","null","","","","","","","","","","","","<img src=images/blank.png width =""500"" height = ""500"" style=""border:5px solid black"">","","",""
"","667.8749999846332","stimulus-presentation","195","475017","0.0-17.0-1.40","SS1604513300372","<img src='images/complex/15.png' width ='500' height = '500' style='border:5px solid black'>","40","all_complex","images/complex/17.png","images/complex/15.png","images/complex/8.png,images/complex/9.png,images/complex/13.png,images/complex/18.png,images/complex/1.png,images/complex/3.png,images/complex/4.png","1","null","","200","867.8749999846332","","","","background","",""
"","null","html-keyboard-response","196","475933","0.0-17.0-0.41","SS1604513300372","","null","","","","","","","","","","","","<img src=images/blank.png width =""500"" height = ""500"" style=""border:5px solid black"">","","",""
"","191.17000000551343","stimulus-presentation","197","476390","0.0-17.0-1.41","SS1604513300372","<img src='images/complex/15.png' width ='500' height = '500' style='border:5px solid black'>","40","all_complex","images/complex/17.png","images/complex/15.png","images/complex/8.png,images/complex/9.png,images/complex/13.png,images/complex/18.png,images/complex/1.png,images/complex/3.png,images/complex/4.png","1","null","","200","391.17000000551343","","","","background","",""
"","null","html-keyboard-response","198","477409","0.0-17.0-0.42","SS1604513300372","","null","","","","","","","","","","","","<img src=images/blank.png width =""500"" height = ""500"" style=""border:5px solid black"">","","",""
"","172.05999995348975","stimulus-presentation","199","477830","0.0-17.0-1.42","SS1604513300372","<img src='images/complex/15.png' width ='500' height = '500' style='border:5px solid black'>","40","all_complex","images/complex/17.png","images/complex/15.png","images/complex/8.png,images/complex/9.png,images/complex/13.png,images/complex/18.png,images/complex/1.png,images/complex/3.png,images/complex/4.png","1","null","","200","372.05999995348975","","","","background","",""
"","null","html-keyboard-response","200","478703","0.0-17.0-0.43","SS1604513300372","","null","","","","","","","","","","","","<img src=images/blank.png width =""500"" height = ""500"" style=""border:5px solid black"">","","",""
"","325.78499999362975","stimulus-presentation","201","479252","0.0-17.0-1.43","SS1604513300372","<img src='images/complex/1.png' width ='500' height = '500' style='border:5px solid black'>","40","all_complex","images/complex/17.png","images/complex/15.png","images/complex/8.png,images/complex/9.png,images/complex/13.png,images/complex/18.png,images/complex/1.png,images/complex/3.png,images/complex/4.png","1","null","","200","525.7849999936298","","","","deviant","",""
"","null","html-keyboard-response","202","480544","0.0-17.0-0.44","SS1604513300372","","null","","","","","","","","","","","","<img src=images/blank.png width =""500"" height = ""500"" style=""border:5px solid black"">","","",""
"","202.12499995250255","stimulus-presentation","203","480981","0.0-17.0-1.44","SS1604513300372","<img src='images/complex/15.png' width ='500' height = '500' style='border:5px solid black'>","40","all_complex","images/complex/17.png","images/complex/15.png","images/complex/8.png,images/complex/9.png,images/complex/13.png,images/complex/18.png,images/complex/1.png,images/complex/3.png,images/complex/4.png","1","null","","200","402.12499995250255","","","","background","",""
"","null","html-keyboard-response","204","482042","0.0-17.0-0.45","SS1604513300372","","null","","","","","","","","","","","","<img src=images/blank.png width =""500"" height = ""500"" style=""border:5px solid black"">","","",""
"","252.41499999538064","stimulus-presentation","205","482527","0.0-17.0-1.45","SS1604513300372","<img src='images/complex/15.png' width ='500' height = '500' style='border:5px solid black'>","40","all_complex","images/complex/17.png","images/complex/15.png","images/complex/8.png,images/complex/9.png,images/complex/13.png,images/complex/18.png,images/complex/1.png,images/complex/3.png,images/complex/4.png","1","null","","200","452.41499999538064","","","","background","",""
"","null","html-keyboard-response","206","483871","0.0-17.0-0.46","SS1604513300372","","null","","","","","","","","","","","","<img src=images/blank.png width =""500"" height = ""500"" style=""border:5px solid black"">","","",""
"","250.81499997759238","stimulus-presentation","207","484375","0.0-17.0-1.46","SS1604513300372","<img src='images/complex/15.png' width ='500' height = '500' style='border:5px solid black'>","40","all_complex","images/complex/17.png","images/complex/15.png","images/complex/8.png,images/complex/9.png,images/complex/13.png,images/complex/18.png,images/complex/1.png,images/complex/3.png,images/complex/4.png","1","null","","200","450.8149999775924","","","","background","",""
"","null","html-keyboard-response","208","485604","0.0-17.0-0.47","SS1604513300372","","null","","","","","","","","","","","","<img src=images/blank.png width =""500"" height = ""500"" style=""border:5px solid black"">","","",""
"","273.8099999842234","stimulus-presentation","209","486128","0.0-17.0-1.47","SS1604513300372","<img src='images/complex/15.png' width ='500' height = '500' style='border:5px solid black'>","40","all_complex","images/complex/17.png","images/complex/15.png","images/complex/8.png,images/complex/9.png,images/complex/13.png,images/complex/18.png,images/complex/1.png,images/complex/3.png,images/complex/4.png","1","null","","200","473.8099999842234","","","","background","",""
"","null","html-keyboard-response","210","487421","0.0-17.0-0.48","SS1604513300372","","null","","","","","","","","","","","","<img src=images/blank.png width =""500"" height = ""500"" style=""border:5px solid black"">","","",""
"","254.4249999918975","stimulus-presentation","211","487929","0.0-17.0-1.48","SS1604513300372","<img src='images/complex/15.png' width ='500' height = '500' style='border:5px solid black'>","40","all_complex","images/complex/17.png","images/complex/15.png","images/complex/8.png,images/complex/9.png,images/complex/13.png,images/complex/18.png,images/complex/1.png,images/complex/3.png,images/complex/4.png","1","null","","200","454.4249999918975","","","","background","",""
"[{""page_index"":0,""viewing_time"":2664}]","2665","task-instructions","212","490632","0.0-18.0","SS1604513300372","","","","","","","","","","","","","","","","",""
"[{""page_index"":0,""viewing_time"":1318.8000000081956},{""page_index"":1,""viewing_time"":4165.764999983367},{""page_index"":2,""viewing_time"":2036.5899999742396}]","7521.399999968708","instructions","213","498188","0.0-19.0","SS1604513300372","","","","","","","","","","","","","","","","",""
"","null","html-keyboard-response","214","499101","0.0-20.0-0.0","SS1604513300372","","null","","","","","","","","","","","","<img src=images/blank.png width =""500"" height = ""500"" style=""border:5px solid black"">","","",""
"","656.9649999728426","stimulus-presentation","215","499988","0.0-20.0-1.0","SS1604513300372","<img src='images/simple/13.png' width ='500' height = '500' style='border:5px solid black'>","40","mixed_complex_deviant","images/simple/2.png","images/simple/13.png","images/complex/12.png,images/complex/16.png,images/complex/14.png,images/complex/6.png,images/complex/11.png,images/complex/7.png,images/complex/2.png","2","null","","200","856.9649999728426","","","","background","",""
"","null","html-keyboard-response","216","501221","0.0-20.0-0.1","SS1604513300372","","null","","","","","","","","","","","","<img src=images/blank.png width =""500"" height = ""500"" style=""border:5px solid black"">","","",""
"","195.85999997798353","stimulus-presentation","217","501660","0.0-20.0-1.1","SS1604513300372","<img src='images/simple/13.png' width ='500' height = '500' style='border:5px solid black'>","40","mixed_complex_deviant","images/simple/2.png","images/simple/13.png","images/complex/12.png,images/complex/16.png,images/complex/14.png,images/complex/6.png,images/complex/11.png,images/complex/7.png,images/complex/2.png","2","null","","200","395.85999997798353","","","","background","",""
"","null","html-keyboard-response","218","502525","0.0-20.0-0.2","SS1604513300372","","null","","","","","","","","","","","","<img src=images/blank.png width =""500"" height = ""500"" style=""border:5px solid black"">","","",""
"","258.07000003987923","stimulus-presentation","219","503042","0.0-20.0-1.2","SS1604513300372","<img src='images/simple/13.png' width ='500' height = '500' style='border:5px solid black'>","40","mixed_complex_deviant","images/simple/2.png","images/simple/13.png","images/complex/12.png,images/complex/16.png,images/complex/14.png,images/complex/6.png,images/complex/11.png,images/complex/7.png,images/complex/2.png","2","null","","200","458.07000003987923","","","","background","",""
"","null","html-keyboard-response","220","504004","0.0-20.0-0.3","SS1604513300372","","null","","","","","","","","","","","","<img src=images/blank.png width =""500"" height = ""500"" style=""border:5px solid black"">","","",""
"","1282.2499999892898","stimulus-presentation","221","505568","0.0-20.0-1.3","SS1604513300372","<img src='images/simple/2.png' width ='500' height = '500' style='border:5px solid black'>","40","mixed_complex_deviant","images/simple/2.png","images/simple/13.png","images/complex/12.png,images/complex/16.png,images/complex/14.png,images/complex/6.png,images/complex/11.png,images/complex/7.png,images/complex/2.png","2","null","","200","1482.2499999892898","yes","316.8399999849498","","target","",""
"","null","html-keyboard-response","222","506502","0.0-20.0-0.4","SS1604513300372","","null","","","","","","","","","","","","<img src=images/blank.png width =""500"" height = ""500"" style=""border:5px solid black"">","","",""
"","211.9599999859929","stimulus-presentation","223","506958","0.0-20.0-1.4","SS1604513300372","<img src='images/simple/13.png' width ='500' height = '500' style='border:5px solid black'>","40","mixed_complex_deviant","images/simple/2.png","images/simple/13.png","images/complex/12.png,images/complex/16.png,images/complex/14.png,images/complex/6.png,images/complex/11.png,images/complex/7.png,images/complex/2.png","2","null","","200","411.9599999859929","","","","background","",""
"","null","html-keyboard-response","224","507801","0.0-20.0-0.5","SS1604513300372","","null","","","","","","","","","","","","<img src=images/blank.png width =""500"" height = ""500"" style=""border:5px solid black"">","","",""
"","2158.3499999833293","stimulus-presentation","225","510224","0.0-20.0-1.5","SS1604513300372","<img src='images/simple/2.png' width ='500' height = '500' style='border:5px solid black'>","40","mixed_complex_deviant","images/simple/2.png","images/simple/13.png","images/complex/12.png,images/complex/16.png,images/complex/14.png,images/complex/6.png,images/complex/11.png,images/complex/7.png,images/complex/2.png","2","null","","200","2358.3499999833293","yes","262.89499999256805","","target","",""
"","null","html-keyboard-response","226","511423","0.0-20.0-0.6","SS1604513300372","","null","","","","","","","","","","","","<img src=images/blank.png width =""500"" height = ""500"" style=""border:5px solid black"">","","",""
"","226.12999996636063","stimulus-presentation","227","511917","0.0-20.0-1.6","SS1604513300372","<img src='images/simple/13.png' width ='500' height = '500' style='border:5px solid black'>","40","mixed_complex_deviant","images/simple/2.png","images/simple/13.png","images/complex/12.png,images/complex/16.png,images/complex/14.png,images/complex/6.png,images/complex/11.png,images/complex/7.png,images/complex/2.png","2","null","","200","426.12999996636063","","","","background","",""
"","null","html-keyboard-response","228","512947","0.0-20.0-0.7","SS1604513300372","","null","","","","","","","","","","","","<img src=images/blank.png width =""500"" height = ""500"" style=""border:5px solid black"">","","",""
"","262.5199999893084","stimulus-presentation","229","513506","0.0-20.0-1.7","SS1604513300372","<img src='images/complex/2.png' width ='500' height = '500' style='border:5px solid black'>","40","mixed_complex_deviant","images/simple/2.png","images/simple/13.png","images/complex/12.png,images/complex/16.png,images/complex/14.png,images/complex/6.png,images/complex/11.png,images/complex/7.png,images/complex/2.png","2","null","","200","462.5199999893084","","","","deviant","",""
"","null","html-keyboard-response","230","514458","0.0-20.0-0.8","SS1604513300372","","null","","","","","","","","","","","","<img src=images/blank.png width =""500"" height = ""500"" style=""border:5px solid black"">","","",""
"","246.54000002192333","stimulus-presentation","231","514945","0.0-20.0-1.8","SS1604513300372","<img src='images/simple/13.png' width ='500' height = '500' style='border:5px solid black'>","40","mixed_complex_deviant","images/simple/2.png","images/simple/13.png","images/complex/12.png,images/complex/16.png,images/complex/14.png,images/complex/6.png,images/complex/11.png,images/complex/7.png,images/complex/2.png","2","null","","200","446.54000002192333","","","","background","",""
"","null","html-keyboard-response","232","516278","0.0-20.0-0.9","SS1604513300372","","null","","","","","","","","","","","","<img src=images/blank.png width =""500"" height = ""500"" style=""border:5px solid black"">","","",""
"","185.37500000093132","stimulus-presentation","233","516744","0.0-20.0-1.9","SS1604513300372","<img src='images/simple/13.png' width ='500' height = '500' style='border:5px solid black'>","40","mixed_complex_deviant","images/simple/2.png","images/simple/13.png","images/complex/12.png,images/complex/16.png,images/complex/14.png,images/complex/6.png,images/complex/11.png,images/complex/7.png,images/complex/2.png","2","null","","200","385.3750000009313","","","","background","",""
"","null","html-keyboard-response","234","517612","0.0-20.0-0.10","SS1604513300372","","null","","","","","","","","","","","","<img src=images/blank.png width =""500"" height = ""500"" style=""border:5px solid black"">","","",""
"","217.08500001113862","stimulus-presentation","235","518063","0.0-20.0-1.10","SS1604513300372","<img src='images/simple/13.png' width ='500' height = '500' style='border:5px solid black'>","40","mixed_complex_deviant","images/simple/2.png","images/simple/13.png","images/complex/12.png,images/complex/16.png,images/complex/14.png,images/complex/6.png,images/complex/11.png,images/complex/7.png,images/complex/2.png","2","null","","200","417.0850000111386","","","","background","",""
"","null","html-keyboard-response","236","519018","0.0-20.0-0.11","SS1604513300372","","null","","","","","","","","","","","","<img src=images/blank.png width =""500"" height = ""500"" style=""border:5px solid black"">","","",""
"","275.4500000155531","stimulus-presentation","237","519546","0.0-20.0-1.11","SS1604513300372","<img src='images/complex/11.png' width ='500' height = '500' style='border:5px solid black'>","40","mixed_complex_deviant","images/simple/2.png","images/simple/13.png","images/complex/12.png,images/complex/16.png,images/complex/14.png,images/complex/6.png,images/complex/11.png,images/complex/7.png,images/complex/2.png","2","null","","200","475.4500000155531","","","","deviant","",""
"","null","html-keyboard-response","238","520526","0.0-20.0-0.12","SS1604513300372","","null","","","","","","","","","","","","<img src=images/blank.png width =""500"" height = ""500"" style=""border:5px solid black"">","","",""
"","235.79499998595566","stimulus-presentation","239","521015","0.0-20.0-1.12","SS1604513300372","<img src='images/simple/13.png' width ='500' height = '500' style='border:5px solid black'>","40","mixed_complex_deviant","images/simple/2.png","images/simple/13.png","images/complex/12.png,images/complex/16.png,images/complex/14.png,images/complex/6.png,images/complex/11.png,images/complex/7.png,images/complex/2.png","2","null","","200","435.79499998595566","","","","background","",""
"","null","html-keyboard-response","240","521903","0.0-20.0-0.13","SS1604513300372","","null","","","","","","","","","","","","<img src=images/blank.png width =""500"" height = ""500"" style=""border:5px solid black"">","","",""
"","234.2950000311248","stimulus-presentation","241","522374","0.0-20.0-1.13","SS1604513300372","<img src='images/simple/13.png' width ='500' height = '500' style='border:5px solid black'>","40","mixed_complex_deviant","images/simple/2.png","images/simple/13.png","images/complex/12.png,images/complex/16.png,images/complex/14.png,images/complex/6.png,images/complex/11.png,images/complex/7.png,images/complex/2.png","2","null","","200","434.2950000311248","","","","background","",""
"","null","html-keyboard-response","242","523377","0.0-20.0-0.14","SS1604513300372","","null","","","","","","","","","","","","<img src=images/blank.png width =""500"" height = ""500"" style=""border:5px solid black"">","","",""
"","544.579999987036","stimulus-presentation","243","524161","0.0-20.0-1.14","SS1604513300372","<img src='images/complex/6.png' width ='500' height = '500' style='border:5px solid black'>","40","mixed_complex_deviant","images/simple/2.png","images/simple/13.png","images/complex/12.png,images/complex/16.png,images/complex/14.png,images/complex/6.png,images/complex/11.png,images/complex/7.png,images/complex/2.png","2","null","","200","744.579999987036","","","","deviant","",""
"","null","html-keyboard-response","244","525379","0.0-20.0-0.15","SS1604513300372","","null","","","","","","","","","","","","<img src=images/blank.png width =""500"" height = ""500"" style=""border:5px solid black"">","","",""
"","232.845000049565","stimulus-presentation","245","525850","0.0-20.0-1.15","SS1604513300372","<img src='images/simple/13.png' width ='500' height = '500' style='border:5px solid black'>","40","mixed_complex_deviant","images/simple/2.png","images/simple/13.png","images/complex/12.png,images/complex/16.png,images/complex/14.png,images/complex/6.png,images/complex/11.png,images/complex/7.png,images/complex/2.png","2","null","","200","432.845000049565","","","","background","",""
"","null","html-keyboard-response","246","526857","0.0-20.0-0.16","SS1604513300372","","null","","","","","","","","","","","","<img src=images/blank.png width =""500"" height = ""500"" style=""border:5px solid black"">","","",""
"","1699.06000001356","stimulus-presentation","247","528839","0.0-20.0-1.16","SS1604513300372","<img src='images/simple/2.png' width ='500' height = '500' style='border:5px solid black'>","40","mixed_complex_deviant","images/simple/2.png","images/simple/13.png","images/complex/12.png,images/complex/16.png,images/complex/14.png,images/complex/6.png,images/complex/11.png,images/complex/7.png,images/complex/2.png","2","null","","200","1899.06000001356","yes","330.9199999785051","","target","",""
"","null","html-keyboard-response","248","530139","0.0-20.0-0.17","SS1604513300372","","null","","","","","","","","","","","","<img src=images/blank.png width =""500"" height = ""500"" style=""border:5px solid black"">","","",""
"","343.72499998426065","stimulus-presentation","249","530729","0.0-20.0-1.17","SS1604513300372","<img src='images/simple/13.png' width ='500' height = '500' style='border:5px solid black'>","40","mixed_complex_deviant","images/simple/2.png","images/simple/13.png","images/complex/12.png,images/complex/16.png,images/complex/14.png,images/complex/6.png,images/complex/11.png,images/complex/7.png,images/complex/2.png","2","null","","200","543.7249999842606","","","","background","",""
"","null","html-keyboard-response","250","531626","0.0-20.0-0.18","SS1604513300372","","null","","","","","","","","","","","","<img src=images/blank.png width =""500"" height = ""500"" style=""border:5px solid black"">","","",""
"","259.45999997202307","stimulus-presentation","251","532153","0.0-20.0-1.18","SS1604513300372","<img src='images/simple/13.png' width ='500' height = '500' style='border:5px solid black'>","40","mixed_complex_deviant","images/simple/2.png","images/simple/13.png","images/complex/12.png,images/complex/16.png,images/complex/14.png,images/complex/6.png,images/complex/11.png,images/complex/7.png,images/complex/2.png","2","null","","200","459.45999997202307","","","","background","",""
"","null","html-keyboard-response","252","533200","0.0-20.0-0.19","SS1604513300372","","null","","","","","","","","","","","","<img src=images/blank.png width =""500"" height = ""500"" style=""border:5px solid black"">","","",""
"","290.79499997897074","stimulus-presentation","253","533768","0.0-20.0-1.19","SS1604513300372","<img src='images/simple/13.png' width ='500' height = '500' style='border:5px solid black'>","40","mixed_complex_deviant","images/simple/2.png","images/simple/13.png","images/complex/12.png,images/complex/16.png,images/complex/14.png,images/complex/6.png,images/complex/11.png,images/complex/7.png,images/complex/2.png","2","null","","200","490.79499997897074","","","","background","",""
"","null","html-keyboard-response","254","534805","0.0-20.0-0.20","SS1604513300372","","null","","","","","","","","","","","","<img src=images/blank.png width =""500"" height = ""500"" style=""border:5px solid black"">","","",""
"","393.83499999530613","stimulus-presentation","255","535456","0.0-20.0-1.20","SS1604513300372","<img src='images/complex/16.png' width ='500' height = '500' style='border:5px solid black'>","40","mixed_complex_deviant","images/simple/2.png","images/simple/13.png","images/complex/12.png,images/complex/16.png,images/complex/14.png,images/complex/6.png,images/complex/11.png,images/complex/7.png,images/complex/2.png","2","null","","200","593.8349999953061","","","","deviant","",""
"","null","html-keyboard-response","256","536712","0.0-20.0-0.21","SS1604513300372","","null","","","","","","","","","","","","<img src=images/blank.png width =""500"" height = ""500"" style=""border:5px solid black"">","","",""
"","336.0349999857135","stimulus-presentation","257","537294","0.0-20.0-1.21","SS1604513300372","<img src='images/simple/13.png' width ='500' height = '500' style='border:5px solid black'>","40","mixed_complex_deviant","images/simple/2.png","images/simple/13.png","images/complex/12.png,images/complex/16.png,images/complex/14.png,images/complex/6.png,images/complex/11.png,images/complex/7.png,images/complex/2.png","2","null","","200","536.0349999857135","","","","background","",""
"","null","html-keyboard-response","258","538306","0.0-20.0-0.22","SS1604513300372","","null","","","","","","","","","","","","<img src=images/blank.png width =""500"" height = ""500"" style=""border:5px solid black"">","","",""
"","242.68499994650483","stimulus-presentation","259","538802","0.0-20.0-1.22","SS1604513300372","<img src='images/simple/13.png' width ='500' height = '500' style='border:5px solid black'>","40","mixed_complex_deviant","images/simple/2.png","images/simple/13.png","images/complex/12.png,images/complex/16.png,images/complex/14.png,images/complex/6.png,images/complex/11.png,images/complex/7.png,images/complex/2.png","2","null","","200","442.68499994650483","","","","background","",""
"","null","html-keyboard-response","260","539903","0.0-20.0-0.23","SS1604513300372","","null","","","","","","","","","","","","<img src=images/blank.png width =""500"" height = ""500"" style=""border:5px solid black"">","","",""
"","212.51499996287748","stimulus-presentation","261","540363","0.0-20.0-1.23","SS1604513300372","<img src='images/simple/13.png' width ='500' height = '500' style='border:5px solid black'>","40","mixed_complex_deviant","images/simple/2.png","images/simple/13.png","images/complex/12.png,images/complex/16.png,images/complex/14.png,images/complex/6.png,images/complex/11.png,images/complex/7.png,images/complex/2.png","2","null","","200","412.5149999628775","","","","background","",""
"","null","html-keyboard-response","262","541588","0.0-20.0-0.24","SS1604513300372","","null","","","","","","","","","","","","<img src=images/blank.png width =""500"" height = ""500"" style=""border:5px solid black"">","","",""
"","267.2849999507889","stimulus-presentation","263","542086","0.0-20.0-1.24","SS1604513300372","<img src='images/simple/13.png' width ='500' height = '500' style='border:5px solid black'>","40","mixed_complex_deviant","images/simple/2.png","images/simple/13.png","images/complex/12.png,images/complex/16.png,images/complex/14.png,images/complex/6.png,images/complex/11.png,images/complex/7.png,images/complex/2.png","2","null","","200","467.2849999507889","","","","background","",""
"","null","html-keyboard-response","264","543197","0.0-20.0-0.25","SS1604513300372","","null","","","","","","","","","","","","<img src=images/blank.png width =""500"" height = ""500"" style=""border:5px solid black"">","","",""
"","243.6699999962002","stimulus-presentation","265","543714","0.0-20.0-1.25","SS1604513300372","<img src='images/simple/13.png' width ='500' height = '500' style='border:5px solid black'>","40","mixed_complex_deviant","images/simple/2.png","images/simple/13.png","images/complex/12.png,images/complex/16.png,images/complex/14.png,images/complex/6.png,images/complex/11.png,images/complex/7.png,images/complex/2.png","2","null","","200","443.6699999962002","","","","background","",""
"","null","html-keyboard-response","266","544758","0.0-20.0-0.26","SS1604513300372","","null","","","","","","","","","","","","<img src=images/blank.png width =""500"" height = ""500"" style=""border:5px solid black"">","","",""
"","598.6399999819696","stimulus-presentation","267","545584","0.0-20.0-1.26","SS1604513300372","<img src='images/complex/14.png' width ='500' height = '500' style='border:5px solid black'>","40","mixed_complex_deviant","images/simple/2.png","images/simple/13.png","images/complex/12.png,images/complex/16.png,images/complex/14.png,images/complex/6.png,images/complex/11.png,images/complex/7.png,images/complex/2.png","2","null","","200","798.6399999819696","","","","deviant","",""
"","null","html-keyboard-response","268","546753","0.0-20.0-0.27","SS1604513300372","","null","","","","","","","","","","","","<img src=images/blank.png width =""500"" height = ""500"" style=""border:5px solid black"">","","",""
"","191.86999998055398","stimulus-presentation","269","547219","0.0-20.0-1.27","SS1604513300372","<img src='images/simple/13.png' width ='500' height = '500' style='border:5px solid black'>","40","mixed_complex_deviant","images/simple/2.png","images/simple/13.png","images/complex/12.png,images/complex/16.png,images/complex/14.png,images/complex/6.png,images/complex/11.png,images/complex/7.png,images/complex/2.png","2","null","","200","391.869999980554","","","","background","",""
"","null","html-keyboard-response","270","548242","0.0-20.0-0.28","SS1604513300372","","null","","","","","","","","","","","","<img src=images/blank.png width =""500"" height = ""500"" style=""border:5px solid black"">","","",""
"","201.56499999575317","stimulus-presentation","271","548684","0.0-20.0-1.28","SS1604513300372","<img src='images/simple/13.png' width ='500' height = '500' style='border:5px solid black'>","40","mixed_complex_deviant","images/simple/2.png","images/simple/13.png","images/complex/12.png,images/complex/16.png,images/complex/14.png,images/complex/6.png,images/complex/11.png,images/complex/7.png,images/complex/2.png","2","null","","200","401.56499999575317","","","","background","",""
"","null","html-keyboard-response","272","550039","0.0-20.0-0.29","SS1604513300372","","null","","","","","","","","","","","","<img src=images/blank.png width =""500"" height = ""500"" style=""border:5px solid black"">","","",""
"","1386.0900000436231","stimulus-presentation","273","551664","0.0-20.0-1.29","SS1604513300372","<img src='images/simple/2.png' width ='500' height = '500' style='border:5px solid black'>","40","mixed_complex_deviant","images/simple/2.png","images/simple/13.png","images/complex/12.png,images/complex/16.png,images/complex/14.png,images/complex/6.png,images/complex/11.png,images/complex/7.png,images/complex/2.png","2","null","","200","1586.0900000436231","yes","454.2500000097789","","target","",""
"","null","html-keyboard-response","274","552774","0.0-20.0-0.30","SS1604513300372","","null","","","","","","","","","","","","<img src=images/blank.png width =""500"" height = ""500"" style=""border:5px solid black"">","","",""
"","244.37499995110556","stimulus-presentation","275","553285","0.0-20.0-1.30","SS1604513300372","<img src='images/simple/13.png' width ='500' height = '500' style='border:5px solid black'>","40","mixed_complex_deviant","images/simple/2.png","images/simple/13.png","images/complex/12.png,images/complex/16.png,images/complex/14.png,images/complex/6.png,images/complex/11.png,images/complex/7.png,images/complex/2.png","2","null","","200","444.37499995110556","","","","background","",""
"","null","html-keyboard-response","276","554305","0.0-20.0-0.31","SS1604513300372","","null","","","","","","","","","","","","<img src=images/blank.png width =""500"" height = ""500"" style=""border:5px solid black"">","","",""
"","648.9599999622442","stimulus-presentation","277","555244","0.0-20.0-1.31","SS1604513300372","<img src='images/complex/7.png' width ='500' height = '500' style='border:5px solid black'>","40","mixed_complex_deviant","images/simple/2.png","images/simple/13.png","images/complex/12.png,images/complex/16.png,images/complex/14.png,images/complex/6.png,images/complex/11.png,images/complex/7.png,images/complex/2.png","2","null","","200","848.9599999622442","","","","deviant","",""
"","null","html-keyboard-response","278","556518","0.0-20.0-0.32","SS1604513300372","","null","","","","","","","","","","","","<img src=images/blank.png width =""500"" height = ""500"" style=""border:5px solid black"">","","",""
"","208.3299999940209","stimulus-presentation","279","556997","0.0-20.0-1.32","SS1604513300372","<img src='images/simple/13.png' width ='500' height = '500' style='border:5px solid black'>","40","mixed_complex_deviant","images/simple/2.png","images/simple/13.png","images/complex/12.png,images/complex/16.png,images/complex/14.png,images/complex/6.png,images/complex/11.png,images/complex/7.png,images/complex/2.png","2","null","","200","408.3299999940209","","","","background","",""
"","null","html-keyboard-response","280","557860","0.0-20.0-0.33","SS1604513300372","","null","","","","","","","","","","","","<img src=images/blank.png width =""500"" height = ""500"" style=""border:5px solid black"">","","",""
"","1182.1050000144169","stimulus-presentation","281","559292","0.0-20.0-1.33","SS1604513300372","<img src='images/simple/2.png' width ='500' height = '500' style='border:5px solid black'>","40","mixed_complex_deviant","images/simple/2.png","images/simple/13.png","images/complex/12.png,images/complex/16.png,images/complex/14.png,images/complex/6.png,images/complex/11.png,images/complex/7.png,images/complex/2.png","2","null","","200","1382.1050000144169","yes","354.61499996017665","","target","",""
"","null","html-keyboard-response","282","560598","0.0-20.0-0.34","SS1604513300372","","null","","","","","","","","","","","","<img src=images/blank.png width =""500"" height = ""500"" style=""border:5px solid black"">","","",""
"","255.88000001152977","stimulus-presentation","283","561121","0.0-20.0-1.34","SS1604513300372","<img src='images/simple/13.png' width ='500' height = '500' style='border:5px solid black'>","40","mixed_complex_deviant","images/simple/2.png","images/simple/13.png","images/complex/12.png,images/complex/16.png,images/complex/14.png,images/complex/6.png,images/complex/11.png,images/complex/7.png,images/complex/2.png","2","null","","200","455.8800000115298","","","","background","",""
"","null","html-keyboard-response","284","562006","0.0-20.0-0.35","SS1604513300372","","null","","","","","","","","","","","","<img src=images/blank.png width =""500"" height = ""500"" style=""border:5px solid black"">","","",""
