"view_history","rt","trial_type","trial_index","time_elapsed","internal_node_id","subject","trial_stimulus","key_press","task_type","task_target_stimulus","task_background_stimulus","task_deviant_stimuli","task_order_number","block_order_number","trial_order_number","minimum_viewing_duration","trial_looking_time","trial_pressed_space_bar","trial_space_bar_rt","stimulus","trial_stimulus_type","responses","question_order"
"[{""page_index"":0,""viewing_time"":48277.679999999236}]","48278.95000000717","instructions","0","48309","0.0-0.0","SS1604513246712","","","","","","","","","","","","","","","","",""
"[{""page_index"":0,""viewing_time"":10593.77500001574},{""page_index"":1,""viewing_time"":9023.164999991423},{""page_index"":2,""viewing_time"":9632.870000001276},{""page_index"":3,""viewing_time"":14966.799999994691},{""page_index"":4,""viewing_time"":8328.035000013188},{""page_index"":5,""viewing_time"":10959.245000005467},{""page_index"":6,""viewing_time"":5272.609999985434},{""page_index"":7,""viewing_time"":13815.430000016931},{""page_index"":8,""viewing_time"":3463.3599999942817}]","86056.11000000499","instructions","1","134373","0.0-1.0","SS1604513246712","","","","","","","","","","","","","","","","",""
"[{""page_index"":0,""viewing_time"":5963.79499998875},{""page_index"":1,""viewing_time"":14849.870000005467},{""page_index"":2,""viewing_time"":2253.9099999994505}]","23068.144999997457","instructions","2","157445","0.0-2.0","SS1604513246712","","","","","","","","","","","","","","","","",""
"","11736.29999998957","practice-block","3","169389","0.0-3.0","SS1604513246712","<img src='images/practice/practice_background.jpeg' width ='500' height = '500' style='border:5px solid black'>","40","null","images/practice/practice_target.jpg","null","null","null","null","","200","11936.29999998957","yes","1191.1350000009406","","","",""
"","null","html-keyboard-response","4","170304","0.0-4.0","SS1604513246712","","null","","","","","","","","","","","","<img src=images/blank.png width =""500"" height = ""500"" style=""border:5px solid black"">","","",""
"","784.254999976838","practice-block","5","171294","0.0-5.0","SS1604513246712","<img src='images/practice/practice_background.jpeg' width ='500' height = '500' style='border:5px solid black'>","40","null","images/practice/practice_target.jpg","null","null","null","null","","200","984.254999976838","","","","","",""
"","null","html-keyboard-response","6","172499","0.0-6.0","SS1604513246712","","null","","","","","","","","","","","","<img src=images/blank.png width =""500"" height = ""500"" style=""border:5px solid black"">","","",""
"","751.2450000212993","practice-block","7","173456","0.0-7.0","SS1604513246712","<img src='images/practice/practice_deviant.jpeg' width ='500' height = '500' style='border:5px solid black'>","40","null","images/practice/practice_target.jpg","null","null","null","null","","200","951.2450000212993","","","","","",""
"","null","html-keyboard-response","8","174456","0.0-8.0","SS1604513246712","","null","","","","","","","","","","","","<img src=images/blank.png width =""500"" height = ""500"" style=""border:5px solid black"">","","",""
"","637.5350000162143","practice-block","9","177981","0.0-9.0-0.0","SS1604513246712","<img src='images/practice/practice_target.jpg' width ='500' height = '500' style='border:5px solid black'>","40","null","images/practice/practice_target.jpg","null","null","null","null","","200","837.5350000162143","","","","","",""
"","25140.08999997168","practice-block","10","203328","0.0-9.1-0.1","SS1604513246712","<img src='images/practice/practice_target.jpg' width ='500' height = '500' style='border:5px solid black'>","40","null","images/practice/practice_target.jpg","null","null","null","null","","200","25340.08999997168","yes","4029.404999979306","","","",""
"","null","html-keyboard-response","11","204367","0.0-10.0","SS1604513246712","","null","","","","","","","","","","","","<img src=images/blank.png width =""500"" height = ""500"" style=""border:5px solid black"">","","",""
"","837.8050000173971","practice-block","12","205412","0.0-11.0","SS1604513246712","<img src='images/practice/practice_background.jpeg' width ='500' height = '500' style='border:5px solid black'>","40","null","images/practice/practice_target.jpg","null","null","null","null","","200","1037.805000017397","","","","","",""
"[{""page_index"":0,""viewing_time"":3924}]","3925","task-instructions","13","209340","0.0-12.0","SS1604513246712","","","","","","","","","","","","","","","","",""
"[{""page_index"":0,""viewing_time"":15572.574999998324},{""page_index"":1,""viewing_time"":13191.974999994272},{""page_index"":2,""viewing_time"":1343.6799999908544}]","30109.114999999292","instructions","14","239452","0.0-13.0","SS1604513246712","","","","","","","","","","","","","","","","",""
"","null","html-keyboard-response","15","240611","0.0-14.0-0.0","SS1604513246712","","null","","","","","","","","","","","","<img src=images/blank.png width =""500"" height = ""500"" style=""border:5px solid black"">","","",""
"","754.0849999932107","stimulus-presentation","16","241573","0.0-14.0-1.0","SS1604513246712","<img src='images/complex/4.png' width ='500' height = '500' style='border:5px solid black'>","40","mixed_complex_deviant","images/simple/12.png","images/simple/14.png","images/complex/2.png,images/complex/8.png,images/complex/5.png,images/complex/4.png,images/complex/11.png,images/complex/18.png,images/complex/9.png","0","null","","200","954.0849999932107","","","","deviant","",""
"","null","html-keyboard-response","17","242568","0.0-14.0-0.1","SS1604513246712","","null","","","","","","","","","","","","<img src=images/blank.png width =""500"" height = ""500"" style=""border:5px solid black"">","","",""
"","5056.379999994533","stimulus-presentation","18","247839","0.0-14.0-1.1","SS1604513246712","<img src='images/simple/12.png' width ='500' height = '500' style='border:5px solid black'>","40","mixed_complex_deviant","images/simple/12.png","images/simple/14.png","images/complex/2.png,images/complex/8.png,images/complex/5.png,images/complex/4.png,images/complex/11.png,images/complex/18.png,images/complex/9.png","0","null","","200","5256.379999994533","yes","1904.6500000113156","","target","",""
"","null","html-keyboard-response","19","249044","0.0-14.0-0.2","SS1604513246712","","null","","","","","","","","","","","","<img src=images/blank.png width =""500"" height = ""500"" style=""border:5px solid black"">","","",""
"","1949.4050000212155","stimulus-presentation","20","251199","0.0-14.0-1.2","SS1604513246712","<img src='images/simple/14.png' width ='500' height = '500' style='border:5px solid black'>","40","mixed_complex_deviant","images/simple/12.png","images/simple/14.png","images/complex/2.png,images/complex/8.png,images/complex/5.png,images/complex/4.png,images/complex/11.png,images/complex/18.png,images/complex/9.png","0","null","","200","2149.4050000212155","","","","background","",""
"","null","html-keyboard-response","21","252356","0.0-14.0-0.3","SS1604513246712","","null","","","","","","","","","","","","<img src=images/blank.png width =""500"" height = ""500"" style=""border:5px solid black"">","","",""
"","1055.690000008326","stimulus-presentation","22","253618","0.0-14.0-1.3","SS1604513246712","<img src='images/simple/14.png' width ='500' height = '500' style='border:5px solid black'>","40","mixed_complex_deviant","images/simple/12.png","images/simple/14.png","images/complex/2.png,images/complex/8.png,images/complex/5.png,images/complex/4.png,images/complex/11.png,images/complex/18.png,images/complex/9.png","0","null","","200","1255.690000008326","","","","background","",""
"","null","html-keyboard-response","23","254681","0.0-14.0-0.4","SS1604513246712","","null","","","","","","","","","","","","<img src=images/blank.png width =""500"" height = ""500"" style=""border:5px solid black"">","","",""
"","629.2649999959394","stimulus-presentation","24","255515","0.0-14.0-1.4","SS1604513246712","<img src='images/simple/14.png' width ='500' height = '500' style='border:5px solid black'>","40","mixed_complex_deviant","images/simple/12.png","images/simple/14.png","images/complex/2.png,images/complex/8.png,images/complex/5.png,images/complex/4.png,images/complex/11.png,images/complex/18.png,images/complex/9.png","0","null","","200","829.2649999959394","","","","background","",""
"","null","html-keyboard-response","25","256645","0.0-14.0-0.5","SS1604513246712","","null","","","","","","","","","","","","<img src=images/blank.png width =""500"" height = ""500"" style=""border:5px solid black"">","","",""
"","1139.805000013439","stimulus-presentation","26","257992","0.0-14.0-1.5","SS1604513246712","<img src='images/complex/11.png' width ='500' height = '500' style='border:5px solid black'>","40","mixed_complex_deviant","images/simple/12.png","images/simple/14.png","images/complex/2.png,images/complex/8.png,images/complex/5.png,images/complex/4.png,images/complex/11.png,images/complex/18.png,images/complex/9.png","0","null","","200","1339.805000013439","","","","deviant","",""
"","null","html-keyboard-response","27","259040","0.0-14.0-0.6","SS1604513246712","","null","","","","","","","","","","","","<img src=images/blank.png width =""500"" height = ""500"" style=""border:5px solid black"">","","",""
"","493.4249999932945","stimulus-presentation","28","259740","0.0-14.0-1.6","SS1604513246712","<img src='images/simple/14.png' width ='500' height = '500' style='border:5px solid black'>","40","mixed_complex_deviant","images/simple/12.png","images/simple/14.png","images/complex/2.png,images/complex/8.png,images/complex/5.png,images/complex/4.png,images/complex/11.png,images/complex/18.png,images/complex/9.png","0","null","","200","693.4249999932945","","","","background","",""
"","null","html-keyboard-response","29","260971","0.0-14.0-0.7","SS1604513246712","","null","","","","","","","","","","","","<img src=images/blank.png width =""500"" height = ""500"" style=""border:5px solid black"">","","",""
"","545.7300000125542","stimulus-presentation","30","261723","0.0-14.0-1.7","SS1604513246712","<img src='images/simple/12.png' width ='500' height = '500' style='border:5px solid black'>","40","mixed_complex_deviant","images/simple/12.png","images/simple/14.png","images/complex/2.png,images/complex/8.png,images/complex/5.png,images/complex/4.png,images/complex/11.png,images/complex/18.png,images/complex/9.png","0","null","","200","745.7300000125542","","","","target","",""
"","null","html-keyboard-response","31","263017","0.0-14.0-0.8","SS1604513246712","","null","","","","","","","","","","","","<img src=images/blank.png width =""500"" height = ""500"" style=""border:5px solid black"">","","",""
"","469.0100000007078","stimulus-presentation","32","263693","0.0-14.0-1.8","SS1604513246712","<img src='images/simple/14.png' width ='500' height = '500' style='border:5px solid black'>","40","mixed_complex_deviant","images/simple/12.png","images/simple/14.png","images/complex/2.png,images/complex/8.png,images/complex/5.png,images/complex/4.png,images/complex/11.png,images/complex/18.png,images/complex/9.png","0","null","","200","669.0100000007078","","","","background","",""
"","null","html-keyboard-response","33","264710","0.0-14.0-0.9","SS1604513246712","","null","","","","","","","","","","","","<img src=images/blank.png width =""500"" height = ""500"" style=""border:5px solid black"">","","",""
"","490.3199999826029","stimulus-presentation","34","265407","0.0-14.0-1.9","SS1604513246712","<img src='images/simple/14.png' width ='500' height = '500' style='border:5px solid black'>","40","mixed_complex_deviant","images/simple/12.png","images/simple/14.png","images/complex/2.png,images/complex/8.png,images/complex/5.png,images/complex/4.png,images/complex/11.png,images/complex/18.png,images/complex/9.png","0","null","","200","690.3199999826029","","","","background","",""
"","null","html-keyboard-response","35","266230","0.0-14.0-0.10","SS1604513246712","","null","","","","","","","","","","","","<img src=images/blank.png width =""500"" height = ""500"" style=""border:5px solid black"">","","",""
"","1790.080000006128","stimulus-presentation","36","268226","0.0-14.0-1.10","SS1604513246712","<img src='images/simple/12.png' width ='500' height = '500' style='border:5px solid black'>","40","mixed_complex_deviant","images/simple/12.png","images/simple/14.png","images/complex/2.png,images/complex/8.png,images/complex/5.png,images/complex/4.png,images/complex/11.png,images/complex/18.png,images/complex/9.png","0","null","","200","1990.080000006128","yes","612.9150000051595","","target","",""
"","null","html-keyboard-response","37","269078","0.0-14.0-0.11","SS1604513246712","","null","","","","","","","","","","","","<img src=images/blank.png width =""500"" height = ""500"" style=""border:5px solid black"">","","",""
"","624.5150000031572","stimulus-presentation","38","269907","0.0-14.0-1.11","SS1604513246712","<img src='images/simple/14.png' width ='500' height = '500' style='border:5px solid black'>","40","mixed_complex_deviant","images/simple/12.png","images/simple/14.png","images/complex/2.png,images/complex/8.png,images/complex/5.png,images/complex/4.png,images/complex/11.png,images/complex/18.png,images/complex/9.png","0","null","","200","824.5150000031572","","","","background","",""
"","null","html-keyboard-response","39","270936","0.0-14.0-0.12","SS1604513246712","","null","","","","","","","","","","","","<img src=images/blank.png width =""500"" height = ""500"" style=""border:5px solid black"">","","",""
"","577.5199999916367","stimulus-presentation","40","271719","0.0-14.0-1.12","SS1604513246712","<img src='images/simple/14.png' width ='500' height = '500' style='border:5px solid black'>","40","mixed_complex_deviant","images/simple/12.png","images/simple/14.png","images/complex/2.png,images/complex/8.png,images/complex/5.png,images/complex/4.png,images/complex/11.png,images/complex/18.png,images/complex/9.png","0","null","","200","777.5199999916367","","","","background","",""
"","null","html-keyboard-response","41","272922","0.0-14.0-0.13","SS1604513246712","","null","","","","","","","","","","","","<img src=images/blank.png width =""500"" height = ""500"" style=""border:5px solid black"">","","",""
"","1244.139999995241","stimulus-presentation","42","274371","0.0-14.0-1.13","SS1604513246712","<img src='images/simple/12.png' width ='500' height = '500' style='border:5px solid black'>","40","mixed_complex_deviant","images/simple/12.png","images/simple/14.png","images/complex/2.png,images/complex/8.png,images/complex/5.png,images/complex/4.png,images/complex/11.png,images/complex/18.png,images/complex/9.png","0","null","","200","1444.139999995241","yes","579.2849999852479","","target","",""
"","null","html-keyboard-response","43","275498","0.0-14.0-0.14","SS1604513246712","","null","","","","","","","","","","","","<img src=images/blank.png width =""500"" height = ""500"" style=""border:5px solid black"">","","",""
"","489.23500001546927","stimulus-presentation","44","276193","0.0-14.0-1.14","SS1604513246712","<img src='images/simple/14.png' width ='500' height = '500' style='border:5px solid black'>","40","mixed_complex_deviant","images/simple/12.png","images/simple/14.png","images/complex/2.png,images/complex/8.png,images/complex/5.png,images/complex/4.png,images/complex/11.png,images/complex/18.png,images/complex/9.png","0","null","","200","689.2350000154693","","","","background","",""
"","null","html-keyboard-response","45","277413","0.0-14.0-0.15","SS1604513246712","","null","","","","","","","","","","","","<img src=images/blank.png width =""500"" height = ""500"" style=""border:5px solid black"">","","",""
"","1295.3600000182632","stimulus-presentation","46","278914","0.0-14.0-1.15","SS1604513246712","<img src='images/simple/12.png' width ='500' height = '500' style='border:5px solid black'>","40","mixed_complex_deviant","images/simple/12.png","images/simple/14.png","images/complex/2.png,images/complex/8.png,images/complex/5.png,images/complex/4.png,images/complex/11.png,images/complex/18.png,images/complex/9.png","0","null","","200","1495.3600000182632","yes","472.83499999321066","","target","",""
"","null","html-keyboard-response","47","279813","0.0-14.0-0.16","SS1604513246712","","null","","","","","","","","","","","","<img src=images/blank.png width =""500"" height = ""500"" style=""border:5px solid black"">","","",""
"","495.27499999385327","stimulus-presentation","48","280515","0.0-14.0-1.16","SS1604513246712","<img src='images/simple/14.png' width ='500' height = '500' style='border:5px solid black'>","40","mixed_complex_deviant","images/simple/12.png","images/simple/14.png","images/complex/2.png,images/complex/8.png,images/complex/5.png,images/complex/4.png,images/complex/11.png,images/complex/18.png,images/complex/9.png","0","null","","200","695.2749999938533","","","","background","",""
"","null","html-keyboard-response","49","281325","0.0-14.0-0.17","SS1604513246712","","null","","","","","","","","","","","","<img src=images/blank.png width =""500"" height = ""500"" style=""border:5px solid black"">","","",""
"","651.4449999958742","stimulus-presentation","50","282183","0.0-14.0-1.17","SS1604513246712","<img src='images/complex/8.png' width ='500' height = '500' style='border:5px solid black'>","40","mixed_complex_deviant","images/simple/12.png","images/simple/14.png","images/complex/2.png,images/complex/8.png,images/complex/5.png,images/complex/4.png,images/complex/11.png,images/complex/18.png,images/complex/9.png","0","null","","200","851.4449999958742","","","","deviant","",""
"","null","html-keyboard-response","51","282994","0.0-14.0-0.18","SS1604513246712","","null","","","","","","","","","","","","<img src=images/blank.png width =""500"" height = ""500"" style=""border:5px solid black"">","","",""
"","471.8900000152644","stimulus-presentation","52","283673","0.0-14.0-1.18","SS1604513246712","<img src='images/simple/14.png' width ='500' height = '500' style='border:5px solid black'>","40","mixed_complex_deviant","images/simple/12.png","images/simple/14.png","images/complex/2.png,images/complex/8.png,images/complex/5.png,images/complex/4.png,images/complex/11.png,images/complex/18.png,images/complex/9.png","0","null","","200","671.8900000152644","","","","background","",""
"","null","html-keyboard-response","53","284583","0.0-14.0-0.19","SS1604513246712","","null","","","","","","","","","","","","<img src=images/blank.png width =""500"" height = ""500"" style=""border:5px solid black"">","","",""
"","467.6399999880232","stimulus-presentation","54","285258","0.0-14.0-1.19","SS1604513246712","<img src='images/simple/14.png' width ='500' height = '500' style='border:5px solid black'>","40","mixed_complex_deviant","images/simple/12.png","images/simple/14.png","images/complex/2.png,images/complex/8.png,images/complex/5.png,images/complex/4.png,images/complex/11.png,images/complex/18.png,images/complex/9.png","0","null","","200","667.6399999880232","","","","background","",""
"","null","html-keyboard-response","55","286126","0.0-14.0-0.20","SS1604513246712","","null","","","","","","","","","","","","<img src=images/blank.png width =""500"" height = ""500"" style=""border:5px solid black"">","","",""
"","621.370000008028","stimulus-presentation","56","286953","0.0-14.0-1.20","SS1604513246712","<img src='images/complex/9.png' width ='500' height = '500' style='border:5px solid black'>","40","mixed_complex_deviant","images/simple/12.png","images/simple/14.png","images/complex/2.png,images/complex/8.png,images/complex/5.png,images/complex/4.png,images/complex/11.png,images/complex/18.png,images/complex/9.png","0","null","","200","821.370000008028","","","","deviant","",""
"","null","html-keyboard-response","57","288245","0.0-14.0-0.21","SS1604513246712","","null","","","","","","","","","","","","<img src=images/blank.png width =""500"" height = ""500"" style=""border:5px solid black"">","","",""
"","1397.049999999581","stimulus-presentation","58","289848","0.0-14.0-1.21","SS1604513246712","<img src='images/simple/12.png' width ='500' height = '500' style='border:5px solid black'>","40","mixed_complex_deviant","images/simple/12.png","images/simple/14.png","images/complex/2.png,images/complex/8.png,images/complex/5.png,images/complex/4.png,images/complex/11.png,images/complex/18.png,images/complex/9.png","0","null","","200","1597.049999999581","yes","492.9499999852851","","target","",""
"","null","html-keyboard-response","59","290905","0.0-14.0-0.22","SS1604513246712","","null","","","","","","","","","","","","<img src=images/blank.png width =""500"" height = ""500"" style=""border:5px solid black"">","","",""
"","523.0850000225473","stimulus-presentation","60","291639","0.0-14.0-1.22","SS1604513246712","<img src='images/simple/14.png' width ='500' height = '500' style='border:5px solid black'>","40","mixed_complex_deviant","images/simple/12.png","images/simple/14.png","images/complex/2.png,images/complex/8.png,images/complex/5.png,images/complex/4.png,images/complex/11.png,images/complex/18.png,images/complex/9.png","0","null","","200","723.0850000225473","","","","background","",""
"","null","html-keyboard-response","61","292747","0.0-14.0-0.23","SS1604513246712","","null","","","","","","","","","","","","<img src=images/blank.png width =""500"" height = ""500"" style=""border:5px solid black"">","","",""
"","455.65499999793246","stimulus-presentation","62","293410","0.0-14.0-1.23","SS1604513246712","<img src='images/simple/14.png' width ='500' height = '500' style='border:5px solid black'>","40","mixed_complex_deviant","images/simple/12.png","images/simple/14.png","images/complex/2.png,images/complex/8.png,images/complex/5.png,images/complex/4.png,images/complex/11.png,images/complex/18.png,images/complex/9.png","0","null","","200","655.6549999979325","","","","background","",""
"","null","html-keyboard-response","63","294311","0.0-14.0-0.24","SS1604513246712","","null","","","","","","","","","","","","<img src=images/blank.png width =""500"" height = ""500"" style=""border:5px solid black"">","","",""
"","506.6899999801535","stimulus-presentation","64","295026","0.0-14.0-1.24","SS1604513246712","<img src='images/simple/14.png' width ='500' height = '500' style='border:5px solid black'>","40","mixed_complex_deviant","images/simple/12.png","images/simple/14.png","images/complex/2.png,images/complex/8.png,images/complex/5.png,images/complex/4.png,images/complex/11.png,images/complex/18.png,images/complex/9.png","0","null","","200","706.6899999801535","","","","background","",""
"","null","html-keyboard-response","65","296280","0.0-14.0-0.25","SS1604513246712","","null","","","","","","","","","","","","<img src=images/blank.png width =""500"" height = ""500"" style=""border:5px solid black"">","","",""
"","1022.1500000043306","stimulus-presentation","66","297509","0.0-14.0-1.25","SS1604513246712","<img src='images/complex/18.png' width ='500' height = '500' style='border:5px solid black'>","40","mixed_complex_deviant","images/simple/12.png","images/simple/14.png","images/complex/2.png,images/complex/8.png,images/complex/5.png,images/complex/4.png,images/complex/11.png,images/complex/18.png,images/complex/9.png","0","null","","200","1222.1500000043306","","","","deviant","",""
"","null","html-keyboard-response","67","298789","0.0-14.0-0.26","SS1604513246712","","null","","","","","","","","","","","","<img src=images/blank.png width =""500"" height = ""500"" style=""border:5px solid black"">","","",""
"","486.62499999045394","stimulus-presentation","68","299482","0.0-14.0-1.26","SS1604513246712","<img src='images/simple/14.png' width ='500' height = '500' style='border:5px solid black'>","40","mixed_complex_deviant","images/simple/12.png","images/simple/14.png","images/complex/2.png,images/complex/8.png,images/complex/5.png,images/complex/4.png,images/complex/11.png,images/complex/18.png,images/complex/9.png","0","null","","200","686.624999990454","","","","background","",""
"","null","html-keyboard-response","69","300375","0.0-14.0-0.27","SS1604513246712","","null","","","","","","","","","","","","<img src=images/blank.png width =""500"" height = ""500"" style=""border:5px solid black"">","","",""
"","659.7199999960139","stimulus-presentation","70","301242","0.0-14.0-1.27","SS1604513246712","<img src='images/simple/14.png' width ='500' height = '500' style='border:5px solid black'>","40","mixed_complex_deviant","images/simple/12.png","images/simple/14.png","images/complex/2.png,images/complex/8.png,images/complex/5.png,images/complex/4.png,images/complex/11.png,images/complex/18.png,images/complex/9.png","0","null","","200","859.7199999960139","","","","background","",""
"","null","html-keyboard-response","71","302236","0.0-14.0-0.28","SS1604513246712","","null","","","","","","","","","","","","<img src=images/blank.png width =""500"" height = ""500"" style=""border:5px solid black"">","","",""
"","739.5799999940209","stimulus-presentation","72","303184","0.0-14.0-1.28","SS1604513246712","<img src='images/complex/5.png' width ='500' height = '500' style='border:5px solid black'>","40","mixed_complex_deviant","images/simple/12.png","images/simple/14.png","images/complex/2.png,images/complex/8.png,images/complex/5.png,images/complex/4.png,images/complex/11.png,images/complex/18.png,images/complex/9.png","0","null","","200","939.5799999940209","","","","deviant","",""
"","null","html-keyboard-response","73","304172","0.0-14.0-0.29","SS1604513246712","","null","","","","","","","","","","","","<img src=images/blank.png width =""500"" height = ""500"" style=""border:5px solid black"">","","",""
"","631.6450000158511","stimulus-presentation","74","305009","0.0-14.0-1.29","SS1604513246712","<img src='images/simple/14.png' width ='500' height = '500' style='border:5px solid black'>","40","mixed_complex_deviant","images/simple/12.png","images/simple/14.png","images/complex/2.png,images/complex/8.png,images/complex/5.png,images/complex/4.png,images/complex/11.png,images/complex/18.png,images/complex/9.png","0","null","","200","831.6450000158511","","","","background","",""
"","null","html-keyboard-response","75","306249","0.0-14.0-0.30","SS1604513246712","","null","","","","","","","","","","","","<img src=images/blank.png width =""500"" height = ""500"" style=""border:5px solid black"">","","",""
"","460.74000000953674","stimulus-presentation","76","306916","0.0-14.0-1.30","SS1604513246712","<img src='images/simple/14.png' width ='500' height = '500' style='border:5px solid black'>","40","mixed_complex_deviant","images/simple/12.png","images/simple/14.png","images/complex/2.png,images/complex/8.png,images/complex/5.png,images/complex/4.png,images/complex/11.png,images/complex/18.png,images/complex/9.png","0","null","","200","660.7400000095367","","","","background","",""
"","null","html-keyboard-response","77","308049","0.0-14.0-0.31","SS1604513246712","","null","","","","","","","","","","","","<img src=images/blank.png width =""500"" height = ""500"" style=""border:5px solid black"">","","",""
"","524.8150000115857","stimulus-presentation","78","308780","0.0-14.0-1.31","SS1604513246712","<img src='images/simple/14.png' width ='500' height = '500' style='border:5px solid black'>","40","mixed_complex_deviant","images/simple/12.png","images/simple/14.png","images/complex/2.png,images/complex/8.png,images/complex/5.png,images/complex/4.png,images/complex/11.png,images/complex/18.png,images/complex/9.png","0","null","","200","724.8150000115857","","","","background","",""
"","null","html-keyboard-response","79","309825","0.0-14.0-0.32","SS1604513246712","","null","","","","","","","","","","","","<img src=images/blank.png width =""500"" height = ""500"" style=""border:5px solid black"">","","",""
"","463.76000001328066","stimulus-presentation","80","310496","0.0-14.0-1.32","SS1604513246712","<img src='images/simple/14.png' width ='500' height = '500' style='border:5px solid black'>","40","mixed_complex_deviant","images/simple/12.png","images/simple/14.png","images/complex/2.png,images/complex/8.png,images/complex/5.png,images/complex/4.png,images/complex/11.png,images/complex/18.png,images/complex/9.png","0","null","","200","663.7600000132807","","","","background","",""
"","null","html-keyboard-response","81","311414","0.0-14.0-0.33","SS1604513246712","","null","","","","","","","","","","","","<img src=images/blank.png width =""500"" height = ""500"" style=""border:5px solid black"">","","",""
"","512.1949999884237","stimulus-presentation","82","312133","0.0-14.0-1.33","SS1604513246712","<img src='images/simple/14.png' width ='500' height = '500' style='border:5px solid black'>","40","mixed_complex_deviant","images/simple/12.png","images/simple/14.png","images/complex/2.png,images/complex/8.png,images/complex/5.png,images/complex/4.png,images/complex/11.png,images/complex/18.png,images/complex/9.png","0","null","","200","712.1949999884237","","","","background","",""
"","null","html-keyboard-response","83","313407","0.0-14.0-0.34","SS1604513246712","","null","","","","","","","","","","","","<img src=images/blank.png width =""500"" height = ""500"" style=""border:5px solid black"">","","",""
"","449.4099999719765","stimulus-presentation","84","314065","0.0-14.0-1.34","SS1604513246712","<img src='images/simple/14.png' width ='500' height = '500' style='border:5px solid black'>","40","mixed_complex_deviant","images/simple/12.png","images/simple/14.png","images/complex/2.png,images/complex/8.png,images/complex/5.png,images/complex/4.png,images/complex/11.png,images/complex/18.png,images/complex/9.png","0","null","","200","649.4099999719765","","","","background","",""
"","null","html-keyboard-response","85","315043","0.0-14.0-0.35","SS1604513246712","","null","","","","","","","","","","","","<img src=images/blank.png width =""500"" height = ""500"" style=""border:5px solid black"">","","",""
"","475.6249999918509","stimulus-presentation","86","315727","0.0-14.0-1.35","SS1604513246712","<img src='images/simple/14.png' width ='500' height = '500' style='border:5px solid black'>","40","mixed_complex_deviant","images/simple/12.png","images/simple/14.png","images/complex/2.png,images/complex/8.png,images/complex/5.png,images/complex/4.png,images/complex/11.png,images/complex/18.png,images/complex/9.png","0","null","","200","675.6249999918509","","","","background","",""
"","null","html-keyboard-response","87","316976","0.0-14.0-0.36","SS1604513246712","","null","","","","","","","","","","","","<img src=images/blank.png width =""500"" height = ""500"" style=""border:5px solid black"">","","",""
"","465.20500001497567","stimulus-presentation","88","317649","0.0-14.0-1.36","SS1604513246712","<img src='images/simple/14.png' width ='500' height = '500' style='border:5px solid black'>","40","mixed_complex_deviant","images/simple/12.png","images/simple/14.png","images/complex/2.png,images/complex/8.png,images/complex/5.png,images/complex/4.png,images/complex/11.png,images/complex/18.png,images/complex/9.png","0","null","","200","665.2050000149757","","","","background","",""
"","null","html-keyboard-response","89","318849","0.0-14.0-0.37","SS1604513246712","","null","","","","","","","","","","","","<img src=images/blank.png width =""500"" height = ""500"" style=""border:5px solid black"">","","",""
"","445.7249999977648","stimulus-presentation","90","319501","0.0-14.0-1.37","SS1604513246712","<img src='images/simple/14.png' width ='500' height = '500' style='border:5px solid black'>","40","mixed_complex_deviant","images/simple/12.png","images/simple/14.png","images/complex/2.png,images/complex/8.png,images/complex/5.png,images/complex/4.png,images/complex/11.png,images/complex/18.png,images/complex/9.png","0","null","","200","645.7249999977648","","","","background","",""
"","null","html-keyboard-response","91","320747","0.0-14.0-0.38","SS1604513246712","","null","","","","","","","","","","","","<img src=images/blank.png width =""500"" height = ""500"" style=""border:5px solid black"">","","",""
"","411.6700000013225","stimulus-presentation","92","321366","0.0-14.0-1.38","SS1604513246712","<img src='images/simple/14.png' width ='500' height = '500' style='border:5px solid black'>","40","mixed_complex_deviant","images/simple/12.png","images/simple/14.png","images/complex/2.png,images/complex/8.png,images/complex/5.png,images/complex/4.png,images/complex/11.png,images/complex/18.png,images/complex/9.png","0","null","","200","611.6700000013225","","","","background","",""
"","null","html-keyboard-response","93","322338","0.0-14.0-0.39","SS1604513246712","","null","","","","","","","","","","","","<img src=images/blank.png width =""500"" height = ""500"" style=""border:5px solid black"">","","",""
"","460.56000000680797","stimulus-presentation","94","323006","0.0-14.0-1.39","SS1604513246712","<img src='images/simple/14.png' width ='500' height = '500' style='border:5px solid black'>","40","mixed_complex_deviant","images/simple/12.png","images/simple/14.png","images/complex/2.png,images/complex/8.png,images/complex/5.png,images/complex/4.png,images/complex/11.png,images/complex/18.png,images/complex/9.png","0","null","","200","660.560000006808","","","","background","",""
"","null","html-keyboard-response","95","324303","0.0-14.0-0.40","SS1604513246712","","null","","","","","","","","","","","","<img src=images/blank.png width =""500"" height = ""500"" style=""border:5px solid black"">","","",""
"","449.46499998332","stimulus-presentation","96","324961","0.0-14.0-1.40","SS1604513246712","<img src='images/simple/14.png' width ='500' height = '500' style='border:5px solid black'>","40","mixed_complex_deviant","images/simple/12.png","images/simple/14.png","images/complex/2.png,images/complex/8.png,images/complex/5.png,images/complex/4.png,images/complex/11.png,images/complex/18.png,images/complex/9.png","0","null","","200","649.46499998332","","","","background","",""
"","null","html-keyboard-response","97","325931","0.0-14.0-0.41","SS1604513246712","","null","","","","","","","","","","","","<img src=images/blank.png width =""500"" height = ""500"" style=""border:5px solid black"">","","",""
"","787.1400000003632","stimulus-presentation","98","326926","0.0-14.0-1.41","SS1604513246712","<img src='images/complex/2.png' width ='500' height = '500' style='border:5px solid black'>","40","mixed_complex_deviant","images/simple/12.png","images/simple/14.png","images/complex/2.png,images/complex/8.png,images/complex/5.png,images/complex/4.png,images/complex/11.png,images/complex/18.png,images/complex/9.png","0","null","","200","987.1400000003632","","","","deviant","",""
"","null","html-keyboard-response","99","327853","0.0-14.0-0.42","SS1604513246712","","null","","","","","","","","","","","","<img src=images/blank.png width =""500"" height = ""500"" style=""border:5px solid black"">","","",""
"","530.7099999918137","stimulus-presentation","100","328590","0.0-14.0-1.42","SS1604513246712","<img src='images/simple/14.png' width ='500' height = '500' style='border:5px solid black'>","40","mixed_complex_deviant","images/simple/12.png","images/simple/14.png","images/complex/2.png,images/complex/8.png,images/complex/5.png,images/complex/4.png,images/complex/11.png,images/complex/18.png,images/complex/9.png","0","null","","200","730.7099999918137","","","","background","",""
"","null","html-keyboard-response","101","329637","0.0-14.0-0.43","SS1604513246712","","null","","","","","","","","","","","","<img src=images/blank.png width =""500"" height = ""500"" style=""border:5px solid black"">","","",""
"","607.3150000011083","stimulus-presentation","102","330451","0.0-14.0-1.43","SS1604513246712","<img src='images/simple/14.png' width ='500' height = '500' style='border:5px solid black'>","40","mixed_complex_deviant","images/simple/12.png","images/simple/14.png","images/complex/2.png,images/complex/8.png,images/complex/5.png,images/complex/4.png,images/complex/11.png,images/complex/18.png,images/complex/9.png","0","null","","200","807.3150000011083","","","","background","",""
"","null","html-keyboard-response","103","331465","0.0-14.0-0.44","SS1604513246712","","null","","","","","","","","","","","","<img src=images/blank.png width =""500"" height = ""500"" style=""border:5px solid black"">","","",""
"","407.6249999925494","stimulus-presentation","104","332080","0.0-14.0-1.44","SS1604513246712","<img src='images/simple/14.png' width ='500' height = '500' style='border:5px solid black'>","40","mixed_complex_deviant","images/simple/12.png","images/simple/14.png","images/complex/2.png,images/complex/8.png,images/complex/5.png,images/complex/4.png,images/complex/11.png,images/complex/18.png,images/complex/9.png","0","null","","200","607.6249999925494","","","","background","",""
"","null","html-keyboard-response","105","333327","0.0-14.0-0.45","SS1604513246712","","null","","","","","","","","","","","","<img src=images/blank.png width =""500"" height = ""500"" style=""border:5px solid black"">","","",""
"","392.80000000144355","stimulus-presentation","106","333929","0.0-14.0-1.45","SS1604513246712","<img src='images/simple/14.png' width ='500' height = '500' style='border:5px solid black'>","40","mixed_complex_deviant","images/simple/12.png","images/simple/14.png","images/complex/2.png,images/complex/8.png,images/complex/5.png,images/complex/4.png,images/complex/11.png,images/complex/18.png,images/complex/9.png","0","null","","200","592.8000000014435","","","","background","",""
"","null","html-keyboard-response","107","335151","0.0-14.0-0.46","SS1604513246712","","null","","","","","","","","","","","","<img src=images/blank.png width =""500"" height = ""500"" style=""border:5px solid black"">","","",""
"","379.0949999820441","stimulus-presentation","108","335737","0.0-14.0-1.46","SS1604513246712","<img src='images/simple/14.png' width ='500' height = '500' style='border:5px solid black'>","40","mixed_complex_deviant","images/simple/12.png","images/simple/14.png","images/complex/2.png,images/complex/8.png,images/complex/5.png,images/complex/4.png,images/complex/11.png,images/complex/18.png,images/complex/9.png","0","null","","200","579.0949999820441","","","","background","",""
"","null","html-keyboard-response","109","336658","0.0-14.0-0.47","SS1604513246712","","null","","","","","","","","","","","","<img src=images/blank.png width =""500"" height = ""500"" style=""border:5px solid black"">","","",""
"","471.73999997903593","stimulus-presentation","110","337339","0.0-14.0-1.47","SS1604513246712","<img src='images/simple/14.png' width ='500' height = '500' style='border:5px solid black'>","40","mixed_complex_deviant","images/simple/12.png","images/simple/14.png","images/complex/2.png,images/complex/8.png,images/complex/5.png,images/complex/4.png,images/complex/11.png,images/complex/18.png,images/complex/9.png","0","null","","200","671.7399999790359","","","","background","",""
"","null","html-keyboard-response","111","338431","0.0-14.0-0.48","SS1604513246712","","null","","","","","","","","","","","","<img src=images/blank.png width =""500"" height = ""500"" style=""border:5px solid black"">","","",""
"","1716.3050000090152","stimulus-presentation","112","340355","0.0-14.0-1.48","SS1604513246712","<img src='images/simple/12.png' width ='500' height = '500' style='border:5px solid black'>","40","mixed_complex_deviant","images/simple/12.png","images/simple/14.png","images/complex/2.png,images/complex/8.png,images/complex/5.png,images/complex/4.png,images/complex/11.png,images/complex/18.png,images/complex/9.png","0","null","","200","1916.3050000090152","yes","562.2550000261981","","target","",""
"[{""page_index"":0,""viewing_time"":6232}]","6233","task-instructions","113","346594","0.0-15.0","SS1604513246712","","","","","","","","","","","","","","","","",""
"[{""page_index"":0,""viewing_time"":4396.355000004405},{""page_index"":1,""viewing_time"":4543.355000001611},{""page_index"":2,""viewing_time"":1912.3649999964982}]","10852.71500001545","instructions","114","357457","0.0-16.0","SS1604513246712","","","","","","","","","","","","","","","","",""
"","null","html-keyboard-response","115","358623","0.0-17.0-0.0","SS1604513246712","","null","","","","","","","","","","","","<img src=images/blank.png width =""500"" height = ""500"" style=""border:5px solid black"">","","",""
"","1194.275000016205","stimulus-presentation","116","360026","0.0-17.0-1.0","SS1604513246712","<img src='images/simple/2.png' width ='500' height = '500' style='border:5px solid black'>","40","all_simple","images/simple/7.png","images/simple/2.png","images/simple/5.png,images/simple/10.png,images/simple/9.png,images/simple/16.png,images/simple/1.png,images/simple/11.png,images/simple/6.png","1","null","","200","1394.275000016205","","","","background","",""
"","null","html-keyboard-response","117","361292","0.0-17.0-0.1","SS1604513246712","","null","","","","","","","","","","","","<img src=images/blank.png width =""500"" height = ""500"" style=""border:5px solid black"">","","",""
"","571.1850000079721","stimulus-presentation","118","362070","0.0-17.0-1.1","SS1604513246712","<img src='images/simple/2.png' width ='500' height = '500' style='border:5px solid black'>","40","all_simple","images/simple/7.png","images/simple/2.png","images/simple/5.png,images/simple/10.png,images/simple/9.png,images/simple/16.png,images/simple/1.png,images/simple/11.png,images/simple/6.png","1","null","","200","771.1850000079721","","","","background","",""
"","null","html-keyboard-response","119","363141","0.0-17.0-0.2","SS1604513246712","","null","","","","","","","","","","","","<img src=images/blank.png width =""500"" height = ""500"" style=""border:5px solid black"">","","",""
"","1587.4799999874085","stimulus-presentation","120","364935","0.0-17.0-1.2","SS1604513246712","<img src='images/simple/7.png' width ='500' height = '500' style='border:5px solid black'>","40","all_simple","images/simple/7.png","images/simple/2.png","images/simple/5.png,images/simple/10.png,images/simple/9.png,images/simple/16.png,images/simple/1.png,images/simple/11.png,images/simple/6.png","1","null","","200","1787.4799999874085","yes","691.2899999879301","","target","",""
"","null","html-keyboard-response","121","365884","0.0-17.0-0.3","SS1604513246712","","null","","","","","","","","","","","","<img src=images/blank.png width =""500"" height = ""500"" style=""border:5px solid black"">","","",""
"","1156.329999997979","stimulus-presentation","122","367248","0.0-17.0-1.3","SS1604513246712","<img src='images/simple/7.png' width ='500' height = '500' style='border:5px solid black'>","40","all_simple","images/simple/7.png","images/simple/2.png","images/simple/5.png,images/simple/10.png,images/simple/9.png,images/simple/16.png,images/simple/1.png,images/simple/11.png,images/simple/6.png","1","null","","200","1356.329999997979","yes","504.9550000112504","","target","",""
"","null","html-keyboard-response","123","368378","0.0-17.0-0.4","SS1604513246712","","null","","","","","","","","","","","","<img src=images/blank.png width =""500"" height = ""500"" style=""border:5px solid black"">","","",""
"","487.0750000118278","stimulus-presentation","124","369073","0.0-17.0-1.4","SS1604513246712","<img src='images/simple/2.png' width ='500' height = '500' style='border:5px solid black'>","40","all_simple","images/simple/7.png","images/simple/2.png","images/simple/5.png,images/simple/10.png,images/simple/9.png,images/simple/16.png,images/simple/1.png,images/simple/11.png,images/simple/6.png","1","null","","200","687.0750000118278","","","","background","",""
"","null","html-keyboard-response","125","370083","0.0-17.0-0.5","SS1604513246712","","null","","","","","","","","","","","","<img src=images/blank.png width =""500"" height = ""500"" style=""border:5px solid black"">","","",""
"","780.5149999912828","stimulus-presentation","126","371071","0.0-17.0-1.5","SS1604513246712","<img src='images/simple/5.png' width ='500' height = '500' style='border:5px solid black'>","40","all_simple","images/simple/7.png","images/simple/2.png","images/simple/5.png,images/simple/10.png,images/simple/9.png,images/simple/16.png,images/simple/1.png,images/simple/11.png,images/simple/6.png","1","null","","200","980.5149999912828","","","","deviant","",""
"","null","html-keyboard-response","127","371957","0.0-17.0-0.6","SS1604513246712","","null","","","","","","","","","","","","<img src=images/blank.png width =""500"" height = ""500"" style=""border:5px solid black"">","","",""
"","649.4999999995343","stimulus-presentation","128","372815","0.0-17.0-1.6","SS1604513246712","<img src='images/simple/2.png' width ='500' height = '500' style='border:5px solid black'>","40","all_simple","images/simple/7.png","images/simple/2.png","images/simple/5.png,images/simple/10.png,images/simple/9.png,images/simple/16.png,images/simple/1.png,images/simple/11.png,images/simple/6.png","1","null","","200","849.4999999995343","","","","background","",""
"","null","html-keyboard-response","129","373735","0.0-17.0-0.7","SS1604513246712","","null","","","","","","","","","","","","<img src=images/blank.png width =""500"" height = ""500"" style=""border:5px solid black"">","","",""
"","486.3199999963399","stimulus-presentation","130","374430","0.0-17.0-1.7","SS1604513246712","<img src='images/simple/2.png' width ='500' height = '500' style='border:5px solid black'>","40","all_simple","images/simple/7.png","images/simple/2.png","images/simple/5.png,images/simple/10.png,images/simple/9.png,images/simple/16.png,images/simple/1.png,images/simple/11.png,images/simple/6.png","1","null","","200","686.3199999963399","","","","background","",""
"","null","html-keyboard-response","131","375604","0.0-17.0-0.8","SS1604513246712","","null","","","","","","","","","","","","<img src=images/blank.png width =""500"" height = ""500"" style=""border:5px solid black"">","","",""
"","1381.1949999944773","stimulus-presentation","132","377194","0.0-17.0-1.8","SS1604513246712","<img src='images/simple/7.png' width ='500' height = '500' style='border:5px solid black'>","40","all_simple","images/simple/7.png","images/simple/2.png","images/simple/5.png,images/simple/10.png,images/simple/9.png,images/simple/16.png,images/simple/1.png,images/simple/11.png,images/simple/6.png","1","null","","200","1581.1949999944773","yes","571.1099999898579","","target","",""
"","null","html-keyboard-response","133","378066","0.0-17.0-0.9","SS1604513246712","","null","","","","","","","","","","","","<img src=images/blank.png width =""500"" height = ""500"" style=""border:5px solid black"">","","",""
"","683.870000008028","stimulus-presentation","134","378959","0.0-17.0-1.9","SS1604513246712","<img src='images/simple/10.png' width ='500' height = '500' style='border:5px solid black'>","40","all_simple","images/simple/7.png","images/simple/2.png","images/simple/5.png,images/simple/10.png,images/simple/9.png,images/simple/16.png,images/simple/1.png,images/simple/11.png,images/simple/6.png","1","null","","200","883.870000008028","","","","deviant","",""
"","null","html-keyboard-response","135","379941","0.0-17.0-0.10","SS1604513246712","","null","","","","","","","","","","","","<img src=images/blank.png width =""500"" height = ""500"" style=""border:5px solid black"">","","",""
"","680.724999983795","stimulus-presentation","136","380830","0.0-17.0-1.10","SS1604513246712","<img src='images/simple/2.png' width ='500' height = '500' style='border:5px solid black'>","40","all_simple","images/simple/7.png","images/simple/2.png","images/simple/5.png,images/simple/10.png,images/simple/9.png,images/simple/16.png,images/simple/1.png,images/simple/11.png,images/simple/6.png","1","null","","200","880.724999983795","","","","background","",""
"","null","html-keyboard-response","137","381761","0.0-17.0-0.11","SS1604513246712","","null","","","","","","","","","","","","<img src=images/blank.png width =""500"" height = ""500"" style=""border:5px solid black"">","","",""
"","1491.3349999987986","stimulus-presentation","138","383461","0.0-17.0-1.11","SS1604513246712","<img src='images/simple/7.png' width ='500' height = '500' style='border:5px solid black'>","40","all_simple","images/simple/7.png","images/simple/2.png","images/simple/5.png,images/simple/10.png,images/simple/9.png,images/simple/16.png,images/simple/1.png,images/simple/11.png,images/simple/6.png","1","null","","200","1691.3349999987986","yes","603.5799999954179","","target","",""
"","null","html-keyboard-response","139","384353","0.0-17.0-0.12","SS1604513246712","","null","","","","","","","","","","","","<img src=images/blank.png width =""500"" height = ""500"" style=""border:5px solid black"">","","",""
"","527.91000000434","stimulus-presentation","140","385092","0.0-17.0-1.12","SS1604513246712","<img src='images/simple/2.png' width ='500' height = '500' style='border:5px solid black'>","40","all_simple","images/simple/7.png","images/simple/2.png","images/simple/5.png,images/simple/10.png,images/simple/9.png,images/simple/16.png,images/simple/1.png,images/simple/11.png,images/simple/6.png","1","null","","200","727.91000000434","","","","background","",""
"","null","html-keyboard-response","141","386210","0.0-17.0-0.13","SS1604513246712","","null","","","","","","","","","","","","<img src=images/blank.png width =""500"" height = ""500"" style=""border:5px solid black"">","","",""
"","725.8000000147149","stimulus-presentation","142","387146","0.0-17.0-1.13","SS1604513246712","<img src='images/simple/9.png' width ='500' height = '500' style='border:5px solid black'>","40","all_simple","images/simple/7.png","images/simple/2.png","images/simple/5.png,images/simple/10.png,images/simple/9.png,images/simple/16.png,images/simple/1.png,images/simple/11.png,images/simple/6.png","1","null","","200","925.8000000147149","","","","deviant","",""
"","null","html-keyboard-response","143","388351","0.0-17.0-0.14","SS1604513246712","","null","","","","","","","","","","","","<img src=images/blank.png width =""500"" height = ""500"" style=""border:5px solid black"">","","",""
"","564.8649999930058","stimulus-presentation","144","389124","0.0-17.0-1.14","SS1604513246712","<img src='images/simple/2.png' width ='500' height = '500' style='border:5px solid black'>","40","all_simple","images/simple/7.png","images/simple/2.png","images/simple/5.png,images/simple/10.png,images/simple/9.png,images/simple/16.png,images/simple/1.png,images/simple/11.png,images/simple/6.png","1","null","","200","764.8649999930058","","","","background","",""
"","null","html-keyboard-response","145","389954","0.0-17.0-0.15","SS1604513246712","","null","","","","","","","","","","","","<img src=images/blank.png width =""500"" height = ""500"" style=""border:5px solid black"">","","",""
"","452.980000001844","stimulus-presentation","146","390615","0.0-17.0-1.15","SS1604513246712","<img src='images/simple/2.png' width ='500' height = '500' style='border:5px solid black'>","40","all_simple","images/simple/7.png","images/simple/2.png","images/simple/5.png,images/simple/10.png,images/simple/9.png,images/simple/16.png,images/simple/1.png,images/simple/11.png,images/simple/6.png","1","null","","200","652.980000001844","","","","background","",""
"","null","html-keyboard-response","147","391574","0.0-17.0-0.16","SS1604513246712","","null","","","","","","","","","","","","<img src=images/blank.png width =""500"" height = ""500"" style=""border:5px solid black"">","","",""
"","411.7099999857601","stimulus-presentation","148","392194","0.0-17.0-1.16","SS1604513246712","<img src='images/simple/2.png' width ='500' height = '500' style='border:5px solid black'>","40","all_simple","images/simple/7.png","images/simple/2.png","images/simple/5.png,images/simple/10.png,images/simple/9.png,images/simple/16.png,images/simple/1.png,images/simple/11.png,images/simple/6.png","1","null","","200","611.7099999857601","","","","background","",""
"","null","html-keyboard-response","149","393126","0.0-17.0-0.17","SS1604513246712","","null","","","","","","","","","","","","<img src=images/blank.png width =""500"" height = ""500"" style=""border:5px solid black"">","","",""
"","433.86999997892417","stimulus-presentation","150","393768","0.0-17.0-1.17","SS1604513246712","<img src='images/simple/2.png' width ='500' height = '500' style='border:5px solid black'>","40","all_simple","images/simple/7.png","images/simple/2.png","images/simple/5.png,images/simple/10.png,images/simple/9.png,images/simple/16.png,images/simple/1.png,images/simple/11.png,images/simple/6.png","1","null","","200","633.8699999789242","","","","background","",""
"","null","html-keyboard-response","151","394596","0.0-17.0-0.18","SS1604513246712","","null","","","","","","","","","","","","<img src=images/blank.png width =""500"" height = ""500"" style=""border:5px solid black"">","","",""
"","1770.569999993313","stimulus-presentation","152","396576","0.0-17.0-1.18","SS1604513246712","<img src='images/simple/7.png' width ='500' height = '500' style='border:5px solid black'>","40","all_simple","images/simple/7.png","images/simple/2.png","images/simple/5.png,images/simple/10.png,images/simple/9.png,images/simple/16.png,images/simple/1.png,images/simple/11.png,images/simple/6.png","1","null","","200","1970.569999993313","yes","614.0299999970011","","target","",""
"","null","html-keyboard-response","153","397719","0.0-17.0-0.19","SS1604513246712","","null","","","","","","","","","","","","<img src=images/blank.png width =""500"" height = ""500"" style=""border:5px solid black"">","","",""
"","612.9750000254717","stimulus-presentation","154","398541","0.0-17.0-1.19","SS1604513246712","<img src='images/simple/2.png' width ='500' height = '500' style='border:5px solid black'>","40","all_simple","images/simple/7.png","images/simple/2.png","images/simple/5.png,images/simple/10.png,images/simple/9.png,images/simple/16.png,images/simple/1.png,images/simple/11.png,images/simple/6.png","1","null","","200","812.9750000254717","","","","background","",""
"","null","html-keyboard-response","155","399777","0.0-17.0-0.20","SS1604513246712","","null","","","","","","","","","","","","<img src=images/blank.png width =""500"" height = ""500"" style=""border:5px solid black"">","","",""
"","438.5400000028312","stimulus-presentation","156","400424","0.0-17.0-1.20","SS1604513246712","<img src='images/simple/1.png' width ='500' height = '500' style='border:5px solid black'>","40","all_simple","images/simple/7.png","images/simple/2.png","images/simple/5.png,images/simple/10.png,images/simple/9.png,images/simple/16.png,images/simple/1.png,images/simple/11.png,images/simple/6.png","1","null","","200","638.5400000028312","","","","deviant","",""
"","null","html-keyboard-response","157","401527","0.0-17.0-0.21","SS1604513246712","","null","","","","","","","","","","","","<img src=images/blank.png width =""500"" height = ""500"" style=""border:5px solid black"">","","",""
"","384.17499998467974","stimulus-presentation","158","402120","0.0-17.0-1.21","SS1604513246712","<img src='images/simple/2.png' width ='500' height = '500' style='border:5px solid black'>","40","all_simple","images/simple/7.png","images/simple/2.png","images/simple/5.png,images/simple/10.png,images/simple/9.png,images/simple/16.png,images/simple/1.png,images/simple/11.png,images/simple/6.png","1","null","","200","584.1749999846797","","","","background","",""
"","null","html-keyboard-response","159","403373","0.0-17.0-0.22","SS1604513246712","","null","","","","","","","","","","","","<img src=images/blank.png width =""500"" height = ""500"" style=""border:5px solid black"">","","",""
"","437.2399999992922","stimulus-presentation","160","404019","0.0-17.0-1.22","SS1604513246712","<img src='images/simple/2.png' width ='500' height = '500' style='border:5px solid black'>","40","all_simple","images/simple/7.png","images/simple/2.png","images/simple/5.png,images/simple/10.png,images/simple/9.png,images/simple/16.png,images/simple/1.png,images/simple/11.png,images/simple/6.png","1","null","","200","637.2399999992922","","","","background","",""
"","null","html-keyboard-response","161","405134","0.0-17.0-0.23","SS1604513246712","","null","","","","","","","","","","","","<img src=images/blank.png width =""500"" height = ""500"" style=""border:5px solid black"">","","",""
"","480.90999998385087","stimulus-presentation","162","405825","0.0-17.0-1.23","SS1604513246712","<img src='images/simple/2.png' width ='500' height = '500' style='border:5px solid black'>","40","all_simple","images/simple/7.png","images/simple/2.png","images/simple/5.png,images/simple/10.png,images/simple/9.png,images/simple/16.png,images/simple/1.png,images/simple/11.png,images/simple/6.png","1","null","","200","680.9099999838509","","","","background","",""
"","null","html-keyboard-response","163","406772","0.0-17.0-0.24","SS1604513246712","","null","","","","","","","","","","","","<img src=images/blank.png width =""500"" height = ""500"" style=""border:5px solid black"">","","",""
"","621.5300000039861","stimulus-presentation","164","407603","0.0-17.0-1.24","SS1604513246712","<img src='images/simple/6.png' width ='500' height = '500' style='border:5px solid black'>","40","all_simple","images/simple/7.png","images/simple/2.png","images/simple/5.png,images/simple/10.png,images/simple/9.png,images/simple/16.png,images/simple/1.png,images/simple/11.png,images/simple/6.png","1","null","","200","821.5300000039861","","","","deviant","",""
"","null","html-keyboard-response","165","408504","0.0-17.0-0.25","SS1604513246712","","null","","","","","","","","","","","","<img src=images/blank.png width =""500"" height = ""500"" style=""border:5px solid black"">","","",""
"","559.3149999913294","stimulus-presentation","166","409274","0.0-17.0-1.25","SS1604513246712","<img src='images/simple/2.png' width ='500' height = '500' style='border:5px solid black'>","40","all_simple","images/simple/7.png","images/simple/2.png","images/simple/5.png,images/simple/10.png,images/simple/9.png,images/simple/16.png,images/simple/1.png,images/simple/11.png,images/simple/6.png","1","null","","200","759.3149999913294","","","","background","",""
"","null","html-keyboard-response","167","410122","0.0-17.0-0.26","SS1604513246712","","null","","","","","","","","","","","","<img src=images/blank.png width =""500"" height = ""500"" style=""border:5px solid black"">","","",""
"","428.86499999440275","stimulus-presentation","168","410761","0.0-17.0-1.26","SS1604513246712","<img src='images/simple/2.png' width ='500' height = '500' style='border:5px solid black'>","40","all_simple","images/simple/7.png","images/simple/2.png","images/simple/5.png,images/simple/10.png,images/simple/9.png,images/simple/16.png,images/simple/1.png,images/simple/11.png,images/simple/6.png","1","null","","200","628.8649999944028","","","","background","",""
"","null","html-keyboard-response","169","412042","0.0-17.0-0.27","SS1604513246712","","null","","","","","","","","","","","","<img src=images/blank.png width =""500"" height = ""500"" style=""border:5px solid black"">","","",""
"","409.7900000051595","stimulus-presentation","170","412662","0.0-17.0-1.27","SS1604513246712","<img src='images/simple/2.png' width ='500' height = '500' style='border:5px solid black'>","40","all_simple","images/simple/7.png","images/simple/2.png","images/simple/5.png,images/simple/10.png,images/simple/9.png,images/simple/16.png,images/simple/1.png,images/simple/11.png,images/simple/6.png","1","null","","200","609.7900000051595","","","","background","",""
"","null","html-keyboard-response","171","413489","0.0-17.0-0.28","SS1604513246712","","null","","","","","","","","","","","","<img src=images/blank.png width =""500"" height = ""500"" style=""border:5px solid black"">","","",""
"","422.8799999982584","stimulus-presentation","172","414121","0.0-17.0-1.28","SS1604513246712","<img src='images/simple/2.png' width ='500' height = '500' style='border:5px solid black'>","40","all_simple","images/simple/7.png","images/simple/2.png","images/simple/5.png,images/simple/10.png,images/simple/9.png,images/simple/16.png,images/simple/1.png,images/simple/11.png,images/simple/6.png","1","null","","200","622.8799999982584","","","","background","",""
"","null","html-keyboard-response","173","415236","0.0-17.0-0.29","SS1604513246712","","null","","","","","","","","","","","","<img src=images/blank.png width =""500"" height = ""500"" style=""border:5px solid black"">","","",""
"","391.44999999552965","stimulus-presentation","174","415837","0.0-17.0-1.29","SS1604513246712","<img src='images/simple/2.png' width ='500' height = '500' style='border:5px solid black'>","40","all_simple","images/simple/7.png","images/simple/2.png","images/simple/5.png,images/simple/10.png,images/simple/9.png,images/simple/16.png,images/simple/1.png,images/simple/11.png,images/simple/6.png","1","null","","200","591.4499999955297","","","","background","",""
"","null","html-keyboard-response","175","416744","0.0-17.0-0.30","SS1604513246712","","null","","","","","","","","","","","","<img src=images/blank.png width =""500"" height = ""500"" style=""border:5px solid black"">","","",""
"","438.84499999694526","stimulus-presentation","176","417393","0.0-17.0-1.30","SS1604513246712","<img src='images/simple/11.png' width ='500' height = '500' style='border:5px solid black'>","40","all_simple","images/simple/7.png","images/simple/2.png","images/simple/5.png,images/simple/10.png,images/simple/9.png,images/simple/16.png,images/simple/1.png,images/simple/11.png,images/simple/6.png","1","null","","200","638.8449999969453","","","","deviant","",""
"","null","html-keyboard-response","177","418399","0.0-17.0-0.31","SS1604513246712","","null","","","","","","","","","","","","<img src=images/blank.png width =""500"" height = ""500"" style=""border:5px solid black"">","","",""
"","481.2650000094436","stimulus-presentation","178","419088","0.0-17.0-1.31","SS1604513246712","<img src='images/simple/2.png' width ='500' height = '500' style='border:5px solid black'>","40","all_simple","images/simple/7.png","images/simple/2.png","images/simple/5.png,images/simple/10.png,images/simple/9.png,images/simple/16.png,images/simple/1.png,images/simple/11.png,images/simple/6.png","1","null","","200","681.2650000094436","","","","background","",""
"","null","html-keyboard-response","179","420137","0.0-17.0-0.32","SS1604513246712","","null","","","","","","","","","","","","<img src=images/blank.png width =""500"" height = ""500"" style=""border:5px solid black"">","","",""
"","413.13000000081956","stimulus-presentation","180","420759","0.0-17.0-1.32","SS1604513246712","<img src='images/simple/2.png' width ='500' height = '500' style='border:5px solid black'>","40","all_simple","images/simple/7.png","images/simple/2.png","images/simple/5.png,images/simple/10.png,images/simple/9.png,images/simple/16.png,images/simple/1.png,images/simple/11.png,images/simple/6.png","1","null","","200","613.1300000008196","","","","background","",""
"","null","html-keyboard-response","181","421724","0.0-17.0-0.33","SS1604513246712","","null","","","","","","","","","","","","<img src=images/blank.png width =""500"" height = ""500"" style=""border:5px solid black"">","","",""
"","387.9350000061095","stimulus-presentation","182","422319","0.0-17.0-1.33","SS1604513246712","<img src='images/simple/2.png' width ='500' height = '500' style='border:5px solid black'>","40","all_simple","images/simple/7.png","images/simple/2.png","images/simple/5.png,images/simple/10.png,images/simple/9.png,images/simple/16.png,images/simple/1.png,images/simple/11.png,images/simple/6.png","1","null","","200","587.9350000061095","","","","background","",""
"","null","html-keyboard-response","183","423592","0.0-17.0-0.34","SS1604513246712","","null","","","","","","","","","","","","<img src=images/blank.png width =""500"" height = ""500"" style=""border:5px solid black"">","","",""
"","370.21999998250976","stimulus-presentation","184","424172","0.0-17.0-1.34","SS1604513246712","<img src='images/simple/2.png' width ='500' height = '500' style='border:5px solid black'>","40","all_simple","images/simple/7.png","images/simple/2.png","images/simple/5.png,images/simple/10.png,images/simple/9.png,images/simple/16.png,images/simple/1.png,images/simple/11.png,images/simple/6.png","1","null","","200","570.2199999825098","","","","background","",""
"","null","html-keyboard-response","185","425031","0.0-17.0-0.35","SS1604513246712","","null","","","","","","","","","","","","<img src=images/blank.png width =""500"" height = ""500"" style=""border:5px solid black"">","","",""
"","436.7050000000745","stimulus-presentation","186","425676","0.0-17.0-1.35","SS1604513246712","<img src='images/simple/2.png' width ='500' height = '500' style='border:5px solid black'>","40","all_simple","images/simple/7.png","images/simple/2.png","images/simple/5.png,images/simple/10.png,images/simple/9.png,images/simple/16.png,images/simple/1.png,images/simple/11.png,images/simple/6.png","1","null","","200","636.7050000000745","","","","background","",""
"","null","html-keyboard-response","187","426925","0.0-17.0-0.36","SS1604513246712","","null","","","","","","","","","","","","<img src=images/blank.png width =""500"" height = ""500"" style=""border:5px solid black"">","","",""
"","368.5500000137836","stimulus-presentation","188","427502","0.0-17.0-1.36","SS1604513246712","<img src='images/simple/2.png' width ='500' height = '500' style='border:5px solid black'>","40","all_simple","images/simple/7.png","images/simple/2.png","images/simple/5.png,images/simple/10.png,images/simple/9.png,images/simple/16.png,images/simple/1.png,images/simple/11.png,images/simple/6.png","1","null","","200","568.5500000137836","","","","background","",""
"","null","html-keyboard-response","189","428473","0.0-17.0-0.37","SS1604513246712","","null","","","","","","","","","","","","<img src=images/blank.png width =""500"" height = ""500"" style=""border:5px solid black"">","","",""
"","1498.2699999818578","stimulus-presentation","190","430182","0.0-17.0-1.37","SS1604513246712","<img src='images/simple/7.png' width ='500' height = '500' style='border:5px solid black'>","40","all_simple","images/simple/7.png","images/simple/2.png","images/simple/5.png,images/simple/10.png,images/simple/9.png,images/simple/16.png,images/simple/1.png,images/simple/11.png,images/simple/6.png","1","null","","200","1698.2699999818578","yes","626.9800000009127","","target","",""
"","null","html-keyboard-response","191","431371","0.0-17.0-0.38","SS1604513246712","","null","","","","","","","","","","","","<img src=images/blank.png width =""500"" height = ""500"" style=""border:5px solid black"">","","",""
"","468.525000003865","stimulus-presentation","192","432050","0.0-17.0-1.38","SS1604513246712","<img src='images/simple/16.png' width ='500' height = '500' style='border:5px solid black'>","40","all_simple","images/simple/7.png","images/simple/2.png","images/simple/5.png,images/simple/10.png,images/simple/9.png,images/simple/16.png,images/simple/1.png,images/simple/11.png,images/simple/6.png","1","null","","200","668.525000003865","","","","deviant","",""
"","null","html-keyboard-response","193","433060","0.0-17.0-0.39","SS1604513246712","","null","","","","","","","","","","","","<img src=images/blank.png width =""500"" height = ""500"" style=""border:5px solid black"">","","",""
"","358.3500000240747","stimulus-presentation","194","433627","0.0-17.0-1.39","SS1604513246712","<img src='images/simple/2.png' width ='500' height = '500' style='border:5px solid black'>","40","all_simple","images/simple/7.png","images/simple/2.png","images/simple/5.png,images/simple/10.png,images/simple/9.png,images/simple/16.png,images/simple/1.png,images/simple/11.png,images/simple/6.png","1","null","","200","558.3500000240747","","","","background","",""
"","null","html-keyboard-response","195","434775","0.0-17.0-0.40","SS1604513246712","","null","","","","","","","","","","","","<img src=images/blank.png width =""500"" height = ""500"" style=""border:5px solid black"">","","",""
"","325.50500001525506","stimulus-presentation","196","435311","0.0-17.0-1.40","SS1604513246712","<img src='images/simple/7.png' width ='500' height = '500' style='border:5px solid black'>","40","all_simple","images/simple/7.png","images/simple/2.png","images/simple/5.png,images/simple/10.png,images/simple/9.png,images/simple/16.png,images/simple/1.png,images/simple/11.png,images/simple/6.png","1","null","","200","525.5050000152551","","","","target","",""
"","null","html-keyboard-response","197","436208","0.0-17.0-0.41","SS1604513246712","","null","","","","","","","","","","","","<img src=images/blank.png width =""500"" height = ""500"" style=""border:5px solid black"">","","",""
"","334.96999999624677","stimulus-presentation","198","436753","0.0-17.0-1.41","SS1604513246712","<img src='images/simple/2.png' width ='500' height = '500' style='border:5px solid black'>","40","all_simple","images/simple/7.png","images/simple/2.png","images/simple/5.png,images/simple/10.png,images/simple/9.png,images/simple/16.png,images/simple/1.png,images/simple/11.png,images/simple/6.png","1","null","","200","534.9699999962468","","","","background","",""
"","null","html-keyboard-response","199","437865","0.0-17.0-0.42","SS1604513246712","","null","","","","","","","","","","","","<img src=images/blank.png width =""500"" height = ""500"" style=""border:5px solid black"">","","",""
"","403.87499998905696","stimulus-presentation","200","438478","0.0-17.0-1.42","SS1604513246712","<img src='images/simple/2.png' width ='500' height = '500' style='border:5px solid black'>","40","all_simple","images/simple/7.png","images/simple/2.png","images/simple/5.png,images/simple/10.png,images/simple/9.png,images/simple/16.png,images/simple/1.png,images/simple/11.png,images/simple/6.png","1","null","","200","603.874999989057","","","","background","",""
"","null","html-keyboard-response","201","439737","0.0-17.0-0.43","SS1604513246712","","null","","","","","","","","","","","","<img src=images/blank.png width =""500"" height = ""500"" style=""border:5px solid black"">","","",""
"","357.75500000454485","stimulus-presentation","202","440305","0.0-17.0-1.43","SS1604513246712","<img src='images/simple/2.png' width ='500' height = '500' style='border:5px solid black'>","40","all_simple","images/simple/7.png","images/simple/2.png","images/simple/5.png,images/simple/10.png,images/simple/9.png,images/simple/16.png,images/simple/1.png,images/simple/11.png,images/simple/6.png","1","null","","200","557.7550000045449","","","","background","",""
"","null","html-keyboard-response","203","441475","0.0-17.0-0.44","SS1604513246712","","null","","","","","","","","","","","","<img src=images/blank.png width =""500"" height = ""500"" style=""border:5px solid black"">","","",""
"","399.3049999990035","stimulus-presentation","204","442085","0.0-17.0-1.44","SS1604513246712","<img src='images/simple/2.png' width ='500' height = '500' style='border:5px solid black'>","40","all_simple","images/simple/7.png","images/simple/2.png","images/simple/5.png,images/simple/10.png,images/simple/9.png,images/simple/16.png,images/simple/1.png,images/simple/11.png,images/simple/6.png","1","null","","200","599.3049999990035","","","","background","",""
"","null","html-keyboard-response","205","443379","0.0-17.0-0.45","SS1604513246712","","null","","","","","","","","","","","","<img src=images/blank.png width =""500"" height = ""500"" style=""border:5px solid black"">","","",""
"","363.9600000169594","stimulus-presentation","206","443951","0.0-17.0-1.45","SS1604513246712","<img src='images/simple/2.png' width ='500' height = '500' style='border:5px solid black'>","40","all_simple","images/simple/7.png","images/simple/2.png","images/simple/5.png,images/simple/10.png,images/simple/9.png,images/simple/16.png,images/simple/1.png,images/simple/11.png,images/simple/6.png","1","null","","200","563.9600000169594","","","","background","",""
"","null","html-keyboard-response","207","445119","0.0-17.0-0.46","SS1604513246712","","null","","","","","","","","","","","","<img src=images/blank.png width =""500"" height = ""500"" style=""border:5px solid black"">","","",""
"","452.74999999674037","stimulus-presentation","208","445781","0.0-17.0-1.46","SS1604513246712","<img src='images/simple/2.png' width ='500' height = '500' style='border:5px solid black'>","40","all_simple","images/simple/7.png","images/simple/2.png","images/simple/5.png,images/simple/10.png,images/simple/9.png,images/simple/16.png,images/simple/1.png,images/simple/11.png,images/simple/6.png","1","null","","200","652.7499999967404","","","","background","",""
"","null","html-keyboard-response","209","446785","0.0-17.0-0.47","SS1604513246712","","null","","","","","","","","","","","","<img src=images/blank.png width =""500"" height = ""500"" style=""border:5px solid black"">","","",""
"","445.0899999937974","stimulus-presentation","210","447439","0.0-17.0-1.47","SS1604513246712","<img src='images/simple/2.png' width ='500' height = '500' style='border:5px solid black'>","40","all_simple","images/simple/7.png","images/simple/2.png","images/simple/5.png,images/simple/10.png,images/simple/9.png,images/simple/16.png,images/simple/1.png,images/simple/11.png,images/simple/6.png","1","null","","200","645.0899999937974","","","","background","",""
"","null","html-keyboard-response","211","448451","0.0-17.0-0.48","SS1604513246712","","null","","","","","","","","","","","","<img src=images/blank.png width =""500"" height = ""500"" style=""border:5px solid black"">","","",""
"","396.2699999974575","stimulus-presentation","212","449056","0.0-17.0-1.48","SS1604513246712","<img src='images/simple/2.png' width ='500' height = '500' style='border:5px solid black'>","40","all_simple","images/simple/7.png","images/simple/2.png","images/simple/5.png,images/simple/10.png,images/simple/9.png,images/simple/16.png,images/simple/1.png,images/simple/11.png,images/simple/6.png","1","null","","200","596.2699999974575","","","","background","",""
"[{""page_index"":0,""viewing_time"":2561}]","2563","task-instructions","213","451625","0.0-18.0","SS1604513246712","","","","","","","","","","","","","","","","",""
"[{""page_index"":0,""viewing_time"":1644.2150000075344},{""page_index"":1,""viewing_time"":4904.374999983702},{""page_index"":2,""viewing_time"":1510.4600000195205}]","8059.845000010682","instructions","214","459695","0.0-19.0","SS1604513246712","","","","","","","","","","","","","","","","",""
"","null","html-keyboard-response","215","460580","0.0-20.0-0.0","SS1604513246712","","null","","","","","","","","","","","","<img src=images/blank.png width =""500"" height = ""500"" style=""border:5px solid black"">","","",""
"","1001.3699999835808","stimulus-presentation","216","461792","0.0-20.0-1.0","SS1604513246712","<img src='images/complex/14.png' width ='500' height = '500' style='border:5px solid black'>","40","mixed_simple_deviant","images/complex/1.png","images/complex/14.png","images/simple/3.png,images/simple/8.png,images/simple/15.png,images/simple/17.png,images/simple/18.png,images/simple/13.png,images/simple/4.png","2","null","","200","1201.3699999835808","","","","background","",""
"","null","html-keyboard-response","217","462725","0.0-20.0-0.1","SS1604513246712","","null","","","","","","","","","","","","<img src=images/blank.png width =""500"" height = ""500"" style=""border:5px solid black"">","","",""
"","564.6950000082143","stimulus-presentation","218","463502","0.0-20.0-1.1","SS1604513246712","<img src='images/complex/14.png' width ='500' height = '500' style='border:5px solid black'>","40","mixed_simple_deviant","images/complex/1.png","images/complex/14.png","images/simple/3.png,images/simple/8.png,images/simple/15.png,images/simple/17.png,images/simple/18.png,images/simple/13.png,images/simple/4.png","2","null","","200","764.6950000082143","","","","background","",""
"","null","html-keyboard-response","219","464469","0.0-20.0-0.2","SS1604513246712","","null","","","","","","","","","","","","<img src=images/blank.png width =""500"" height = ""500"" style=""border:5px solid black"">","","",""
"","446.7949999962002","stimulus-presentation","220","465126","0.0-20.0-1.2","SS1604513246712","<img src='images/complex/14.png' width ='500' height = '500' style='border:5px solid black'>","40","mixed_simple_deviant","images/complex/1.png","images/complex/14.png","images/simple/3.png,images/simple/8.png,images/simple/15.png,images/simple/17.png,images/simple/18.png,images/simple/13.png,images/simple/4.png","2","null","","200","646.7949999962002","","","","background","",""
"","null","html-keyboard-response","221","466185","0.0-20.0-0.3","SS1604513246712","","null","","","","","","","","","","","","<img src=images/blank.png width =""500"" height = ""500"" style=""border:5px solid black"">","","",""
"","609.2599999974482","stimulus-presentation","222","467005","0.0-20.0-1.3","SS1604513246712","<img src='images/simple/13.png' width ='500' height = '500' style='border:5px solid black'>","40","mixed_simple_deviant","images/complex/1.png","images/complex/14.png","images/simple/3.png,images/simple/8.png,images/simple/15.png,images/simple/17.png,images/simple/18.png,images/simple/13.png,images/simple/4.png","2","null","","200","809.2599999974482","","","","deviant","",""
"","null","html-keyboard-response","223","467982","0.0-20.0-0.4","SS1604513246712","","null","","","","","","","","","","","","<img src=images/blank.png width =""500"" height = ""500"" style=""border:5px solid black"">","","",""
"","561.4800000039395","stimulus-presentation","224","468753","0.0-20.0-1.4","SS1604513246712","<img src='images/complex/14.png' width ='500' height = '500' style='border:5px solid black'>","40","mixed_simple_deviant","images/complex/1.png","images/complex/14.png","images/simple/3.png,images/simple/8.png,images/simple/15.png,images/simple/17.png,images/simple/18.png,images/simple/13.png,images/simple/4.png","2","null","","200","761.4800000039395","","","","background","",""
"","null","html-keyboard-response","225","469981","0.0-20.0-0.5","SS1604513246712","","null","","","","","","","","","","","","<img src=images/blank.png width =""500"" height = ""500"" style=""border:5px solid black"">","","",""
"","443.6250000144355","stimulus-presentation","226","470635","0.0-20.0-1.5","SS1604513246712","<img src='images/complex/14.png' width ='500' height = '500' style='border:5px solid black'>","40","mixed_simple_deviant","images/complex/1.png","images/complex/14.png","images/simple/3.png,images/simple/8.png,images/simple/15.png,images/simple/17.png,images/simple/18.png,images/simple/13.png,images/simple/4.png","2","null","","200","643.6250000144355","","","","background","",""
"","null","html-keyboard-response","227","471888","0.0-20.0-0.6","SS1604513246712","","null","","","","","","","","","","","","<img src=images/blank.png width =""500"" height = ""500"" style=""border:5px solid black"">","","",""
"","451.15000000805594","stimulus-presentation","228","472550","0.0-20.0-1.6","SS1604513246712","<img src='images/complex/14.png' width ='500' height = '500' style='border:5px solid black'>","40","mixed_simple_deviant","images/complex/1.png","images/complex/14.png","images/simple/3.png,images/simple/8.png,images/simple/15.png,images/simple/17.png,images/simple/18.png,images/simple/13.png,images/simple/4.png","2","null","","200","651.1500000080559","","","","background","",""
"","null","html-keyboard-response","229","473444","0.0-20.0-0.7","SS1604513246712","","null","","","","","","","","","","","","<img src=images/blank.png width =""500"" height = ""500"" style=""border:5px solid black"">","","",""
"","589.6099999954458","stimulus-presentation","230","474246","0.0-20.0-1.7","SS1604513246712","<img src='images/complex/14.png' width ='500' height = '500' style='border:5px solid black'>","40","mixed_simple_deviant","images/complex/1.png","images/complex/14.png","images/simple/3.png,images/simple/8.png,images/simple/15.png,images/simple/17.png,images/simple/18.png,images/simple/13.png,images/simple/4.png","2","null","","200","789.6099999954458","","","","background","",""
"","null","html-keyboard-response","231","475522","0.0-20.0-0.8","SS1604513246712","","null","","","","","","","","","","","","<img src=images/blank.png width =""500"" height = ""500"" style=""border:5px solid black"">","","",""
"","428.6900000006426","stimulus-presentation","232","476159","0.0-20.0-1.8","SS1604513246712","<img src='images/complex/14.png' width ='500' height = '500' style='border:5px solid black'>","40","mixed_simple_deviant","images/complex/1.png","images/complex/14.png","images/simple/3.png,images/simple/8.png,images/simple/15.png,images/simple/17.png,images/simple/18.png,images/simple/13.png,images/simple/4.png","2","null","","200","628.6900000006426","","","","background","",""
"","null","html-keyboard-response","233","477138","0.0-20.0-0.9","SS1604513246712","","null","","","","","","","","","","","","<img src=images/blank.png width =""500"" height = ""500"" style=""border:5px solid black"">","","",""
"","535.6249999895226","stimulus-presentation","234","477884","0.0-20.0-1.9","SS1604513246712","<img src='images/simple/18.png' width ='500' height = '500' style='border:5px solid black'>","40","mixed_simple_deviant","images/complex/1.png","images/complex/14.png","images/simple/3.png,images/simple/8.png,images/simple/15.png,images/simple/17.png,images/simple/18.png,images/simple/13.png,images/simple/4.png","2","null","","200","735.6249999895226","","","","deviant","",""
"","null","html-keyboard-response","235","478910","0.0-20.0-0.10","SS1604513246712","","null","","","","","","","","","","","","<img src=images/blank.png width =""500"" height = ""500"" style=""border:5px solid black"">","","",""
"","554.0449999971315","stimulus-presentation","236","479673","0.0-20.0-1.10","SS1604513246712","<img src='images/complex/14.png' width ='500' height = '500' style='border:5px solid black'>","40","mixed_simple_deviant","images/complex/1.png","images/complex/14.png","images/simple/3.png,images/simple/8.png,images/simple/15.png,images/simple/17.png,images/simple/18.png,images/simple/13.png,images/simple/4.png","2","null","","200","754.0449999971315","","","","background","",""
"","null","html-keyboard-response","237","480615","0.0-20.0-0.11","SS1604513246712","","null","","","","","","","","","","","","<img src=images/blank.png width =""500"" height = ""500"" style=""border:5px solid black"">","","",""
"","1672.7949999913108","stimulus-presentation","238","482498","0.0-20.0-1.11","SS1604513246712","<img src='images/complex/1.png' width ='500' height = '500' style='border:5px solid black'>","40","mixed_simple_deviant","images/complex/1.png","images/complex/14.png","images/simple/3.png,images/simple/8.png,images/simple/15.png,images/simple/17.png,images/simple/18.png,images/simple/13.png,images/simple/4.png","2","null","","200","1872.7949999913108","yes","731.3599999761209","","target","",""
"","null","html-keyboard-response","239","483771","0.0-20.0-0.12","SS1604513246712","","null","","","","","","","","","","","","<img src=images/blank.png width =""500"" height = ""500"" style=""border:5px solid black"">","","",""
"","1414.4199999864213","stimulus-presentation","240","485395","0.0-20.0-1.12","SS1604513246712","<img src='images/complex/1.png' width ='500' height = '500' style='border:5px solid black'>","40","mixed_simple_deviant","images/complex/1.png","images/complex/14.png","images/simple/3.png,images/simple/8.png,images/simple/15.png,images/simple/17.png,images/simple/18.png,images/simple/13.png,images/simple/4.png","2","null","","200","1614.4199999864213","yes","552.9300000052899","","target","",""
"","null","html-keyboard-response","241","486485","0.0-20.0-0.13","SS1604513246712","","null","","","","","","","","","","","","<img src=images/blank.png width =""500"" height = ""500"" style=""border:5px solid black"">","","",""
"","582.2599999955855","stimulus-presentation","242","487279","0.0-20.0-1.13","SS1604513246712","<img src='images/complex/14.png' width ='500' height = '500' style='border:5px solid black'>","40","mixed_simple_deviant","images/complex/1.png","images/complex/14.png","images/simple/3.png,images/simple/8.png,images/simple/15.png,images/simple/17.png,images/simple/18.png,images/simple/13.png,images/simple/4.png","2","null","","200","782.2599999955855","","","","background","",""
"","null","html-keyboard-response","243","488379","0.0-20.0-0.14","SS1604513246712","","null","","","","","","","","","","","","<img src=images/blank.png width =""500"" height = ""500"" style=""border:5px solid black"">","","",""
"","500.6800000264775","stimulus-presentation","244","489092","0.0-20.0-1.14","SS1604513246712","<img src='images/complex/14.png' width ='500' height = '500' style='border:5px solid black'>","40","mixed_simple_deviant","images/complex/1.png","images/complex/14.png","images/simple/3.png,images/simple/8.png,images/simple/15.png,images/simple/17.png,images/simple/18.png,images/simple/13.png,images/simple/4.png","2","null","","200","700.6800000264775","","","","background","",""
"","null","html-keyboard-response","245","490044","0.0-20.0-0.15","SS1604513246712","","null","","","","","","","","","","","","<img src=images/blank.png width =""500"" height = ""500"" style=""border:5px solid black"">","","",""
"","1640.2750000124797","stimulus-presentation","246","491895","0.0-20.0-1.15","SS1604513246712","<img src='images/complex/1.png' width ='500' height = '500' style='border:5px solid black'>","40","mixed_simple_deviant","images/complex/1.png","images/complex/14.png","images/simple/3.png,images/simple/8.png,images/simple/15.png,images/simple/17.png,images/simple/18.png,images/simple/13.png,images/simple/4.png","2","null","","200","1840.2750000124797","yes","668.5400000133086","","target","",""
"","null","html-keyboard-response","247","493066","0.0-20.0-0.16","SS1604513246712","","null","","","","","","","","","","","","<img src=images/blank.png width =""500"" height = ""500"" style=""border:5px solid black"">","","",""
"","553.6600000050385","stimulus-presentation","248","493831","0.0-20.0-1.16","SS1604513246712","<img src='images/complex/14.png' width ='500' height = '500' style='border:5px solid black'>","40","mixed_simple_deviant","images/complex/1.png","images/complex/14.png","images/simple/3.png,images/simple/8.png,images/simple/15.png,images/simple/17.png,images/simple/18.png,images/simple/13.png,images/simple/4.png","2","null","","200","753.6600000050385","","","","background","",""
"","null","html-keyboard-response","249","495064","0.0-20.0-0.17","SS1604513246712","","null","","","","","","","","","","","","<img src=images/blank.png width =""500"" height = ""500"" style=""border:5px solid black"">","","",""
"","804.1450000018813","stimulus-presentation","250","496078","0.0-20.0-1.17","SS1604513246712","<img src='images/simple/15.png' width ='500' height = '500' style='border:5px solid black'>","40","mixed_simple_deviant","images/complex/1.png","images/complex/14.png","images/simple/3.png,images/simple/8.png,images/simple/15.png,images/simple/17.png,images/simple/18.png,images/simple/13.png,images/simple/4.png","2","null","","200","1004.1450000018813","","","","deviant","",""
"","null","html-keyboard-response","251","497050","0.0-20.0-0.18","SS1604513246712","","null","","","","","","","","","","","","<img src=images/blank.png width =""500"" height = ""500"" style=""border:5px solid black"">","","",""
"","654.000000009546","stimulus-presentation","252","497915","0.0-20.0-1.18","SS1604513246712","<img src='images/complex/14.png' width ='500' height = '500' style='border:5px solid black'>","40","mixed_simple_deviant","images/complex/1.png","images/complex/14.png","images/simple/3.png,images/simple/8.png,images/simple/15.png,images/simple/17.png,images/simple/18.png,images/simple/13.png,images/simple/4.png","2","null","","200","854.000000009546","","","","background","",""
"","null","html-keyboard-response","253","498972","0.0-20.0-0.19","SS1604513246712","","null","","","","","","","","","","","","<img src=images/blank.png width =""500"" height = ""500"" style=""border:5px solid black"">","","",""
"","714.5249999884982","stimulus-presentation","254","499896","0.0-20.0-1.19","SS1604513246712","<img src='images/simple/8.png' width ='500' height = '500' style='border:5px solid black'>","40","mixed_simple_deviant","images/complex/1.png","images/complex/14.png","images/simple/3.png,images/simple/8.png,images/simple/15.png,images/simple/17.png,images/simple/18.png,images/simple/13.png,images/simple/4.png","2","null","","200","914.5249999884982","","","","deviant","",""
"","null","html-keyboard-response","255","500914","0.0-20.0-0.20","SS1604513246712","","null","","","","","","","","","","","","<img src=images/blank.png width =""500"" height = ""500"" style=""border:5px solid black"">","","",""
"","1544.304999988526","stimulus-presentation","256","502669","0.0-20.0-1.20","SS1604513246712","<img src='images/complex/1.png' width ='500' height = '500' style='border:5px solid black'>","40","mixed_simple_deviant","images/complex/1.png","images/complex/14.png","images/simple/3.png,images/simple/8.png,images/simple/15.png,images/simple/17.png,images/simple/18.png,images/simple/13.png,images/simple/4.png","2","null","","200","1744.304999988526","yes","641.3049999973737","","target","",""
"","null","html-keyboard-response","257","503764","0.0-20.0-0.21","SS1604513246712","","null","","","","","","","","","","","","<img src=images/blank.png width =""500"" height = ""500"" style=""border:5px solid black"">","","",""
"","570.6699999864213","stimulus-presentation","258","504547","0.0-20.0-1.21","SS1604513246712","<img src='images/complex/14.png' width ='500' height = '500' style='border:5px solid black'>","40","mixed_simple_deviant","images/complex/1.png","images/complex/14.png","images/simple/3.png,images/simple/8.png,images/simple/15.png,images/simple/17.png,images/simple/18.png,images/simple/13.png,images/simple/4.png","2","null","","200","770.6699999864213","","","","background","",""
"","null","html-keyboard-response","259","505449","0.0-20.0-0.22","SS1604513246712","","null","","","","","","","","","","","","<img src=images/blank.png width =""500"" height = ""500"" style=""border:5px solid black"">","","",""
"","529.5349999796599","stimulus-presentation","260","506190","0.0-20.0-1.22","SS1604513246712","<img src='images/complex/14.png' width ='500' height = '500' style='border:5px solid black'>","40","mixed_simple_deviant","images/complex/1.png","images/complex/14.png","images/simple/3.png,images/simple/8.png,images/simple/15.png,images/simple/17.png,images/simple/18.png,images/simple/13.png,images/simple/4.png","2","null","","200","729.5349999796599","","","","background","",""
"","null","html-keyboard-response","261","507468","0.0-20.0-0.23","SS1604513246712","","null","","","","","","","","","","","","<img src=images/blank.png width =""500"" height = ""500"" style=""border:5px solid black"">","","",""
"","508.2249999977648","stimulus-presentation","262","508187","0.0-20.0-1.23","SS1604513246712","<img src='images/complex/14.png' width ='500' height = '500' style='border:5px solid black'>","40","mixed_simple_deviant","images/complex/1.png","images/complex/14.png","images/simple/3.png,images/simple/8.png,images/simple/15.png,images/simple/17.png,images/simple/18.png,images/simple/13.png,images/simple/4.png","2","null","","200","708.2249999977648","","","","background","",""
"","null","html-keyboard-response","263","509416","0.0-20.0-0.24","SS1604513246712","","null","","","","","","","","","","","","<img src=images/blank.png width =""500"" height = ""500"" style=""border:5px solid black"">","","",""
"","439.3100000161212","stimulus-presentation","264","510065","0.0-20.0-1.24","SS1604513246712","<img src='images/complex/14.png' width ='500' height = '500' style='border:5px solid black'>","40","mixed_simple_deviant","images/complex/1.png","images/complex/14.png","images/simple/3.png,images/simple/8.png,images/simple/15.png,images/simple/17.png,images/simple/18.png,images/simple/13.png,images/simple/4.png","2","null","","200","639.3100000161212","","","","background","",""
"","null","html-keyboard-response","265","510888","0.0-20.0-0.25","SS1604513246712","","null","","","","","","","","","","","","<img src=images/blank.png width =""500"" height = ""500"" style=""border:5px solid black"">","","",""
"","516.4999999979045","stimulus-presentation","266","511617","0.0-20.0-1.25","SS1604513246712","<img src='images/complex/14.png' width ='500' height = '500' style='border:5px solid black'>","40","mixed_simple_deviant","images/complex/1.png","images/complex/14.png","images/simple/3.png,images/simple/8.png,images/simple/15.png,images/simple/17.png,images/simple/18.png,images/simple/13.png,images/simple/4.png","2","null","","200","716.4999999979045","","","","background","",""
"","null","html-keyboard-response","267","512877","0.0-20.0-0.26","SS1604513246712","","null","","","","","","","","","","","","<img src=images/blank.png width =""500"" height = ""500"" style=""border:5px solid black"">","","",""
"","1621.3200000056531","stimulus-presentation","268","514712","0.0-20.0-1.26","SS1604513246712","<img src='images/complex/1.png' width ='500' height = '500' style='border:5px solid black'>","40","mixed_simple_deviant","images/complex/1.png","images/complex/14.png","images/simple/3.png,images/simple/8.png,images/simple/15.png,images/simple/17.png,images/simple/18.png,images/simple/13.png,images/simple/4.png","2","null","","200","1821.3200000056531","yes","626.4599999994971","","target","",""
"","null","html-keyboard-response","269","515887","0.0-20.0-0.27","SS1604513246712","","null","","","","","","","","","","","","<img src=images/blank.png width =""500"" height = ""500"" style=""border:5px solid black"">","","",""
"","485.2899999823421","stimulus-presentation","270","516587","0.0-20.0-1.27","SS1604513246712","<img src='images/complex/14.png' width ='500' height = '500' style='border:5px solid black'>","40","mixed_simple_deviant","images/complex/1.png","images/complex/14.png","images/simple/3.png,images/simple/8.png,images/simple/15.png,images/simple/17.png,images/simple/18.png,images/simple/13.png,images/simple/4.png","2","null","","200","685.2899999823421","","","","background","",""
"","null","html-keyboard-response","271","517553","0.0-20.0-0.28","SS1604513246712","","null","","","","","","","","","","","","<img src=images/blank.png width =""500"" height = ""500"" style=""border:5px solid black"">","","",""
"","466.7450000124518","stimulus-presentation","272","518232","0.0-20.0-1.28","SS1604513246712","<img src='images/complex/14.png' width ='500' height = '500' style='border:5px solid black'>","40","mixed_simple_deviant","images/complex/1.png","images/complex/14.png","images/simple/3.png,images/simple/8.png,images/simple/15.png,images/simple/17.png,images/simple/18.png,images/simple/13.png,images/simple/4.png","2","null","","200","666.7450000124518","","","","background","",""
"","null","html-keyboard-response","273","519069","0.0-20.0-0.29","SS1604513246712","","null","","","","","","","","","","","","<img src=images/blank.png width =""500"" height = ""500"" style=""border:5px solid black"">","","",""
"","650.3450000018347","stimulus-presentation","274","519928","0.0-20.0-1.29","SS1604513246712","<img src='images/simple/4.png' width ='500' height = '500' style='border:5px solid black'>","40","mixed_simple_deviant","images/complex/1.png","images/complex/14.png","images/simple/3.png,images/simple/8.png,images/simple/15.png,images/simple/17.png,images/simple/18.png,images/simple/13.png,images/simple/4.png","2","null","","200","850.3450000018347","","","","deviant","",""
"","null","html-keyboard-response","275","520752","0.0-20.0-0.30","SS1604513246712","","null","","","","","","","","","","","","<img src=images/blank.png width =""500"" height = ""500"" style=""border:5px solid black"">","","",""
"","592.6550000149291","stimulus-presentation","276","521555","0.0-20.0-1.30","SS1604513246712","<img src='images/complex/14.png' width ='500' height = '500' style='border:5px solid black'>","40","mixed_simple_deviant","images/complex/1.png","images/complex/14.png","images/simple/3.png,images/simple/8.png,images/simple/15.png,images/simple/17.png,images/simple/18.png,images/simple/13.png,images/simple/4.png","2","null","","200","792.6550000149291","","","","background","",""
"","null","html-keyboard-response","277","522647","0.0-20.0-0.31","SS1604513246712","","null","","","","","","","","","","","","<img src=images/blank.png width =""500"" height = ""500"" style=""border:5px solid black"">","","",""
"","417.07000002497807","stimulus-presentation","278","523274","0.0-20.0-1.31","SS1604513246712","<img src='images/complex/14.png' width ='500' height = '500' style='border:5px solid black'>","40","mixed_simple_deviant","images/complex/1.png","images/complex/14.png","images/simple/3.png,images/simple/8.png,images/simple/15.png,images/simple/17.png,images/simple/18.png,images/simple/13.png,images/simple/4.png","2","null","","200","617.0700000249781","","","","background","",""
"","null","html-keyboard-response","279","524267","0.0-20.0-0.32","SS1604513246712","","null","","","","","","","","","","","","<img src=images/blank.png width =""500"" height = ""500"" style=""border:5px solid black"">","","",""
"","1402.3100000049453","stimulus-presentation","280","525882","0.0-20.0-1.32","SS1604513246712","<img src='images/complex/1.png' width ='500' height = '500' style='border:5px solid black'>","40","mixed_simple_deviant","images/complex/1.png","images/complex/14.png","images/simple/3.png,images/simple/8.png,images/simple/15.png,images/simple/17.png,images/simple/18.png,images/simple/13.png,images/simple/4.png","2","null","","200","1602.3100000049453","yes","582.9050000174902","","target","",""
"","null","html-keyboard-response","281","526771","0.0-20.0-0.33","SS1604513246712","","null","","","","","","","","","","","","<img src=images/blank.png width =""500"" height = ""500"" style=""border:5px solid black"">","","",""
"","488.75000001862645","stimulus-presentation","282","527472","0.0-20.0-1.33","SS1604513246712","<img src='images/complex/14.png' width ='500' height = '500' style='border:5px solid black'>","40","mixed_simple_deviant","images/complex/1.png","images/complex/14.png","images/simple/3.png,images/simple/8.png,images/simple/15.png,images/simple/17.png,images/simple/18.png,images/simple/13.png,images/simple/4.png","2","null","","200","688.7500000186265","","","","background","",""
"","null","html-keyboard-response","283","528445","0.0-20.0-0.34","SS1604513246712","","null","","","","","","","","","","","","<img src=images/blank.png width =""500"" height = ""500"" style=""border:5px solid black"">","","",""
"","399.41000001272187","stimulus-presentation","284","529057","0.0-20.0-1.34","SS1604513246712","<img src='images/complex/14.png' width ='500' height = '500' style='border:5px solid black'>","40","mixed_simple_deviant","images/complex/1.png","images/complex/14.png","images/simple/3.png,images/simple/8.png,images/simple/15.png,images/simple/17.png,images/simple/18.png,images/simple/13.png,images/simple/4.png","2","null","","200","599.4100000127219","","","","background","",""
