"view_history","rt","trial_type","trial_index","time_elapsed","internal_node_id","subject","trial_stimulus","key_press","task_type","task_target_stimulus","task_background_stimulus","task_deviant_stimuli","task_order_number","block_order_number","trial_order_number","minimum_viewing_duration","trial_looking_time","trial_pressed_space_bar","trial_space_bar_rt","stimulus","trial_stimulus_type","responses","question_order"
"[{""page_index"":0,""viewing_time"":42454.245000029914}]","42455.060000065714","instructions","0","42478","0.0-0.0","SS1604513391236","","","","","","","","","","","","","","","","",""
"[{""page_index"":0,""viewing_time"":9276.865000021644},{""page_index"":1,""viewing_time"":6963.739999919198},{""page_index"":2,""viewing_time"":6520.134999998845},{""page_index"":3,""viewing_time"":11307.96000000555},{""page_index"":4,""viewing_time"":9467.464999994263},{""page_index"":5,""viewing_time"":7899.975000065751},{""page_index"":6,""viewing_time"":4953.869999968447},{""page_index"":7,""viewing_time"":6001.91500002984},{""page_index"":8,""viewing_time"":2541.770000010729}]","64933.97000001278","instructions","1","107414","0.0-1.0","SS1604513391236","","","","","","","","","","","","","","","","",""
"[{""page_index"":0,""viewing_time"":5485.1699999999255},{""page_index"":1,""viewing_time"":4781.554999994114},{""page_index"":2,""viewing_time"":1841.9400000711903}]","12108.910000068136","instructions","2","119524","0.0-2.0","SS1604513391236","","","","","","","","","","","","","","","","",""
"","1057.494999957271","practice-block","3","120785","0.0-3.0","SS1604513391236","<img src='images/practice/practice_background.jpeg' width ='500' height = '500' style='border:5px solid black'>","40","null","images/practice/practice_target.jpg","null","null","null","null","","200","1257.494999957271","","","","","",""
"","null","html-keyboard-response","4","122037","0.0-4.0","SS1604513391236","","null","","","","","","","","","","","","<img src=images/blank.png width =""500"" height = ""500"" style=""border:5px solid black"">","","",""
"","401.7849999945611","practice-block","5","122655","0.0-5.0","SS1604513391236","<img src='images/practice/practice_background.jpeg' width ='500' height = '500' style='border:5px solid black'>","40","null","images/practice/practice_target.jpg","null","null","null","null","","200","601.7849999945611","","","","","",""
"","null","html-keyboard-response","6","123695","0.0-6.0","SS1604513391236","","null","","","","","","","","","","","","<img src=images/blank.png width =""500"" height = ""500"" style=""border:5px solid black"">","","",""
"","293.7199999578297","practice-block","7","124192","0.0-7.0","SS1604513391236","<img src='images/practice/practice_deviant.jpeg' width ='500' height = '500' style='border:5px solid black'>","40","null","images/practice/practice_target.jpg","null","null","null","null","","200","493.7199999578297","","","","","",""
"","null","html-keyboard-response","8","125243","0.0-8.0","SS1604513391236","","null","","","","","","","","","","","","<img src=images/blank.png width =""500"" height = ""500"" style=""border:5px solid black"">","","",""
"","4434.1199999907985","practice-block","9","129882","0.0-9.0-0.0","SS1604513391236","<img src='images/practice/practice_target.jpg' width ='500' height = '500' style='border:5px solid black'>","40","null","images/practice/practice_target.jpg","null","null","null","null","","200","4634.1199999907985","yes","224.6199999935925","","","",""
"","null","html-keyboard-response","10","131129","0.0-10.0","SS1604513391236","","null","","","","","","","","","","","","<img src=images/blank.png width =""500"" height = ""500"" style=""border:5px solid black"">","","",""
"","369.5000000298023","practice-block","11","131703","0.0-11.0","SS1604513391236","<img src='images/practice/practice_background.jpeg' width ='500' height = '500' style='border:5px solid black'>","40","null","images/practice/practice_target.jpg","null","null","null","null","","200","569.5000000298023","","","","","",""
"[{""page_index"":0,""viewing_time"":2942}]","2943","task-instructions","12","134648","0.0-12.0","SS1604513391236","","","","","","","","","","","","","","","","",""
"[{""page_index"":0,""viewing_time"":1624.4650000007823},{""page_index"":1,""viewing_time"":5006.0649999650195},{""page_index"":2,""viewing_time"":2219.535000040196}]","8850.31499993056","instructions","13","143499","0.0-13.0","SS1604513391236","","","","","","","","","","","","","","","","",""
"","null","html-keyboard-response","14","144605","0.0-14.0-0.0","SS1604513391236","","null","","","","","","","","","","","","<img src=images/blank.png width =""500"" height = ""500"" style=""border:5px solid black"">","","",""
"","744.3450000137091","stimulus-presentation","15","145568","0.0-14.0-1.0","SS1604513391236","<img src='images/complex/14.png' width ='500' height = '500' style='border:5px solid black'>","40","mixed_simple_deviant","images/complex/7.png","images/complex/14.png","images/simple/8.png,images/simple/12.png,images/simple/9.png,images/simple/4.png,images/simple/17.png,images/simple/5.png,images/simple/16.png","0","null","","200","944.3450000137091","","","","background","",""
"","null","html-keyboard-response","16","146704","0.0-14.0-0.1","SS1604513391236","","null","","","","","","","","","","","","<img src=images/blank.png width =""500"" height = ""500"" style=""border:5px solid black"">","","",""
"","245.67500001285225","stimulus-presentation","17","147167","0.0-14.0-1.1","SS1604513391236","<img src='images/complex/14.png' width ='500' height = '500' style='border:5px solid black'>","40","mixed_simple_deviant","images/complex/7.png","images/complex/14.png","images/simple/8.png,images/simple/12.png,images/simple/9.png,images/simple/4.png,images/simple/17.png,images/simple/5.png,images/simple/16.png","0","null","","200","445.67500001285225","","","","background","",""
"","null","html-keyboard-response","18","148205","0.0-14.0-0.2","SS1604513391236","","null","","","","","","","","","","","","<img src=images/blank.png width =""500"" height = ""500"" style=""border:5px solid black"">","","",""
"","287.404999951832","stimulus-presentation","19","148696","0.0-14.0-1.2","SS1604513391236","<img src='images/simple/5.png' width ='500' height = '500' style='border:5px solid black'>","40","mixed_simple_deviant","images/complex/7.png","images/complex/14.png","images/simple/8.png,images/simple/12.png,images/simple/9.png,images/simple/4.png,images/simple/17.png,images/simple/5.png,images/simple/16.png","0","null","","200","487.404999951832","","","","deviant","",""
"","null","html-keyboard-response","20","149710","0.0-14.0-0.3","SS1604513391236","","null","","","","","","","","","","","","<img src=images/blank.png width =""500"" height = ""500"" style=""border:5px solid black"">","","",""
"","1929.4900000095367","stimulus-presentation","21","151856","0.0-14.0-1.3","SS1604513391236","<img src='images/complex/7.png' width ='500' height = '500' style='border:5px solid black'>","40","mixed_simple_deviant","images/complex/7.png","images/complex/14.png","images/simple/8.png,images/simple/12.png,images/simple/9.png,images/simple/4.png,images/simple/17.png,images/simple/5.png,images/simple/16.png","0","null","","200","2129.4900000095367","","","","target","",""
"","null","html-keyboard-response","22","153041","0.0-14.0-0.4","SS1604513391236","","null","","","","","","","","","","","","<img src=images/blank.png width =""500"" height = ""500"" style=""border:5px solid black"">","","",""
"","364.10000000614673","stimulus-presentation","23","153624","0.0-14.0-1.4","SS1604513391236","<img src='images/complex/14.png' width ='500' height = '500' style='border:5px solid black'>","40","mixed_simple_deviant","images/complex/7.png","images/complex/14.png","images/simple/8.png,images/simple/12.png,images/simple/9.png,images/simple/4.png,images/simple/17.png,images/simple/5.png,images/simple/16.png","0","null","","200","564.1000000061467","","","","background","",""
"","null","html-keyboard-response","24","154482","0.0-14.0-0.5","SS1604513391236","","null","","","","","","","","","","","","<img src=images/blank.png width =""500"" height = ""500"" style=""border:5px solid black"">","","",""
"","211.32500004023314","stimulus-presentation","25","154912","0.0-14.0-1.5","SS1604513391236","<img src='images/complex/14.png' width ='500' height = '500' style='border:5px solid black'>","40","mixed_simple_deviant","images/complex/7.png","images/complex/14.png","images/simple/8.png,images/simple/12.png,images/simple/9.png,images/simple/4.png,images/simple/17.png,images/simple/5.png,images/simple/16.png","0","null","","200","411.32500004023314","","","","background","",""
"","null","html-keyboard-response","26","155890","0.0-14.0-0.6","SS1604513391236","","null","","","","","","","","","","","","<img src=images/blank.png width =""500"" height = ""500"" style=""border:5px solid black"">","","",""
"","4376.720000058413","stimulus-presentation","27","160471","0.0-14.0-1.6","SS1604513391236","<img src='images/complex/7.png' width ='500' height = '500' style='border:5px solid black'>","40","mixed_simple_deviant","images/complex/7.png","images/complex/14.png","images/simple/8.png,images/simple/12.png,images/simple/9.png,images/simple/4.png,images/simple/17.png,images/simple/5.png,images/simple/16.png","0","null","","200","4576.720000058413","yes","497.0800000010058","","target","",""
"","null","html-keyboard-response","28","161695","0.0-14.0-0.7","SS1604513391236","","null","","","","","","","","","","","","<img src=images/blank.png width =""500"" height = ""500"" style=""border:5px solid black"">","","",""
"","1166.5500000817701","stimulus-presentation","29","163072","0.0-14.0-1.7","SS1604513391236","<img src='images/complex/7.png' width ='500' height = '500' style='border:5px solid black'>","40","mixed_simple_deviant","images/complex/7.png","images/complex/14.png","images/simple/8.png,images/simple/12.png,images/simple/9.png,images/simple/4.png,images/simple/17.png,images/simple/5.png,images/simple/16.png","0","null","","200","1366.5500000817701","yes","376.00000004749745","","target","",""
"","null","html-keyboard-response","30","164285","0.0-14.0-0.8","SS1604513391236","","null","","","","","","","","","","","","<img src=images/blank.png width =""500"" height = ""500"" style=""border:5px solid black"">","","",""
"","391.5300000226125","stimulus-presentation","31","164896","0.0-14.0-1.8","SS1604513391236","<img src='images/complex/14.png' width ='500' height = '500' style='border:5px solid black'>","40","mixed_simple_deviant","images/complex/7.png","images/complex/14.png","images/simple/8.png,images/simple/12.png,images/simple/9.png,images/simple/4.png,images/simple/17.png,images/simple/5.png,images/simple/16.png","0","null","","200","591.5300000226125","","","","background","",""
"","null","html-keyboard-response","32","166195","0.0-14.0-0.9","SS1604513391236","","null","","","","","","","","","","","","<img src=images/blank.png width =""500"" height = ""500"" style=""border:5px solid black"">","","",""
"","195.04999998025596","stimulus-presentation","33","166607","0.0-14.0-1.9","SS1604513391236","<img src='images/complex/14.png' width ='500' height = '500' style='border:5px solid black'>","40","mixed_simple_deviant","images/complex/7.png","images/complex/14.png","images/simple/8.png,images/simple/12.png,images/simple/9.png,images/simple/4.png,images/simple/17.png,images/simple/5.png,images/simple/16.png","0","null","","200","395.04999998025596","","","","background","",""
"","null","html-keyboard-response","34","167898","0.0-14.0-0.10","SS1604513391236","","null","","","","","","","","","","","","<img src=images/blank.png width =""500"" height = ""500"" style=""border:5px solid black"">","","",""
"","307.34499997925013","stimulus-presentation","35","168423","0.0-14.0-1.10","SS1604513391236","<img src='images/simple/8.png' width ='500' height = '500' style='border:5px solid black'>","40","mixed_simple_deviant","images/complex/7.png","images/complex/14.png","images/simple/8.png,images/simple/12.png,images/simple/9.png,images/simple/4.png,images/simple/17.png,images/simple/5.png,images/simple/16.png","0","null","","200","507.34499997925013","","","","deviant","",""
"","null","html-keyboard-response","36","169638","0.0-14.0-0.11","SS1604513391236","","null","","","","","","","","","","","","<img src=images/blank.png width =""500"" height = ""500"" style=""border:5px solid black"">","","",""
"","307.2150000371039","stimulus-presentation","37","170160","0.0-14.0-1.11","SS1604513391236","<img src='images/complex/14.png' width ='500' height = '500' style='border:5px solid black'>","40","mixed_simple_deviant","images/complex/7.png","images/complex/14.png","images/simple/8.png,images/simple/12.png,images/simple/9.png,images/simple/4.png,images/simple/17.png,images/simple/5.png,images/simple/16.png","0","null","","200","507.2150000371039","","","","background","",""
"","null","html-keyboard-response","38","171436","0.0-14.0-0.12","SS1604513391236","","null","","","","","","","","","","","","<img src=images/blank.png width =""500"" height = ""500"" style=""border:5px solid black"">","","",""
"","307.52999999094754","stimulus-presentation","39","171951","0.0-14.0-1.12","SS1604513391236","<img src='images/complex/14.png' width ='500' height = '500' style='border:5px solid black'>","40","mixed_simple_deviant","images/complex/7.png","images/complex/14.png","images/simple/8.png,images/simple/12.png,images/simple/9.png,images/simple/4.png,images/simple/17.png,images/simple/5.png,images/simple/16.png","0","null","","200","507.52999999094754","","","","background","",""
"","null","html-keyboard-response","40","173239","0.0-14.0-0.13","SS1604513391236","","null","","","","","","","","","","","","<img src=images/blank.png width =""500"" height = ""500"" style=""border:5px solid black"">","","",""
"","201.9000001018867","stimulus-presentation","41","173657","0.0-14.0-1.13","SS1604513391236","<img src='images/complex/14.png' width ='500' height = '500' style='border:5px solid black'>","40","mixed_simple_deviant","images/complex/7.png","images/complex/14.png","images/simple/8.png,images/simple/12.png,images/simple/9.png,images/simple/4.png,images/simple/17.png,images/simple/5.png,images/simple/16.png","0","null","","200","401.9000001018867","","","","background","",""
"","null","html-keyboard-response","42","174854","0.0-14.0-0.14","SS1604513391236","","null","","","","","","","","","","","","<img src=images/blank.png width =""500"" height = ""500"" style=""border:5px solid black"">","","",""
"","237.80999996233732","stimulus-presentation","43","175295","0.0-14.0-1.14","SS1604513391236","<img src='images/complex/14.png' width ='500' height = '500' style='border:5px solid black'>","40","mixed_simple_deviant","images/complex/7.png","images/complex/14.png","images/simple/8.png,images/simple/12.png,images/simple/9.png,images/simple/4.png,images/simple/17.png,images/simple/5.png,images/simple/16.png","0","null","","200","437.8099999623373","","","","background","",""
"","null","html-keyboard-response","44","176431","0.0-14.0-0.15","SS1604513391236","","null","","","","","","","","","","","","<img src=images/blank.png width =""500"" height = ""500"" style=""border:5px solid black"">","","",""
"","196.92500005476177","stimulus-presentation","45","176833","0.0-14.0-1.15","SS1604513391236","<img src='images/complex/14.png' width ='500' height = '500' style='border:5px solid black'>","40","mixed_simple_deviant","images/complex/7.png","images/complex/14.png","images/simple/8.png,images/simple/12.png,images/simple/9.png,images/simple/4.png,images/simple/17.png,images/simple/5.png,images/simple/16.png","0","null","","200","396.92500005476177","","","","background","",""
"","null","html-keyboard-response","46","177818","0.0-14.0-0.16","SS1604513391236","","null","","","","","","","","","","","","<img src=images/blank.png width =""500"" height = ""500"" style=""border:5px solid black"">","","",""
"","211.0800000373274","stimulus-presentation","47","178247","0.0-14.0-1.16","SS1604513391236","<img src='images/complex/14.png' width ='500' height = '500' style='border:5px solid black'>","40","mixed_simple_deviant","images/complex/7.png","images/complex/14.png","images/simple/8.png,images/simple/12.png,images/simple/9.png,images/simple/4.png,images/simple/17.png,images/simple/5.png,images/simple/16.png","0","null","","200","411.0800000373274","","","","background","",""
"","null","html-keyboard-response","48","179117","0.0-14.0-0.17","SS1604513391236","","null","","","","","","","","","","","","<img src=images/blank.png width =""500"" height = ""500"" style=""border:5px solid black"">","","",""
"","480.2549999440089","stimulus-presentation","49","179815","0.0-14.0-1.17","SS1604513391236","<img src='images/simple/16.png' width ='500' height = '500' style='border:5px solid black'>","40","mixed_simple_deviant","images/complex/7.png","images/complex/14.png","images/simple/8.png,images/simple/12.png,images/simple/9.png,images/simple/4.png,images/simple/17.png,images/simple/5.png,images/simple/16.png","0","null","","200","680.2549999440089","","","","deviant","",""
"","null","html-keyboard-response","50","180859","0.0-14.0-0.18","SS1604513391236","","null","","","","","","","","","","","","<img src=images/blank.png width =""500"" height = ""500"" style=""border:5px solid black"">","","",""
"","999.2649999912828","stimulus-presentation","51","182063","0.0-14.0-1.18","SS1604513391236","<img src='images/complex/7.png' width ='500' height = '500' style='border:5px solid black'>","40","mixed_simple_deviant","images/complex/7.png","images/complex/14.png","images/simple/8.png,images/simple/12.png,images/simple/9.png,images/simple/4.png,images/simple/17.png,images/simple/5.png,images/simple/16.png","0","null","","200","1199.2649999912828","yes","255.30499999877065","","target","",""
"","null","html-keyboard-response","52","183241","0.0-14.0-0.19","SS1604513391236","","null","","","","","","","","","","","","<img src=images/blank.png width =""500"" height = ""500"" style=""border:5px solid black"">","","",""
"","212.18000003136694","stimulus-presentation","53","183672","0.0-14.0-1.19","SS1604513391236","<img src='images/complex/14.png' width ='500' height = '500' style='border:5px solid black'>","40","mixed_simple_deviant","images/complex/7.png","images/complex/14.png","images/simple/8.png,images/simple/12.png,images/simple/9.png,images/simple/4.png,images/simple/17.png,images/simple/5.png,images/simple/16.png","0","null","","200","412.18000003136694","","","","background","",""
"","null","html-keyboard-response","54","184505","0.0-14.0-0.20","SS1604513391236","","null","","","","","","","","","","","","<img src=images/blank.png width =""500"" height = ""500"" style=""border:5px solid black"">","","",""
"","1043.1549999630079","stimulus-presentation","55","185767","0.0-14.0-1.20","SS1604513391236","<img src='images/complex/7.png' width ='500' height = '500' style='border:5px solid black'>","40","mixed_simple_deviant","images/complex/7.png","images/complex/14.png","images/simple/8.png,images/simple/12.png,images/simple/9.png,images/simple/4.png,images/simple/17.png,images/simple/5.png,images/simple/16.png","0","null","","200","1243.1549999630079","yes","323.54000001214445","","target","",""
"","null","html-keyboard-response","56","186754","0.0-14.0-0.21","SS1604513391236","","null","","","","","","","","","","","","<img src=images/blank.png width =""500"" height = ""500"" style=""border:5px solid black"">","","",""
"","199.97499999590218","stimulus-presentation","57","187159","0.0-14.0-1.21","SS1604513391236","<img src='images/complex/14.png' width ='500' height = '500' style='border:5px solid black'>","40","mixed_simple_deviant","images/complex/7.png","images/complex/14.png","images/simple/8.png,images/simple/12.png,images/simple/9.png,images/simple/4.png,images/simple/17.png,images/simple/5.png,images/simple/16.png","0","null","","200","399.9749999959022","","","","background","",""
"","null","html-keyboard-response","58","188378","0.0-14.0-0.22","SS1604513391236","","null","","","","","","","","","","","","<img src=images/blank.png width =""500"" height = ""500"" style=""border:5px solid black"">","","",""
"","271.9900000374764","stimulus-presentation","59","188855","0.0-14.0-1.22","SS1604513391236","<img src='images/complex/14.png' width ='500' height = '500' style='border:5px solid black'>","40","mixed_simple_deviant","images/complex/7.png","images/complex/14.png","images/simple/8.png,images/simple/12.png,images/simple/9.png,images/simple/4.png,images/simple/17.png,images/simple/5.png,images/simple/16.png","0","null","","200","471.9900000374764","","","","background","",""
"","null","html-keyboard-response","60","189755","0.0-14.0-0.23","SS1604513391236","","null","","","","","","","","","","","","<img src=images/blank.png width =""500"" height = ""500"" style=""border:5px solid black"">","","",""
"","165.804999996908","stimulus-presentation","61","190126","0.0-14.0-1.23","SS1604513391236","<img src='images/complex/14.png' width ='500' height = '500' style='border:5px solid black'>","40","mixed_simple_deviant","images/complex/7.png","images/complex/14.png","images/simple/8.png,images/simple/12.png,images/simple/9.png,images/simple/4.png,images/simple/17.png,images/simple/5.png,images/simple/16.png","0","null","","200","365.804999996908","","","","background","",""
"","null","html-keyboard-response","62","191366","0.0-14.0-0.24","SS1604513391236","","null","","","","","","","","","","","","<img src=images/blank.png width =""500"" height = ""500"" style=""border:5px solid black"">","","",""
"","1360.5749999405816","stimulus-presentation","63","192943","0.0-14.0-1.24","SS1604513391236","<img src='images/complex/7.png' width ='500' height = '500' style='border:5px solid black'>","40","mixed_simple_deviant","images/complex/7.png","images/complex/14.png","images/simple/8.png,images/simple/12.png,images/simple/9.png,images/simple/4.png,images/simple/17.png,images/simple/5.png,images/simple/16.png","0","null","","200","1560.5749999405816","yes","303.97000000812113","","target","",""
"","null","html-keyboard-response","64","193887","0.0-14.0-0.25","SS1604513391236","","null","","","","","","","","","","","","<img src=images/blank.png width =""500"" height = ""500"" style=""border:5px solid black"">","","",""
"","365.0950000155717","stimulus-presentation","65","194456","0.0-14.0-1.25","SS1604513391236","<img src='images/simple/9.png' width ='500' height = '500' style='border:5px solid black'>","40","mixed_simple_deviant","images/complex/7.png","images/complex/14.png","images/simple/8.png,images/simple/12.png,images/simple/9.png,images/simple/4.png,images/simple/17.png,images/simple/5.png,images/simple/16.png","0","null","","200","565.0950000155717","","","","deviant","",""
"","null","html-keyboard-response","66","195266","0.0-14.0-0.26","SS1604513391236","","null","","","","","","","","","","","","<img src=images/blank.png width =""500"" height = ""500"" style=""border:5px solid black"">","","",""
"","177.55500006023794","stimulus-presentation","67","195663","0.0-14.0-1.26","SS1604513391236","<img src='images/complex/14.png' width ='500' height = '500' style='border:5px solid black'>","40","mixed_simple_deviant","images/complex/7.png","images/complex/14.png","images/simple/8.png,images/simple/12.png,images/simple/9.png,images/simple/4.png,images/simple/17.png,images/simple/5.png,images/simple/16.png","0","null","","200","377.55500006023794","","","","background","",""
"","null","html-keyboard-response","68","196647","0.0-14.0-0.27","SS1604513391236","","null","","","","","","","","","","","","<img src=images/blank.png width =""500"" height = ""500"" style=""border:5px solid black"">","","",""
"","250.83000003360212","stimulus-presentation","69","197111","0.0-14.0-1.27","SS1604513391236","<img src='images/complex/14.png' width ='500' height = '500' style='border:5px solid black'>","40","mixed_simple_deviant","images/complex/7.png","images/complex/14.png","images/simple/8.png,images/simple/12.png,images/simple/9.png,images/simple/4.png,images/simple/17.png,images/simple/5.png,images/simple/16.png","0","null","","200","450.8300000336021","","","","background","",""
"","null","html-keyboard-response","70","198248","0.0-14.0-0.28","SS1604513391236","","null","","","","","","","","","","","","<img src=images/blank.png width =""500"" height = ""500"" style=""border:5px solid black"">","","",""
"","221.59999993164092","stimulus-presentation","71","198687","0.0-14.0-1.28","SS1604513391236","<img src='images/complex/14.png' width ='500' height = '500' style='border:5px solid black'>","40","mixed_simple_deviant","images/complex/7.png","images/complex/14.png","images/simple/8.png,images/simple/12.png,images/simple/9.png,images/simple/4.png,images/simple/17.png,images/simple/5.png,images/simple/16.png","0","null","","200","421.5999999316409","","","","background","",""
"","null","html-keyboard-response","72","199743","0.0-14.0-0.29","SS1604513391236","","null","","","","","","","","","","","","<img src=images/blank.png width =""500"" height = ""500"" style=""border:5px solid black"">","","",""
"","212.11500000208616","stimulus-presentation","73","200159","0.0-14.0-1.29","SS1604513391236","<img src='images/complex/14.png' width ='500' height = '500' style='border:5px solid black'>","40","mixed_simple_deviant","images/complex/7.png","images/complex/14.png","images/simple/8.png,images/simple/12.png,images/simple/9.png,images/simple/4.png,images/simple/17.png,images/simple/5.png,images/simple/16.png","0","null","","200","412.11500000208616","","","","background","",""
"","null","html-keyboard-response","74","201068","0.0-14.0-0.30","SS1604513391236","","null","","","","","","","","","","","","<img src=images/blank.png width =""500"" height = ""500"" style=""border:5px solid black"">","","",""
"","290.24500004015863","stimulus-presentation","75","201575","0.0-14.0-1.30","SS1604513391236","<img src='images/simple/17.png' width ='500' height = '500' style='border:5px solid black'>","40","mixed_simple_deviant","images/complex/7.png","images/complex/14.png","images/simple/8.png,images/simple/12.png,images/simple/9.png,images/simple/4.png,images/simple/17.png,images/simple/5.png,images/simple/16.png","0","null","","200","490.24500004015863","","","","deviant","",""
"","null","html-keyboard-response","76","202692","0.0-14.0-0.31","SS1604513391236","","null","","","","","","","","","","","","<img src=images/blank.png width =""500"" height = ""500"" style=""border:5px solid black"">","","",""
"","160.66000005230308","stimulus-presentation","77","203072","0.0-14.0-1.31","SS1604513391236","<img src='images/complex/14.png' width ='500' height = '500' style='border:5px solid black'>","40","mixed_simple_deviant","images/complex/7.png","images/complex/14.png","images/simple/8.png,images/simple/12.png,images/simple/9.png,images/simple/4.png,images/simple/17.png,images/simple/5.png,images/simple/16.png","0","null","","200","360.6600000523031","","","","background","",""
"","null","html-keyboard-response","78","204170","0.0-14.0-0.32","SS1604513391236","","null","","","","","","","","","","","","<img src=images/blank.png width =""500"" height = ""500"" style=""border:5px solid black"">","","",""
"","172.7549999486655","stimulus-presentation","79","204561","0.0-14.0-1.32","SS1604513391236","<img src='images/complex/14.png' width ='500' height = '500' style='border:5px solid black'>","40","mixed_simple_deviant","images/complex/7.png","images/complex/14.png","images/simple/8.png,images/simple/12.png,images/simple/9.png,images/simple/4.png,images/simple/17.png,images/simple/5.png,images/simple/16.png","0","null","","200","372.7549999486655","","","","background","",""
"","null","html-keyboard-response","80","205387","0.0-14.0-0.33","SS1604513391236","","null","","","","","","","","","","","","<img src=images/blank.png width =""500"" height = ""500"" style=""border:5px solid black"">","","",""
"","169.86999998334795","stimulus-presentation","81","205774","0.0-14.0-1.33","SS1604513391236","<img src='images/complex/14.png' width ='500' height = '500' style='border:5px solid black'>","40","mixed_simple_deviant","images/complex/7.png","images/complex/14.png","images/simple/8.png,images/simple/12.png,images/simple/9.png,images/simple/4.png,images/simple/17.png,images/simple/5.png,images/simple/16.png","0","null","","200","369.86999998334795","","","","background","",""
"","null","html-keyboard-response","82","206677","0.0-14.0-0.34","SS1604513391236","","null","","","","","","","","","","","","<img src=images/blank.png width =""500"" height = ""500"" style=""border:5px solid black"">","","",""
"","159.9250000435859","stimulus-presentation","83","207055","0.0-14.0-1.34","SS1604513391236","<img src='images/complex/14.png' width ='500' height = '500' style='border:5px solid black'>","40","mixed_simple_deviant","images/complex/7.png","images/complex/14.png","images/simple/8.png,images/simple/12.png,images/simple/9.png,images/simple/4.png,images/simple/17.png,images/simple/5.png,images/simple/16.png","0","null","","200","359.9250000435859","","","","background","",""
"","null","html-keyboard-response","84","208143","0.0-14.0-0.35","SS1604513391236","","null","","","","","","","","","","","","<img src=images/blank.png width =""500"" height = ""500"" style=""border:5px solid black"">","","",""
"","189.60500007960945","stimulus-presentation","85","208551","0.0-14.0-1.35","SS1604513391236","<img src='images/complex/14.png' width ='500' height = '500' style='border:5px solid black'>","40","mixed_simple_deviant","images/complex/7.png","images/complex/14.png","images/simple/8.png,images/simple/12.png,images/simple/9.png,images/simple/4.png,images/simple/17.png,images/simple/5.png,images/simple/16.png","0","null","","200","389.60500007960945","","","","background","",""
"","null","html-keyboard-response","86","209494","0.0-14.0-0.36","SS1604513391236","","null","","","","","","","","","","","","<img src=images/blank.png width =""500"" height = ""500"" style=""border:5px solid black"">","","",""
"","150.28499998152256","stimulus-presentation","87","209863","0.0-14.0-1.36","SS1604513391236","<img src='images/complex/14.png' width ='500' height = '500' style='border:5px solid black'>","40","mixed_simple_deviant","images/complex/7.png","images/complex/14.png","images/simple/8.png,images/simple/12.png,images/simple/9.png,images/simple/4.png,images/simple/17.png,images/simple/5.png,images/simple/16.png","0","null","","200","350.28499998152256","","","","background","",""
"","null","html-keyboard-response","88","211148","0.0-14.0-0.37","SS1604513391236","","null","","","","","","","","","","","","<img src=images/blank.png width =""500"" height = ""500"" style=""border:5px solid black"">","","",""
"","1079.3500000145286","stimulus-presentation","89","212446","0.0-14.0-1.37","SS1604513391236","<img src='images/complex/7.png' width ='500' height = '500' style='border:5px solid black'>","40","mixed_simple_deviant","images/complex/7.png","images/complex/14.png","images/simple/8.png,images/simple/12.png,images/simple/9.png,images/simple/4.png,images/simple/17.png,images/simple/5.png,images/simple/16.png","0","null","","200","1279.3500000145286","yes","375.31499995384365","","target","",""
"","null","html-keyboard-response","90","213312","0.0-14.0-0.38","SS1604513391236","","null","","","","","","","","","","","","<img src=images/blank.png width =""500"" height = ""500"" style=""border:5px solid black"">","","",""
"","139.48000001255423","stimulus-presentation","91","213671","0.0-14.0-1.38","SS1604513391236","<img src='images/complex/14.png' width ='500' height = '500' style='border:5px solid black'>","40","mixed_simple_deviant","images/complex/7.png","images/complex/14.png","images/simple/8.png,images/simple/12.png,images/simple/9.png,images/simple/4.png,images/simple/17.png,images/simple/5.png,images/simple/16.png","0","null","","200","339.4800000125542","","","","background","",""
"","null","html-keyboard-response","92","214484","0.0-14.0-0.39","SS1604513391236","","null","","","","","","","","","","","","<img src=images/blank.png width =""500"" height = ""500"" style=""border:5px solid black"">","","",""
"","147.14999997522682","stimulus-presentation","93","214847","0.0-14.0-1.39","SS1604513391236","<img src='images/complex/14.png' width ='500' height = '500' style='border:5px solid black'>","40","mixed_simple_deviant","images/complex/7.png","images/complex/14.png","images/simple/8.png,images/simple/12.png,images/simple/9.png,images/simple/4.png,images/simple/17.png,images/simple/5.png,images/simple/16.png","0","null","","200","347.1499999752268","","","","background","",""
"","null","html-keyboard-response","94","216087","0.0-14.0-0.40","SS1604513391236","","null","","","","","","","","","","","","<img src=images/blank.png width =""500"" height = ""500"" style=""border:5px solid black"">","","",""
"","181.08499993104488","stimulus-presentation","95","216486","0.0-14.0-1.40","SS1604513391236","<img src='images/complex/14.png' width ='500' height = '500' style='border:5px solid black'>","40","mixed_simple_deviant","images/complex/7.png","images/complex/14.png","images/simple/8.png,images/simple/12.png,images/simple/9.png,images/simple/4.png,images/simple/17.png,images/simple/5.png,images/simple/16.png","0","null","","200","381.0849999310449","","","","background","",""
"","null","html-keyboard-response","96","217493","0.0-14.0-0.41","SS1604513391236","","null","","","","","","","","","","","","<img src=images/blank.png width =""500"" height = ""500"" style=""border:5px solid black"">","","",""
"","565.4799999902025","stimulus-presentation","97","218278","0.0-14.0-1.41","SS1604513391236","<img src='images/simple/12.png' width ='500' height = '500' style='border:5px solid black'>","40","mixed_simple_deviant","images/complex/7.png","images/complex/14.png","images/simple/8.png,images/simple/12.png,images/simple/9.png,images/simple/4.png,images/simple/17.png,images/simple/5.png,images/simple/16.png","0","null","","200","765.4799999902025","","","","deviant","",""
"","null","html-keyboard-response","98","219310","0.0-14.0-0.42","SS1604513391236","","null","","","","","","","","","","","","<img src=images/blank.png width =""500"" height = ""500"" style=""border:5px solid black"">","","",""
"","221.75000002607703","stimulus-presentation","99","219751","0.0-14.0-1.42","SS1604513391236","<img src='images/complex/14.png' width ='500' height = '500' style='border:5px solid black'>","40","mixed_simple_deviant","images/complex/7.png","images/complex/14.png","images/simple/8.png,images/simple/12.png,images/simple/9.png,images/simple/4.png,images/simple/17.png,images/simple/5.png,images/simple/16.png","0","null","","200","421.75000002607703","","","","background","",""
"","null","html-keyboard-response","100","220663","0.0-14.0-0.43","SS1604513391236","","null","","","","","","","","","","","","<img src=images/blank.png width =""500"" height = ""500"" style=""border:5px solid black"">","","",""
"","159.76499998942018","stimulus-presentation","101","221039","0.0-14.0-1.43","SS1604513391236","<img src='images/complex/14.png' width ='500' height = '500' style='border:5px solid black'>","40","mixed_simple_deviant","images/complex/7.png","images/complex/14.png","images/simple/8.png,images/simple/12.png,images/simple/9.png,images/simple/4.png,images/simple/17.png,images/simple/5.png,images/simple/16.png","0","null","","200","359.7649999894202","","","","background","",""
"","null","html-keyboard-response","102","221913","0.0-14.0-0.44","SS1604513391236","","null","","","","","","","","","","","","<img src=images/blank.png width =""500"" height = ""500"" style=""border:5px solid black"">","","",""
"","247.9649999877438","stimulus-presentation","103","222366","0.0-14.0-1.44","SS1604513391236","<img src='images/complex/14.png' width ='500' height = '500' style='border:5px solid black'>","40","mixed_simple_deviant","images/complex/7.png","images/complex/14.png","images/simple/8.png,images/simple/12.png,images/simple/9.png,images/simple/4.png,images/simple/17.png,images/simple/5.png,images/simple/16.png","0","null","","200","447.9649999877438","","","","background","",""
"","null","html-keyboard-response","104","223546","0.0-14.0-0.45","SS1604513391236","","null","","","","","","","","","","","","<img src=images/blank.png width =""500"" height = ""500"" style=""border:5px solid black"">","","",""
"","305.1050000358373","stimulus-presentation","105","224071","0.0-14.0-1.45","SS1604513391236","<img src='images/simple/4.png' width ='500' height = '500' style='border:5px solid black'>","40","mixed_simple_deviant","images/complex/7.png","images/complex/14.png","images/simple/8.png,images/simple/12.png,images/simple/9.png,images/simple/4.png,images/simple/17.png,images/simple/5.png,images/simple/16.png","0","null","","200","505.1050000358373","","","","deviant","",""
"","null","html-keyboard-response","106","225106","0.0-14.0-0.46","SS1604513391236","","null","","","","","","","","","","","","<img src=images/blank.png width =""500"" height = ""500"" style=""border:5px solid black"">","","",""
"","202.19000009819865","stimulus-presentation","107","225512","0.0-14.0-1.46","SS1604513391236","<img src='images/complex/14.png' width ='500' height = '500' style='border:5px solid black'>","40","mixed_simple_deviant","images/complex/7.png","images/complex/14.png","images/simple/8.png,images/simple/12.png,images/simple/9.png,images/simple/4.png,images/simple/17.png,images/simple/5.png,images/simple/16.png","0","null","","200","402.19000009819865","","","","background","",""
"","null","html-keyboard-response","108","226679","0.0-14.0-0.47","SS1604513391236","","null","","","","","","","","","","","","<img src=images/blank.png width =""500"" height = ""500"" style=""border:5px solid black"">","","",""
"","357.5000000419095","stimulus-presentation","109","227254","0.0-14.0-1.47","SS1604513391236","<img src='images/complex/14.png' width ='500' height = '500' style='border:5px solid black'>","40","mixed_simple_deviant","images/complex/7.png","images/complex/14.png","images/simple/8.png,images/simple/12.png,images/simple/9.png,images/simple/4.png,images/simple/17.png,images/simple/5.png,images/simple/16.png","0","null","","200","557.5000000419095","","","","background","",""
"","null","html-keyboard-response","110","228393","0.0-14.0-0.48","SS1604513391236","","null","","","","","","","","","","","","<img src=images/blank.png width =""500"" height = ""500"" style=""border:5px solid black"">","","",""
"","619.5900000166148","stimulus-presentation","111","229231","0.0-14.0-1.48","SS1604513391236","<img src='images/complex/14.png' width ='500' height = '500' style='border:5px solid black'>","40","mixed_simple_deviant","images/complex/7.png","images/complex/14.png","images/simple/8.png,images/simple/12.png,images/simple/9.png,images/simple/4.png,images/simple/17.png,images/simple/5.png,images/simple/16.png","0","null","","200","819.5900000166148","","","","background","",""
"[{""page_index"":0,""viewing_time"":4779}]","4779","task-instructions","112","234014","0.0-15.0","SS1604513391236","","","","","","","","","","","","","","","","",""
"[{""page_index"":0,""viewing_time"":5899.055000045337},{""page_index"":1,""viewing_time"":6826.069999951869},{""page_index"":2,""viewing_time"":1294.3900000536814}]","14019.824999966659","instructions","113","248037","0.0-16.0","SS1604513391236","","","","","","","","","","","","","","","","",""
"","null","html-keyboard-response","114","248947","0.0-17.0-0.0","SS1604513391236","","null","","","","","","","","","","","","<img src=images/blank.png width =""500"" height = ""500"" style=""border:5px solid black"">","","",""
"","632.964999997057","stimulus-presentation","115","249799","0.0-17.0-1.0","SS1604513391236","<img src='images/complex/8.png' width ='500' height = '500' style='border:5px solid black'>","40","all_complex","images/complex/17.png","images/complex/8.png","images/complex/11.png,images/complex/2.png,images/complex/6.png,images/complex/1.png,images/complex/4.png,images/complex/18.png,images/complex/10.png","1","null","","200","832.964999997057","","","","background","",""
"","null","html-keyboard-response","116","251033","0.0-17.0-0.1","SS1604513391236","","null","","","","","","","","","","","","<img src=images/blank.png width =""500"" height = ""500"" style=""border:5px solid black"">","","",""
"","263.94500001333654","stimulus-presentation","117","251503","0.0-17.0-1.1","SS1604513391236","<img src='images/complex/2.png' width ='500' height = '500' style='border:5px solid black'>","40","all_complex","images/complex/17.png","images/complex/8.png","images/complex/11.png,images/complex/2.png,images/complex/6.png,images/complex/1.png,images/complex/4.png,images/complex/18.png,images/complex/10.png","1","null","","200","463.94500001333654","","","","deviant","",""
"","null","html-keyboard-response","118","252428","0.0-17.0-0.2","SS1604513391236","","null","","","","","","","","","","","","<img src=images/blank.png width =""500"" height = ""500"" style=""border:5px solid black"">","","",""
"","254.57499991171062","stimulus-presentation","119","252887","0.0-17.0-1.2","SS1604513391236","<img src='images/complex/8.png' width ='500' height = '500' style='border:5px solid black'>","40","all_complex","images/complex/17.png","images/complex/8.png","images/complex/11.png,images/complex/2.png,images/complex/6.png,images/complex/1.png,images/complex/4.png,images/complex/18.png,images/complex/10.png","1","null","","200","454.5749999117106","","","","background","",""
"","null","html-keyboard-response","120","254157","0.0-17.0-0.3","SS1604513391236","","null","","","","","","","","","","","","<img src=images/blank.png width =""500"" height = ""500"" style=""border:5px solid black"">","","",""
"","361.8899999419227","stimulus-presentation","121","254735","0.0-17.0-1.3","SS1604513391236","<img src='images/complex/8.png' width ='500' height = '500' style='border:5px solid black'>","40","all_complex","images/complex/17.png","images/complex/8.png","images/complex/11.png,images/complex/2.png,images/complex/6.png,images/complex/1.png,images/complex/4.png,images/complex/18.png,images/complex/10.png","1","null","","200","561.8899999419227","","","","background","",""
"","null","html-keyboard-response","122","255903","0.0-17.0-0.4","SS1604513391236","","null","","","","","","","","","","","","<img src=images/blank.png width =""500"" height = ""500"" style=""border:5px solid black"">","","",""
"","182.29499994777143","stimulus-presentation","123","256303","0.0-17.0-1.4","SS1604513391236","<img src='images/complex/8.png' width ='500' height = '500' style='border:5px solid black'>","40","all_complex","images/complex/17.png","images/complex/8.png","images/complex/11.png,images/complex/2.png,images/complex/6.png,images/complex/1.png,images/complex/4.png,images/complex/18.png,images/complex/10.png","1","null","","200","382.29499994777143","","","","background","",""
"","null","html-keyboard-response","124","257197","0.0-17.0-0.5","SS1604513391236","","null","","","","","","","","","","","","<img src=images/blank.png width =""500"" height = ""500"" style=""border:5px solid black"">","","",""
"","1309.9550000624731","stimulus-presentation","125","258711","0.0-17.0-1.5","SS1604513391236","<img src='images/complex/17.png' width ='500' height = '500' style='border:5px solid black'>","40","all_complex","images/complex/17.png","images/complex/8.png","images/complex/11.png,images/complex/2.png,images/complex/6.png,images/complex/1.png,images/complex/4.png,images/complex/18.png,images/complex/10.png","1","null","","200","1509.9550000624731","yes","398.0250000022352","","target","",""
"","null","html-keyboard-response","126","259969","0.0-17.0-0.6","SS1604513391236","","null","","","","","","","","","","","","<img src=images/blank.png width =""500"" height = ""500"" style=""border:5px solid black"">","","",""
"","243.60499996691942","stimulus-presentation","127","260423","0.0-17.0-1.6","SS1604513391236","<img src='images/complex/18.png' width ='500' height = '500' style='border:5px solid black'>","40","all_complex","images/complex/17.png","images/complex/8.png","images/complex/11.png,images/complex/2.png,images/complex/6.png,images/complex/1.png,images/complex/4.png,images/complex/18.png,images/complex/10.png","1","null","","200","443.6049999669194","","","","deviant","",""
"","null","html-keyboard-response","128","261356","0.0-17.0-0.7","SS1604513391236","","null","","","","","","","","","","","","<img src=images/blank.png width =""500"" height = ""500"" style=""border:5px solid black"">","","",""
"","1063.700000056997","stimulus-presentation","129","262639","0.0-17.0-1.7","SS1604513391236","<img src='images/complex/17.png' width ='500' height = '500' style='border:5px solid black'>","40","all_complex","images/complex/17.png","images/complex/8.png","images/complex/11.png,images/complex/2.png,images/complex/6.png,images/complex/1.png,images/complex/4.png,images/complex/18.png,images/complex/10.png","1","null","","200","1263.700000056997","yes","295.16000009607524","","target","",""
"","null","html-keyboard-response","130","263845","0.0-17.0-0.8","SS1604513391236","","null","","","","","","","","","","","","<img src=images/blank.png width =""500"" height = ""500"" style=""border:5px solid black"">","","",""
"","309.11499995272607","stimulus-presentation","131","264358","0.0-17.0-1.8","SS1604513391236","<img src='images/complex/8.png' width ='500' height = '500' style='border:5px solid black'>","40","all_complex","images/complex/17.png","images/complex/8.png","images/complex/11.png,images/complex/2.png,images/complex/6.png,images/complex/1.png,images/complex/4.png,images/complex/18.png,images/complex/10.png","1","null","","200","509.11499995272607","","","","background","",""
"","null","html-keyboard-response","132","265290","0.0-17.0-0.9","SS1604513391236","","null","","","","","","","","","","","","<img src=images/blank.png width =""500"" height = ""500"" style=""border:5px solid black"">","","",""
"","264.9949999758974","stimulus-presentation","133","265774","0.0-17.0-1.9","SS1604513391236","<img src='images/complex/8.png' width ='500' height = '500' style='border:5px solid black'>","40","all_complex","images/complex/17.png","images/complex/8.png","images/complex/11.png,images/complex/2.png,images/complex/6.png,images/complex/1.png,images/complex/4.png,images/complex/18.png,images/complex/10.png","1","null","","200","464.9949999758974","","","","background","",""
"","null","html-keyboard-response","134","266696","0.0-17.0-0.10","SS1604513391236","","null","","","","","","","","","","","","<img src=images/blank.png width =""500"" height = ""500"" style=""border:5px solid black"">","","",""
"","251.1800000211224","stimulus-presentation","135","267166","0.0-17.0-1.10","SS1604513391236","<img src='images/complex/8.png' width ='500' height = '500' style='border:5px solid black'>","40","all_complex","images/complex/17.png","images/complex/8.png","images/complex/11.png,images/complex/2.png,images/complex/6.png,images/complex/1.png,images/complex/4.png,images/complex/18.png,images/complex/10.png","1","null","","200","451.1800000211224","","","","background","",""
"","null","html-keyboard-response","136","268452","0.0-17.0-0.11","SS1604513391236","","null","","","","","","","","","","","","<img src=images/blank.png width =""500"" height = ""500"" style=""border:5px solid black"">","","",""
"","288.42499991878867","stimulus-presentation","137","268959","0.0-17.0-1.11","SS1604513391236","<img src='images/complex/8.png' width ='500' height = '500' style='border:5px solid black'>","40","all_complex","images/complex/17.png","images/complex/8.png","images/complex/11.png,images/complex/2.png,images/complex/6.png,images/complex/1.png,images/complex/4.png,images/complex/18.png,images/complex/10.png","1","null","","200","488.42499991878867","","","","background","",""
"","null","html-keyboard-response","138","269857","0.0-17.0-0.12","SS1604513391236","","null","","","","","","","","","","","","<img src=images/blank.png width =""500"" height = ""500"" style=""border:5px solid black"">","","",""
"","285.0099999923259","stimulus-presentation","139","270358","0.0-17.0-1.12","SS1604513391236","<img src='images/complex/8.png' width ='500' height = '500' style='border:5px solid black'>","40","all_complex","images/complex/17.png","images/complex/8.png","images/complex/11.png,images/complex/2.png,images/complex/6.png,images/complex/1.png,images/complex/4.png,images/complex/18.png,images/complex/10.png","1","null","","200","485.0099999923259","","","","background","",""
"","null","html-keyboard-response","140","271213","0.0-17.0-0.13","SS1604513391236","","null","","","","","","","","","","","","<img src=images/blank.png width =""500"" height = ""500"" style=""border:5px solid black"">","","",""
"","217.88500004913658","stimulus-presentation","141","271648","0.0-17.0-1.13","SS1604513391236","<img src='images/complex/8.png' width ='500' height = '500' style='border:5px solid black'>","40","all_complex","images/complex/17.png","images/complex/8.png","images/complex/11.png,images/complex/2.png,images/complex/6.png,images/complex/1.png,images/complex/4.png,images/complex/18.png,images/complex/10.png","1","null","","200","417.8850000491366","","","","background","",""
"","null","html-keyboard-response","142","272960","0.0-17.0-0.14","SS1604513391236","","null","","","","","","","","","","","","<img src=images/blank.png width =""500"" height = ""500"" style=""border:5px solid black"">","","",""
"","494.4399999221787","stimulus-presentation","143","273671","0.0-17.0-1.14","SS1604513391236","<img src='images/complex/11.png' width ='500' height = '500' style='border:5px solid black'>","40","all_complex","images/complex/17.png","images/complex/8.png","images/complex/11.png,images/complex/2.png,images/complex/6.png,images/complex/1.png,images/complex/4.png,images/complex/18.png,images/complex/10.png","1","null","","200","694.4399999221787","","","","deviant","",""
"","null","html-keyboard-response","144","274784","0.0-17.0-0.15","SS1604513391236","","null","","","","","","","","","","","","<img src=images/blank.png width =""500"" height = ""500"" style=""border:5px solid black"">","","",""
"","324.20999999158084","stimulus-presentation","145","275326","0.0-17.0-1.15","SS1604513391236","<img src='images/complex/8.png' width ='500' height = '500' style='border:5px solid black'>","40","all_complex","images/complex/17.png","images/complex/8.png","images/complex/11.png,images/complex/2.png,images/complex/6.png,images/complex/1.png,images/complex/4.png,images/complex/18.png,images/complex/10.png","1","null","","200","524.2099999915808","","","","background","",""
"","null","html-keyboard-response","146","276250","0.0-17.0-0.16","SS1604513391236","","null","","","","","","","","","","","","<img src=images/blank.png width =""500"" height = ""500"" style=""border:5px solid black"">","","",""
"","227.35499998088926","stimulus-presentation","147","276694","0.0-17.0-1.16","SS1604513391236","<img src='images/complex/8.png' width ='500' height = '500' style='border:5px solid black'>","40","all_complex","images/complex/17.png","images/complex/8.png","images/complex/11.png,images/complex/2.png,images/complex/6.png,images/complex/1.png,images/complex/4.png,images/complex/18.png,images/complex/10.png","1","null","","200","427.35499998088926","","","","background","",""
"","null","html-keyboard-response","148","277727","0.0-17.0-0.17","SS1604513391236","","null","","","","","","","","","","","","<img src=images/blank.png width =""500"" height = ""500"" style=""border:5px solid black"">","","",""
"","263.82999995257705","stimulus-presentation","149","278198","0.0-17.0-1.17","SS1604513391236","<img src='images/complex/8.png' width ='500' height = '500' style='border:5px solid black'>","40","all_complex","images/complex/17.png","images/complex/8.png","images/complex/11.png,images/complex/2.png,images/complex/6.png,images/complex/1.png,images/complex/4.png,images/complex/18.png,images/complex/10.png","1","null","","200","463.82999995257705","","","","background","",""
"","null","html-keyboard-response","150","279147","0.0-17.0-0.18","SS1604513391236","","null","","","","","","","","","","","","<img src=images/blank.png width =""500"" height = ""500"" style=""border:5px solid black"">","","",""
"","240.08999997749925","stimulus-presentation","151","279598","0.0-17.0-1.18","SS1604513391236","<img src='images/complex/8.png' width ='500' height = '500' style='border:5px solid black'>","40","all_complex","images/complex/17.png","images/complex/8.png","images/complex/11.png,images/complex/2.png,images/complex/6.png,images/complex/1.png,images/complex/4.png,images/complex/18.png,images/complex/10.png","1","null","","200","440.08999997749925","","","","background","",""
"","null","html-keyboard-response","152","280707","0.0-17.0-0.19","SS1604513391236","","null","","","","","","","","","","","","<img src=images/blank.png width =""500"" height = ""500"" style=""border:5px solid black"">","","",""
"","195.0199999846518","stimulus-presentation","153","281119","0.0-17.0-1.19","SS1604513391236","<img src='images/complex/8.png' width ='500' height = '500' style='border:5px solid black'>","40","all_complex","images/complex/17.png","images/complex/8.png","images/complex/11.png,images/complex/2.png,images/complex/6.png,images/complex/1.png,images/complex/4.png,images/complex/18.png,images/complex/10.png","1","null","","200","395.0199999846518","","","","background","",""
"","null","html-keyboard-response","154","281975","0.0-17.0-0.20","SS1604513391236","","null","","","","","","","","","","","","<img src=images/blank.png width =""500"" height = ""500"" style=""border:5px solid black"">","","",""
"","405.35999997518957","stimulus-presentation","155","282600","0.0-17.0-1.20","SS1604513391236","<img src='images/complex/10.png' width ='500' height = '500' style='border:5px solid black'>","40","all_complex","images/complex/17.png","images/complex/8.png","images/complex/11.png,images/complex/2.png,images/complex/6.png,images/complex/1.png,images/complex/4.png,images/complex/18.png,images/complex/10.png","1","null","","200","605.3599999751896","","","","deviant","",""
"","null","html-keyboard-response","156","283732","0.0-17.0-0.21","SS1604513391236","","null","","","","","","","","","","","","<img src=images/blank.png width =""500"" height = ""500"" style=""border:5px solid black"">","","",""
"","259.8050000378862","stimulus-presentation","157","284206","0.0-17.0-1.21","SS1604513391236","<img src='images/complex/8.png' width ='500' height = '500' style='border:5px solid black'>","40","all_complex","images/complex/17.png","images/complex/8.png","images/complex/11.png,images/complex/2.png,images/complex/6.png,images/complex/1.png,images/complex/4.png,images/complex/18.png,images/complex/10.png","1","null","","200","459.8050000378862","","","","background","",""
"","null","html-keyboard-response","158","285411","0.0-17.0-0.22","SS1604513391236","","null","","","","","","","","","","","","<img src=images/blank.png width =""500"" height = ""500"" style=""border:5px solid black"">","","",""
"","187.2999999905005","stimulus-presentation","159","285814","0.0-17.0-1.22","SS1604513391236","<img src='images/complex/8.png' width ='500' height = '500' style='border:5px solid black'>","40","all_complex","images/complex/17.png","images/complex/8.png","images/complex/11.png,images/complex/2.png,images/complex/6.png,images/complex/1.png,images/complex/4.png,images/complex/18.png,images/complex/10.png","1","null","","200","387.2999999905005","","","","background","",""
"","null","html-keyboard-response","160","286672","0.0-17.0-0.23","SS1604513391236","","null","","","","","","","","","","","","<img src=images/blank.png width =""500"" height = ""500"" style=""border:5px solid black"">","","",""
"","1208.710000035353","stimulus-presentation","161","288089","0.0-17.0-1.23","SS1604513391236","<img src='images/complex/17.png' width ='500' height = '500' style='border:5px solid black'>","40","all_complex","images/complex/17.png","images/complex/8.png","images/complex/11.png,images/complex/2.png,images/complex/6.png,images/complex/1.png,images/complex/4.png,images/complex/18.png,images/complex/10.png","1","null","","200","1408.710000035353","yes","381.32499996572733","","target","",""
"","null","html-keyboard-response","162","289091","0.0-17.0-0.24","SS1604513391236","","null","","","","","","","","","","","","<img src=images/blank.png width =""500"" height = ""500"" style=""border:5px solid black"">","","",""
"","222.61499997694045","stimulus-presentation","163","289534","0.0-17.0-1.24","SS1604513391236","<img src='images/complex/8.png' width ='500' height = '500' style='border:5px solid black'>","40","all_complex","images/complex/17.png","images/complex/8.png","images/complex/11.png,images/complex/2.png,images/complex/6.png,images/complex/1.png,images/complex/4.png,images/complex/18.png,images/complex/10.png","1","null","","200","422.61499997694045","","","","background","",""
"","null","html-keyboard-response","164","290610","0.0-17.0-0.25","SS1604513391236","","null","","","","","","","","","","","","<img src=images/blank.png width =""500"" height = ""500"" style=""border:5px solid black"">","","",""
"","352.599999983795","stimulus-presentation","165","291166","0.0-17.0-1.25","SS1604513391236","<img src='images/complex/8.png' width ='500' height = '500' style='border:5px solid black'>","40","all_complex","images/complex/17.png","images/complex/8.png","images/complex/11.png,images/complex/2.png,images/complex/6.png,images/complex/1.png,images/complex/4.png,images/complex/18.png,images/complex/10.png","1","null","","200","552.599999983795","","","","background","",""
"","null","html-keyboard-response","166","292179","0.0-17.0-0.26","SS1604513391236","","null","","","","","","","","","","","","<img src=images/blank.png width =""500"" height = ""500"" style=""border:5px solid black"">","","",""
"","385.6999999843538","stimulus-presentation","167","292784","0.0-17.0-1.26","SS1604513391236","<img src='images/complex/1.png' width ='500' height = '500' style='border:5px solid black'>","40","all_complex","images/complex/17.png","images/complex/8.png","images/complex/11.png,images/complex/2.png,images/complex/6.png,images/complex/1.png,images/complex/4.png,images/complex/18.png,images/complex/10.png","1","null","","200","585.6999999843538","","","","deviant","",""
"","null","html-keyboard-response","168","293728","0.0-17.0-0.27","SS1604513391236","","null","","","","","","","","","","","","<img src=images/blank.png width =""500"" height = ""500"" style=""border:5px solid black"">","","",""
"","259.76000004447997","stimulus-presentation","169","294206","0.0-17.0-1.27","SS1604513391236","<img src='images/complex/8.png' width ='500' height = '500' style='border:5px solid black'>","40","all_complex","images/complex/17.png","images/complex/8.png","images/complex/11.png,images/complex/2.png,images/complex/6.png,images/complex/1.png,images/complex/4.png,images/complex/18.png,images/complex/10.png","1","null","","200","459.76000004447997","","","","background","",""
"","null","html-keyboard-response","170","295108","0.0-17.0-0.28","SS1604513391236","","null","","","","","","","","","","","","<img src=images/blank.png width =""500"" height = ""500"" style=""border:5px solid black"">","","",""
"","1089.534999919124","stimulus-presentation","171","296414","0.0-17.0-1.28","SS1604513391236","<img src='images/complex/17.png' width ='500' height = '500' style='border:5px solid black'>","40","all_complex","images/complex/17.png","images/complex/8.png","images/complex/11.png,images/complex/2.png,images/complex/6.png,images/complex/1.png,images/complex/4.png,images/complex/18.png,images/complex/10.png","1","null","","200","1289.534999919124","yes","329.7249999595806","","target","",""
"","null","html-keyboard-response","172","297637","0.0-17.0-0.29","SS1604513391236","","null","","","","","","","","","","","","<img src=images/blank.png width =""500"" height = ""500"" style=""border:5px solid black"">","","",""
"","229.39999995287508","stimulus-presentation","173","298086","0.0-17.0-1.29","SS1604513391236","<img src='images/complex/8.png' width ='500' height = '500' style='border:5px solid black'>","40","all_complex","images/complex/17.png","images/complex/8.png","images/complex/11.png,images/complex/2.png,images/complex/6.png,images/complex/1.png,images/complex/4.png,images/complex/18.png,images/complex/10.png","1","null","","200","429.3999999528751","","","","background","",""
"","null","html-keyboard-response","174","299009","0.0-17.0-0.30","SS1604513391236","","null","","","","","","","","","","","","<img src=images/blank.png width =""500"" height = ""500"" style=""border:5px solid black"">","","",""
"","288.12000004108995","stimulus-presentation","175","299518","0.0-17.0-1.30","SS1604513391236","<img src='images/complex/6.png' width ='500' height = '500' style='border:5px solid black'>","40","all_complex","images/complex/17.png","images/complex/8.png","images/complex/11.png,images/complex/2.png,images/complex/6.png,images/complex/1.png,images/complex/4.png,images/complex/18.png,images/complex/10.png","1","null","","200","488.12000004108995","","","","deviant","",""
"","null","html-keyboard-response","176","300590","0.0-17.0-0.31","SS1604513391236","","null","","","","","","","","","","","","<img src=images/blank.png width =""500"" height = ""500"" style=""border:5px solid black"">","","",""
"","1056.0099999420345","stimulus-presentation","177","301853","0.0-17.0-1.31","SS1604513391236","<img src='images/complex/17.png' width ='500' height = '500' style='border:5px solid black'>","40","all_complex","images/complex/17.png","images/complex/8.png","images/complex/11.png,images/complex/2.png,images/complex/6.png,images/complex/1.png,images/complex/4.png,images/complex/18.png,images/complex/10.png","1","null","","200","1256.0099999420345","yes","304.3449999531731","","target","",""
"","null","html-keyboard-response","178","303163","0.0-17.0-0.32","SS1604513391236","","null","","","","","","","","","","","","<img src=images/blank.png width =""500"" height = ""500"" style=""border:5px solid black"">","","",""
"","216.3450000807643","stimulus-presentation","179","303600","0.0-17.0-1.32","SS1604513391236","<img src='images/complex/8.png' width ='500' height = '500' style='border:5px solid black'>","40","all_complex","images/complex/17.png","images/complex/8.png","images/complex/11.png,images/complex/2.png,images/complex/6.png,images/complex/1.png,images/complex/4.png,images/complex/18.png,images/complex/10.png","1","null","","200","416.3450000807643","","","","background","",""
"","null","html-keyboard-response","180","304571","0.0-17.0-0.33","SS1604513391236","","null","","","","","","","","","","","","<img src=images/blank.png width =""500"" height = ""500"" style=""border:5px solid black"">","","",""
"","192.15499993879348","stimulus-presentation","181","304982","0.0-17.0-1.33","SS1604513391236","<img src='images/complex/8.png' width ='500' height = '500' style='border:5px solid black'>","40","all_complex","images/complex/17.png","images/complex/8.png","images/complex/11.png,images/complex/2.png,images/complex/6.png,images/complex/1.png,images/complex/4.png,images/complex/18.png,images/complex/10.png","1","null","","200","392.1549999387935","","","","background","",""
"","null","html-keyboard-response","182","306220","0.0-17.0-0.34","SS1604513391236","","null","","","","","","","","","","","","<img src=images/blank.png width =""500"" height = ""500"" style=""border:5px solid black"">","","",""
"","194.72499995026737","stimulus-presentation","183","306630","0.0-17.0-1.34","SS1604513391236","<img src='images/complex/8.png' width ='500' height = '500' style='border:5px solid black'>","40","all_complex","images/complex/17.png","images/complex/8.png","images/complex/11.png,images/complex/2.png,images/complex/6.png,images/complex/1.png,images/complex/4.png,images/complex/18.png,images/complex/10.png","1","null","","200","394.7249999502674","","","","background","",""
"","null","html-keyboard-response","184","307934","0.0-17.0-0.35","SS1604513391236","","null","","","","","","","","","","","","<img src=images/blank.png width =""500"" height = ""500"" style=""border:5px solid black"">","","",""
"","170.64999998547137","stimulus-presentation","185","308325","0.0-17.0-1.35","SS1604513391236","<img src='images/complex/8.png' width ='500' height = '500' style='border:5px solid black'>","40","all_complex","images/complex/17.png","images/complex/8.png","images/complex/11.png,images/complex/2.png,images/complex/6.png,images/complex/1.png,images/complex/4.png,images/complex/18.png,images/complex/10.png","1","null","","200","370.64999998547137","","","","background","",""
"","null","html-keyboard-response","186","309373","0.0-17.0-0.36","SS1604513391236","","null","","","","","","","","","","","","<img src=images/blank.png width =""500"" height = ""500"" style=""border:5px solid black"">","","",""
"","294.9400000507012","stimulus-presentation","187","309885","0.0-17.0-1.36","SS1604513391236","<img src='images/complex/8.png' width ='500' height = '500' style='border:5px solid black'>","40","all_complex","images/complex/17.png","images/complex/8.png","images/complex/11.png,images/complex/2.png,images/complex/6.png,images/complex/1.png,images/complex/4.png,images/complex/18.png,images/complex/10.png","1","null","","200","494.9400000507012","","","","background","",""
"","null","html-keyboard-response","188","311040","0.0-17.0-0.37","SS1604513391236","","null","","","","","","","","","","","","<img src=images/blank.png width =""500"" height = ""500"" style=""border:5px solid black"">","","",""
"","773.9000000292435","stimulus-presentation","189","312038","0.0-17.0-1.37","SS1604513391236","<img src='images/complex/4.png' width ='500' height = '500' style='border:5px solid black'>","40","all_complex","images/complex/17.png","images/complex/8.png","images/complex/11.png,images/complex/2.png,images/complex/6.png,images/complex/1.png,images/complex/4.png,images/complex/18.png,images/complex/10.png","1","null","","200","973.9000000292435","","","","deviant","",""
"","null","html-keyboard-response","190","313277","0.0-17.0-0.38","SS1604513391236","","null","","","","","","","","","","","","<img src=images/blank.png width =""500"" height = ""500"" style=""border:5px solid black"">","","",""
"","306.4700000686571","stimulus-presentation","191","313792","0.0-17.0-1.38","SS1604513391236","<img src='images/complex/8.png' width ='500' height = '500' style='border:5px solid black'>","40","all_complex","images/complex/17.png","images/complex/8.png","images/complex/11.png,images/complex/2.png,images/complex/6.png,images/complex/1.png,images/complex/4.png,images/complex/18.png,images/complex/10.png","1","null","","200","506.4700000686571","","","","background","",""
"","null","html-keyboard-response","192","314978","0.0-17.0-0.39","SS1604513391236","","null","","","","","","","","","","","","<img src=images/blank.png width =""500"" height = ""500"" style=""border:5px solid black"">","","",""
"","239.50499994680285","stimulus-presentation","193","315438","0.0-17.0-1.39","SS1604513391236","<img src='images/complex/8.png' width ='500' height = '500' style='border:5px solid black'>","40","all_complex","images/complex/17.png","images/complex/8.png","images/complex/11.png,images/complex/2.png,images/complex/6.png,images/complex/1.png,images/complex/4.png,images/complex/18.png,images/complex/10.png","1","null","","200","439.50499994680285","","","","background","",""
"","null","html-keyboard-response","194","316731","0.0-17.0-0.40","SS1604513391236","","null","","","","","","","","","","","","<img src=images/blank.png width =""500"" height = ""500"" style=""border:5px solid black"">","","",""
"","201.37999998405576","stimulus-presentation","195","317150","0.0-17.0-1.40","SS1604513391236","<img src='images/complex/8.png' width ='500' height = '500' style='border:5px solid black'>","40","all_complex","images/complex/17.png","images/complex/8.png","images/complex/11.png,images/complex/2.png,images/complex/6.png,images/complex/1.png,images/complex/4.png,images/complex/18.png,images/complex/10.png","1","null","","200","401.37999998405576","","","","background","",""
"","null","html-keyboard-response","196","318261","0.0-17.0-0.41","SS1604513391236","","null","","","","","","","","","","","","<img src=images/blank.png width =""500"" height = ""500"" style=""border:5px solid black"">","","",""
"","284.6900000004098","stimulus-presentation","197","318765","0.0-17.0-1.41","SS1604513391236","<img src='images/complex/8.png' width ='500' height = '500' style='border:5px solid black'>","40","all_complex","images/complex/17.png","images/complex/8.png","images/complex/11.png,images/complex/2.png,images/complex/6.png,images/complex/1.png,images/complex/4.png,images/complex/18.png,images/complex/10.png","1","null","","200","484.6900000004098","","","","background","",""
"","null","html-keyboard-response","198","319939","0.0-17.0-0.42","SS1604513391236","","null","","","","","","","","","","","","<img src=images/blank.png width =""500"" height = ""500"" style=""border:5px solid black"">","","",""
"","191.6799999307841","stimulus-presentation","199","320349","0.0-17.0-1.42","SS1604513391236","<img src='images/complex/8.png' width ='500' height = '500' style='border:5px solid black'>","40","all_complex","images/complex/17.png","images/complex/8.png","images/complex/11.png,images/complex/2.png,images/complex/6.png,images/complex/1.png,images/complex/4.png,images/complex/18.png,images/complex/10.png","1","null","","200","391.6799999307841","","","","background","",""
"","null","html-keyboard-response","200","321227","0.0-17.0-0.43","SS1604513391236","","null","","","","","","","","","","","","<img src=images/blank.png width =""500"" height = ""500"" style=""border:5px solid black"">","","",""
"","1071.585000026971","stimulus-presentation","201","322518","0.0-17.0-1.43","SS1604513391236","<img src='images/complex/17.png' width ='500' height = '500' style='border:5px solid black'>","40","all_complex","images/complex/17.png","images/complex/8.png","images/complex/11.png,images/complex/2.png,images/complex/6.png,images/complex/1.png,images/complex/4.png,images/complex/18.png,images/complex/10.png","1","null","","200","1271.585000026971","yes","342.7300000330433","","target","",""
"","null","html-keyboard-response","202","323754","0.0-17.0-0.44","SS1604513391236","","null","","","","","","","","","","","","<img src=images/blank.png width =""500"" height = ""500"" style=""border:5px solid black"">","","",""
"","160.5100000742823","stimulus-presentation","203","324135","0.0-17.0-1.44","SS1604513391236","<img src='images/complex/8.png' width ='500' height = '500' style='border:5px solid black'>","40","all_complex","images/complex/17.png","images/complex/8.png","images/complex/11.png,images/complex/2.png,images/complex/6.png,images/complex/1.png,images/complex/4.png,images/complex/18.png,images/complex/10.png","1","null","","200","360.5100000742823","","","","background","",""
"","null","html-keyboard-response","204","325321","0.0-17.0-0.45","SS1604513391236","","null","","","","","","","","","","","","<img src=images/blank.png width =""500"" height = ""500"" style=""border:5px solid black"">","","",""
"","185.50499994307756","stimulus-presentation","205","325726","0.0-17.0-1.45","SS1604513391236","<img src='images/complex/8.png' width ='500' height = '500' style='border:5px solid black'>","40","all_complex","images/complex/17.png","images/complex/8.png","images/complex/11.png,images/complex/2.png,images/complex/6.png,images/complex/1.png,images/complex/4.png,images/complex/18.png,images/complex/10.png","1","null","","200","385.50499994307756","","","","background","",""
"","null","html-keyboard-response","206","326871","0.0-17.0-0.46","SS1604513391236","","null","","","","","","","","","","","","<img src=images/blank.png width =""500"" height = ""500"" style=""border:5px solid black"">","","",""
"","122.51999997533858","stimulus-presentation","207","327205","0.0-17.0-1.46","SS1604513391236","<img src='images/complex/17.png' width ='500' height = '500' style='border:5px solid black'>","40","all_complex","images/complex/17.png","images/complex/8.png","images/complex/11.png,images/complex/2.png,images/complex/6.png,images/complex/1.png,images/complex/4.png,images/complex/18.png,images/complex/10.png","1","null","","200","322.5199999753386","","","","target","",""
"","null","html-keyboard-response","208","328178","0.0-17.0-0.47","SS1604513391236","","null","","","","","","","","","","","","<img src=images/blank.png width =""500"" height = ""500"" style=""border:5px solid black"">","","",""
"","345.38999991491437","stimulus-presentation","209","328741","0.0-17.0-1.47","SS1604513391236","<img src='images/complex/8.png' width ='500' height = '500' style='border:5px solid black'>","40","all_complex","images/complex/17.png","images/complex/8.png","images/complex/11.png,images/complex/2.png,images/complex/6.png,images/complex/1.png,images/complex/4.png,images/complex/18.png,images/complex/10.png","1","null","","200","545.3899999149144","","","","background","",""
"","null","html-keyboard-response","210","329941","0.0-17.0-0.48","SS1604513391236","","null","","","","","","","","","","","","<img src=images/blank.png width =""500"" height = ""500"" style=""border:5px solid black"">","","",""
"","224.58499995991588","stimulus-presentation","211","330381","0.0-17.0-1.48","SS1604513391236","<img src='images/complex/8.png' width ='500' height = '500' style='border:5px solid black'>","40","all_complex","images/complex/17.png","images/complex/8.png","images/complex/11.png,images/complex/2.png,images/complex/6.png,images/complex/1.png,images/complex/4.png,images/complex/18.png,images/complex/10.png","1","null","","200","424.5849999599159","","","","background","",""
"[{""page_index"":0,""viewing_time"":2053}]","2054","task-instructions","212","332438","0.0-18.0","SS1604513391236","","","","","","","","","","","","","","","","",""
"[{""page_index"":0,""viewing_time"":1075.5850001005456},{""page_index"":1,""viewing_time"":2568.184999981895},{""page_index"":2,""viewing_time"":1413.6949999956414}]","5057.730000000447","instructions","213","337499","0.0-19.0","SS1604513391236","","","","","","","","","","","","","","","","",""
"","null","html-keyboard-response","214","338501","0.0-20.0-0.0","SS1604513391236","","null","","","","","","","","","","","","<img src=images/blank.png width =""500"" height = ""500"" style=""border:5px solid black"">","","",""
"","891.4549999171868","stimulus-presentation","215","339597","0.0-20.0-1.0","SS1604513391236","<img src='images/simple/2.png' width ='500' height = '500' style='border:5px solid black'>","40","all_simple","images/simple/1.png","images/simple/2.png","images/simple/10.png,images/simple/15.png,images/simple/13.png,images/simple/11.png,images/simple/3.png,images/simple/6.png,images/simple/7.png","2","null","","200","1091.4549999171868","","","","background","",""
"","null","html-keyboard-response","216","340630","0.0-20.0-0.1","SS1604513391236","","null","","","","","","","","","","","","<img src=images/blank.png width =""500"" height = ""500"" style=""border:5px solid black"">","","",""
"","1301.4050000347197","stimulus-presentation","217","342149","0.0-20.0-1.1","SS1604513391236","<img src='images/simple/1.png' width ='500' height = '500' style='border:5px solid black'>","40","all_simple","images/simple/1.png","images/simple/2.png","images/simple/10.png,images/simple/15.png,images/simple/13.png,images/simple/11.png,images/simple/3.png,images/simple/6.png,images/simple/7.png","2","null","","200","1501.4050000347197","yes","477.4400000460446","","target","",""
"","null","html-keyboard-response","218","343297","0.0-20.0-0.2","SS1604513391236","","null","","","","","","","","","","","","<img src=images/blank.png width =""500"" height = ""500"" style=""border:5px solid black"">","","",""
"","378.86499997694045","stimulus-presentation","219","343893","0.0-20.0-1.2","SS1604513391236","<img src='images/simple/6.png' width ='500' height = '500' style='border:5px solid black'>","40","all_simple","images/simple/1.png","images/simple/2.png","images/simple/10.png,images/simple/15.png,images/simple/13.png,images/simple/11.png,images/simple/3.png,images/simple/6.png,images/simple/7.png","2","null","","200","578.8649999769405","","","","deviant","",""
"","null","html-keyboard-response","220","344840","0.0-20.0-0.3","SS1604513391236","","null","","","","","","","","","","","","<img src=images/blank.png width =""500"" height = ""500"" style=""border:5px solid black"">","","",""
"","211.52000001166016","stimulus-presentation","221","345269","0.0-20.0-1.3","SS1604513391236","<img src='images/simple/2.png' width ='500' height = '500' style='border:5px solid black'>","40","all_simple","images/simple/1.png","images/simple/2.png","images/simple/10.png,images/simple/15.png,images/simple/13.png,images/simple/11.png,images/simple/3.png,images/simple/6.png,images/simple/7.png","2","null","","200","411.52000001166016","","","","background","",""
"","null","html-keyboard-response","222","346369","0.0-20.0-0.4","SS1604513391236","","null","","","","","","","","","","","","<img src=images/blank.png width =""500"" height = ""500"" style=""border:5px solid black"">","","",""
"","306.1449999222532","stimulus-presentation","223","346895","0.0-20.0-1.4","SS1604513391236","<img src='images/simple/2.png' width ='500' height = '500' style='border:5px solid black'>","40","all_simple","images/simple/1.png","images/simple/2.png","images/simple/10.png,images/simple/15.png,images/simple/13.png,images/simple/11.png,images/simple/3.png,images/simple/6.png,images/simple/7.png","2","null","","200","506.1449999222532","","","","background","",""
"","null","html-keyboard-response","224","348056","0.0-20.0-0.5","SS1604513391236","","null","","","","","","","","","","","","<img src=images/blank.png width =""500"" height = ""500"" style=""border:5px solid black"">","","",""
"","212.3099999735132","stimulus-presentation","225","348489","0.0-20.0-1.5","SS1604513391236","<img src='images/simple/2.png' width ='500' height = '500' style='border:5px solid black'>","40","all_simple","images/simple/1.png","images/simple/2.png","images/simple/10.png,images/simple/15.png,images/simple/13.png,images/simple/11.png,images/simple/3.png,images/simple/6.png,images/simple/7.png","2","null","","200","412.3099999735132","","","","background","",""
"","null","html-keyboard-response","226","349370","0.0-20.0-0.6","SS1604513391236","","null","","","","","","","","","","","","<img src=images/blank.png width =""500"" height = ""500"" style=""border:5px solid black"">","","",""
"","1270.2750000171363","stimulus-presentation","227","350845","0.0-20.0-1.6","SS1604513391236","<img src='images/simple/1.png' width ='500' height = '500' style='border:5px solid black'>","40","all_simple","images/simple/1.png","images/simple/2.png","images/simple/10.png,images/simple/15.png,images/simple/13.png,images/simple/11.png,images/simple/3.png,images/simple/6.png,images/simple/7.png","2","null","","200","1470.2750000171363","yes","470.6599999917671","","target","",""
"","null","html-keyboard-response","228","352125","0.0-20.0-0.7","SS1604513391236","","null","","","","","","","","","","","","<img src=images/blank.png width =""500"" height = ""500"" style=""border:5px solid black"">","","",""
"","646.5450000250712","stimulus-presentation","229","352989","0.0-20.0-1.7","SS1604513391236","<img src='images/simple/10.png' width ='500' height = '500' style='border:5px solid black'>","40","all_simple","images/simple/1.png","images/simple/2.png","images/simple/10.png,images/simple/15.png,images/simple/13.png,images/simple/11.png,images/simple/3.png,images/simple/6.png,images/simple/7.png","2","null","","200","846.5450000250712","","","","deviant","",""
"","null","html-keyboard-response","230","354211","0.0-20.0-0.8","SS1604513391236","","null","","","","","","","","","","","","<img src=images/blank.png width =""500"" height = ""500"" style=""border:5px solid black"">","","",""
"","359.4150000717491","stimulus-presentation","231","354781","0.0-20.0-1.8","SS1604513391236","<img src='images/simple/2.png' width ='500' height = '500' style='border:5px solid black'>","40","all_simple","images/simple/1.png","images/simple/2.png","images/simple/10.png,images/simple/15.png,images/simple/13.png,images/simple/11.png,images/simple/3.png,images/simple/6.png,images/simple/7.png","2","null","","200","559.4150000717491","","","","background","",""
"","null","html-keyboard-response","232","356087","0.0-20.0-0.9","SS1604513391236","","null","","","","","","","","","","","","<img src=images/blank.png width =""500"" height = ""500"" style=""border:5px solid black"">","","",""
"","1139.2800000030547","stimulus-presentation","233","357445","0.0-20.0-1.9","SS1604513391236","<img src='images/simple/1.png' width ='500' height = '500' style='border:5px solid black'>","40","all_simple","images/simple/1.png","images/simple/2.png","images/simple/10.png,images/simple/15.png,images/simple/13.png,images/simple/11.png,images/simple/3.png,images/simple/6.png,images/simple/7.png","2","null","","200","1339.2800000030547","yes","394.1750000230968","","target","",""
"","null","html-keyboard-response","234","358291","0.0-20.0-0.10","SS1604513391236","","null","","","","","","","","","","","","<img src=images/blank.png width =""500"" height = ""500"" style=""border:5px solid black"">","","",""
"","438.469999935478","stimulus-presentation","235","358949","0.0-20.0-1.10","SS1604513391236","<img src='images/simple/2.png' width ='500' height = '500' style='border:5px solid black'>","40","all_simple","images/simple/1.png","images/simple/2.png","images/simple/10.png,images/simple/15.png,images/simple/13.png,images/simple/11.png,images/simple/3.png,images/simple/6.png,images/simple/7.png","2","null","","200","638.469999935478","","","","background","",""
"","null","html-keyboard-response","236","359856","0.0-20.0-0.11","SS1604513391236","","null","","","","","","","","","","","","<img src=images/blank.png width =""500"" height = ""500"" style=""border:5px solid black"">","","",""
"","239.92999992333353","stimulus-presentation","237","360309","0.0-20.0-1.11","SS1604513391236","<img src='images/simple/2.png' width ='500' height = '500' style='border:5px solid black'>","40","all_simple","images/simple/1.png","images/simple/2.png","images/simple/10.png,images/simple/15.png,images/simple/13.png,images/simple/11.png,images/simple/3.png,images/simple/6.png,images/simple/7.png","2","null","","200","439.9299999233335","","","","background","",""
"","null","html-keyboard-response","238","361326","0.0-20.0-0.12","SS1604513391236","","null","","","","","","","","","","","","<img src=images/blank.png width =""500"" height = ""500"" style=""border:5px solid black"">","","",""
"","260.72499994188547","stimulus-presentation","239","361804","0.0-20.0-1.12","SS1604513391236","<img src='images/simple/2.png' width ='500' height = '500' style='border:5px solid black'>","40","all_simple","images/simple/1.png","images/simple/2.png","images/simple/10.png,images/simple/15.png,images/simple/13.png,images/simple/11.png,images/simple/3.png,images/simple/6.png,images/simple/7.png","2","null","","200","460.72499994188547","","","","background","",""
"","null","html-keyboard-response","240","362850","0.0-20.0-0.13","SS1604513391236","","null","","","","","","","","","","","","<img src=images/blank.png width =""500"" height = ""500"" style=""border:5px solid black"">","","",""
"","238.35499992128462","stimulus-presentation","241","363308","0.0-20.0-1.13","SS1604513391236","<img src='images/simple/2.png' width ='500' height = '500' style='border:5px solid black'>","40","all_simple","images/simple/1.png","images/simple/2.png","images/simple/10.png,images/simple/15.png,images/simple/13.png,images/simple/11.png,images/simple/3.png,images/simple/6.png,images/simple/7.png","2","null","","200","438.3549999212846","","","","background","",""
"","null","html-keyboard-response","242","364282","0.0-20.0-0.14","SS1604513391236","","null","","","","","","","","","","","","<img src=images/blank.png width =""500"" height = ""500"" style=""border:5px solid black"">","","",""
"","199.3650000076741","stimulus-presentation","243","364700","0.0-20.0-1.14","SS1604513391236","<img src='images/simple/2.png' width ='500' height = '500' style='border:5px solid black'>","40","all_simple","images/simple/1.png","images/simple/2.png","images/simple/10.png,images/simple/15.png,images/simple/13.png,images/simple/11.png,images/simple/3.png,images/simple/6.png,images/simple/7.png","2","null","","200","399.3650000076741","","","","background","",""
"","null","html-keyboard-response","244","365877","0.0-20.0-0.15","SS1604513391236","","null","","","","","","","","","","","","<img src=images/blank.png width =""500"" height = ""500"" style=""border:5px solid black"">","","",""
"","418.5249999864027","stimulus-presentation","245","366500","0.0-20.0-1.15","SS1604513391236","<img src='images/simple/7.png' width ='500' height = '500' style='border:5px solid black'>","40","all_simple","images/simple/1.png","images/simple/2.png","images/simple/10.png,images/simple/15.png,images/simple/13.png,images/simple/11.png,images/simple/3.png,images/simple/6.png,images/simple/7.png","2","null","","200","618.5249999864027","","","","deviant","",""
"","null","html-keyboard-response","246","367654","0.0-20.0-0.16","SS1604513391236","","null","","","","","","","","","","","","<img src=images/blank.png width =""500"" height = ""500"" style=""border:5px solid black"">","","",""
"","388.7800000375137","stimulus-presentation","247","368261","0.0-20.0-1.16","SS1604513391236","<img src='images/simple/2.png' width ='500' height = '500' style='border:5px solid black'>","40","all_simple","images/simple/1.png","images/simple/2.png","images/simple/10.png,images/simple/15.png,images/simple/13.png,images/simple/11.png,images/simple/3.png,images/simple/6.png,images/simple/7.png","2","null","","200","588.7800000375137","","","","background","",""
"","null","html-keyboard-response","248","369336","0.0-20.0-0.17","SS1604513391236","","null","","","","","","","","","","","","<img src=images/blank.png width =""500"" height = ""500"" style=""border:5px solid black"">","","",""
"","194.66999999713153","stimulus-presentation","249","369748","0.0-20.0-1.17","SS1604513391236","<img src='images/simple/2.png' width ='500' height = '500' style='border:5px solid black'>","40","all_simple","images/simple/1.png","images/simple/2.png","images/simple/10.png,images/simple/15.png,images/simple/13.png,images/simple/11.png,images/simple/3.png,images/simple/6.png,images/simple/7.png","2","null","","200","394.6699999971315","","","","background","",""
"","null","html-keyboard-response","250","370924","0.0-20.0-0.18","SS1604513391236","","null","","","","","","","","","","","","<img src=images/blank.png width =""500"" height = ""500"" style=""border:5px solid black"">","","",""
"","196.7449999647215","stimulus-presentation","251","371332","0.0-20.0-1.18","SS1604513391236","<img src='images/simple/2.png' width ='500' height = '500' style='border:5px solid black'>","40","all_simple","images/simple/1.png","images/simple/2.png","images/simple/10.png,images/simple/15.png,images/simple/13.png,images/simple/11.png,images/simple/3.png,images/simple/6.png,images/simple/7.png","2","null","","200","396.7449999647215","","","","background","",""
"","null","html-keyboard-response","252","372198","0.0-20.0-0.19","SS1604513391236","","null","","","","","","","","","","","","<img src=images/blank.png width =""500"" height = ""500"" style=""border:5px solid black"">","","",""
"","299.31499995291233","stimulus-presentation","253","372716","0.0-20.0-1.19","SS1604513391236","<img src='images/simple/2.png' width ='500' height = '500' style='border:5px solid black'>","40","all_simple","images/simple/1.png","images/simple/2.png","images/simple/10.png,images/simple/15.png,images/simple/13.png,images/simple/11.png,images/simple/3.png,images/simple/6.png,images/simple/7.png","2","null","","200","499.31499995291233","","","","background","",""
"","null","html-keyboard-response","254","373762","0.0-20.0-0.20","SS1604513391236","","null","","","","","","","","","","","","<img src=images/blank.png width =""500"" height = ""500"" style=""border:5px solid black"">","","",""
"","158.62999996170402","stimulus-presentation","255","374140","0.0-20.0-1.20","SS1604513391236","<img src='images/simple/2.png' width ='500' height = '500' style='border:5px solid black'>","40","all_simple","images/simple/1.png","images/simple/2.png","images/simple/10.png,images/simple/15.png,images/simple/13.png,images/simple/11.png,images/simple/3.png,images/simple/6.png,images/simple/7.png","2","null","","200","358.629999961704","","","","background","",""
"","null","html-keyboard-response","256","375042","0.0-20.0-0.21","SS1604513391236","","null","","","","","","","","","","","","<img src=images/blank.png width =""500"" height = ""500"" style=""border:5px solid black"">","","",""
"","205.30000003054738","stimulus-presentation","257","375464","0.0-20.0-1.21","SS1604513391236","<img src='images/simple/2.png' width ='500' height = '500' style='border:5px solid black'>","40","all_simple","images/simple/1.png","images/simple/2.png","images/simple/10.png,images/simple/15.png,images/simple/13.png,images/simple/11.png,images/simple/3.png,images/simple/6.png,images/simple/7.png","2","null","","200","405.3000000305474","","","","background","",""
"","null","html-keyboard-response","258","376756","0.0-20.0-0.22","SS1604513391236","","null","","","","","","","","","","","","<img src=images/blank.png width =""500"" height = ""500"" style=""border:5px solid black"">","","",""
"","157.81999996397644","stimulus-presentation","259","377132","0.0-20.0-1.22","SS1604513391236","<img src='images/simple/2.png' width ='500' height = '500' style='border:5px solid black'>","40","all_simple","images/simple/1.png","images/simple/2.png","images/simple/10.png,images/simple/15.png,images/simple/13.png,images/simple/11.png,images/simple/3.png,images/simple/6.png,images/simple/7.png","2","null","","200","357.81999996397644","","","","background","",""
"","null","html-keyboard-response","260","378284","0.0-20.0-0.23","SS1604513391236","","null","","","","","","","","","","","","<img src=images/blank.png width =""500"" height = ""500"" style=""border:5px solid black"">","","",""
"","318.23000009171665","stimulus-presentation","261","378822","0.0-20.0-1.23","SS1604513391236","<img src='images/simple/2.png' width ='500' height = '500' style='border:5px solid black'>","40","all_simple","images/simple/1.png","images/simple/2.png","images/simple/10.png,images/simple/15.png,images/simple/13.png,images/simple/11.png,images/simple/3.png,images/simple/6.png,images/simple/7.png","2","null","","200","518.2300000917166","","","","background","",""
"","null","html-keyboard-response","262","379914","0.0-20.0-0.24","SS1604513391236","","null","","","","","","","","","","","","<img src=images/blank.png width =""500"" height = ""500"" style=""border:5px solid black"">","","",""
"","226.41000000294298","stimulus-presentation","263","380356","0.0-20.0-1.24","SS1604513391236","<img src='images/simple/2.png' width ='500' height = '500' style='border:5px solid black'>","40","all_simple","images/simple/1.png","images/simple/2.png","images/simple/10.png,images/simple/15.png,images/simple/13.png,images/simple/11.png,images/simple/3.png,images/simple/6.png,images/simple/7.png","2","null","","200","426.410000002943","","","","background","",""
"","null","html-keyboard-response","264","381205","0.0-20.0-0.25","SS1604513391236","","null","","","","","","","","","","","","<img src=images/blank.png width =""500"" height = ""500"" style=""border:5px solid black"">","","",""
"","698.7499999813735","stimulus-presentation","265","382124","0.0-20.0-1.25","SS1604513391236","<img src='images/simple/11.png' width ='500' height = '500' style='border:5px solid black'>","40","all_simple","images/simple/1.png","images/simple/2.png","images/simple/10.png,images/simple/15.png,images/simple/13.png,images/simple/11.png,images/simple/3.png,images/simple/6.png,images/simple/7.png","2","null","","200","898.7499999813735","","","","deviant","",""
"","null","html-keyboard-response","266","383089","0.0-20.0-0.26","SS1604513391236","","null","","","","","","","","","","","","<img src=images/blank.png width =""500"" height = ""500"" style=""border:5px solid black"">","","",""
"","1070.9350000834092","stimulus-presentation","267","384380","0.0-20.0-1.26","SS1604513391236","<img src='images/simple/1.png' width ='500' height = '500' style='border:5px solid black'>","40","all_simple","images/simple/1.png","images/simple/2.png","images/simple/10.png,images/simple/15.png,images/simple/13.png,images/simple/11.png,images/simple/3.png,images/simple/6.png,images/simple/7.png","2","null","","200","1270.9350000834092","yes","302.75000003166497","","target","",""
"","null","html-keyboard-response","268","385666","0.0-20.0-0.27","SS1604513391236","","null","","","","","","","","","","","","<img src=images/blank.png width =""500"" height = ""500"" style=""border:5px solid black"">","","",""
"","220.4400000628084","stimulus-presentation","269","386107","0.0-20.0-1.27","SS1604513391236","<img src='images/simple/2.png' width ='500' height = '500' style='border:5px solid black'>","40","all_simple","images/simple/1.png","images/simple/2.png","images/simple/10.png,images/simple/15.png,images/simple/13.png,images/simple/11.png,images/simple/3.png,images/simple/6.png,images/simple/7.png","2","null","","200","420.4400000628084","","","","background","",""
"","null","html-keyboard-response","270","387051","0.0-20.0-0.28","SS1604513391236","","null","","","","","","","","","","","","<img src=images/blank.png width =""500"" height = ""500"" style=""border:5px solid black"">","","",""
"","165.45500000938773","stimulus-presentation","271","387436","0.0-20.0-1.28","SS1604513391236","<img src='images/simple/2.png' width ='500' height = '500' style='border:5px solid black'>","40","all_simple","images/simple/1.png","images/simple/2.png","images/simple/10.png,images/simple/15.png,images/simple/13.png,images/simple/11.png,images/simple/3.png,images/simple/6.png,images/simple/7.png","2","null","","200","365.45500000938773","","","","background","",""
"","null","html-keyboard-response","272","388398","0.0-20.0-0.29","SS1604513391236","","null","","","","","","","","","","","","<img src=images/blank.png width =""500"" height = ""500"" style=""border:5px solid black"">","","",""
"","589.5550000714138","stimulus-presentation","273","389206","0.0-20.0-1.29","SS1604513391236","<img src='images/simple/15.png' width ='500' height = '500' style='border:5px solid black'>","40","all_simple","images/simple/1.png","images/simple/2.png","images/simple/10.png,images/simple/15.png,images/simple/13.png,images/simple/11.png,images/simple/3.png,images/simple/6.png,images/simple/7.png","2","null","","200","789.5550000714138","","","","deviant","",""
"","null","html-keyboard-response","274","390348","0.0-20.0-0.30","SS1604513391236","","null","","","","","","","","","","","","<img src=images/blank.png width =""500"" height = ""500"" style=""border:5px solid black"">","","",""
"","240.2049999218434","stimulus-presentation","275","390804","0.0-20.0-1.30","SS1604513391236","<img src='images/simple/2.png' width ='500' height = '500' style='border:5px solid black'>","40","all_simple","images/simple/1.png","images/simple/2.png","images/simple/10.png,images/simple/15.png,images/simple/13.png,images/simple/11.png,images/simple/3.png,images/simple/6.png,images/simple/7.png","2","null","","200","440.2049999218434","","","","background","",""
"","null","html-keyboard-response","276","391782","0.0-20.0-0.31","SS1604513391236","","null","","","","","","","","","","","","<img src=images/blank.png width =""500"" height = ""500"" style=""border:5px solid black"">","","",""
"","217.28999994229525","stimulus-presentation","277","392204","0.0-20.0-1.31","SS1604513391236","<img src='images/simple/2.png' width ='500' height = '500' style='border:5px solid black'>","40","all_simple","images/simple/1.png","images/simple/2.png","images/simple/10.png,images/simple/15.png,images/simple/13.png,images/simple/11.png,images/simple/3.png,images/simple/6.png,images/simple/7.png","2","null","","200","417.28999994229525","","","","background","",""
"","null","html-keyboard-response","278","393161","0.0-20.0-0.32","SS1604513391236","","null","","","","","","","","","","","","<img src=images/blank.png width =""500"" height = ""500"" style=""border:5px solid black"">","","",""
"","1159.5099999103695","stimulus-presentation","279","394540","0.0-20.0-1.32","SS1604513391236","<img src='images/simple/1.png' width ='500' height = '500' style='border:5px solid black'>","40","all_simple","images/simple/1.png","images/simple/2.png","images/simple/10.png,images/simple/15.png,images/simple/13.png,images/simple/11.png,images/simple/3.png,images/simple/6.png,images/simple/7.png","2","null","","200","1359.5099999103695","yes","431.4899999881163","","target","",""
"","null","html-keyboard-response","280","395444","0.0-20.0-0.33","SS1604513391236","","null","","","","","","","","","","","","<img src=images/blank.png width =""500"" height = ""500"" style=""border:5px solid black"">","","",""
"","180.97999994643033","stimulus-presentation","281","395843","0.0-20.0-1.33","SS1604513391236","<img src='images/simple/2.png' width ='500' height = '500' style='border:5px solid black'>","40","all_simple","images/simple/1.png","images/simple/2.png","images/simple/10.png,images/simple/15.png,images/simple/13.png,images/simple/11.png,images/simple/3.png,images/simple/6.png,images/simple/7.png","2","null","","200","380.9799999464303","","","","background","",""
"","null","html-keyboard-response","282","396708","0.0-20.0-0.34","SS1604513391236","","null","","","","","","","","","","","","<img src=images/blank.png width =""500"" height = ""500"" style=""border:5px solid black"">","","",""
"","379.64499997906387","stimulus-presentation","283","397307","0.0-20.0-1.34","SS1604513391236","<img src='images/simple/3.png' width ='500' height = '500' style='border:5px solid black'>","40","all_simple","images/simple/1.png","images/simple/2.png","images/simple/10.png,images/simple/15.png,images/simple/13.png,images/simple/11.png,images/simple/3.png,images/simple/6.png,images/simple/7.png","2","null","","200","579.6449999790639","","","","deviant","",""
"","null","html-keyboard-response","284","398407","0.0-20.0-0.35","SS1604513391236","","null","","","","","","","","","","","","<img src=images/blank.png width =""500"" height = ""500"" style=""border:5px solid black"">","","",""
