"view_history","rt","trial_type","trial_index","time_elapsed","internal_node_id","subject","trial_stimulus","key_press","task_type","task_target_stimulus","task_background_stimulus","task_deviant_stimuli","task_order_number","block_order_number","trial_order_number","minimum_viewing_duration","trial_looking_time","trial_pressed_space_bar","trial_space_bar_rt","stimulus","trial_stimulus_type"
"[{""page_index"":0,""viewing_time"":1465.729999996256}]","1466.0399999993388","instructions","0","1517","0.0-0.0","SS1604516660396","","","","","","","","","","","","","","",""
"[{""page_index"":0,""viewing_time"":1285.504999992554},{""page_index"":1,""viewing_time"":4127.795000007609},{""page_index"":2,""viewing_time"":696.1250000022119},{""page_index"":3,""viewing_time"":2191.8399999995017},{""page_index"":4,""viewing_time"":504.26999999035615},{""page_index"":5,""viewing_time"":759.9600000103237},{""page_index"":6,""viewing_time"":888.2449999946402},{""page_index"":7,""viewing_time"":535.6849999952829},{""page_index"":8,""viewing_time"":576.020000007702}]","11565.659999992931","instructions","1","13085","0.0-1.0","SS1604516660396","","","","","","","","","","","","","","",""
"[{""page_index"":0,""viewing_time"":1174.4800000014948},{""page_index"":1,""viewing_time"":6599.845000004279},{""page_index"":2,""viewing_time"":1328.0499999964377}]","9102.59500000393","instructions","2","22189","0.0-2.0","SS1604516660396","","","","","","","","","","","","","","",""
"","5063.729999994393","practice-block","3","27458","0.0-3.0","SS1604516660396","<img src='images/practice/practice_background.jpeg' width ='500' height = '500' style='border:5px solid black'>","40","null","images/practice/practice_target.jpg","null","null","null","null","","200","5263.729999994393","yes","316.1850000033155","",""
"","null","html-keyboard-response","4","28435","0.0-4.0","SS1604516660396","","null","","","","","","","","","","","","<img src=images/blank.png width =""500"" height = ""500"" style=""border:5px solid black"">",""
"","146.06499999354128","practice-block","5","28789","0.0-5.0","SS1604516660396","<img src='images/practice/practice_background.jpeg' width ='500' height = '500' style='border:5px solid black'>","40","null","images/practice/practice_target.jpg","null","null","null","null","","200","346.0649999935413","","","",""
"","null","html-keyboard-response","6","29877","0.0-6.0","SS1604516660396","","null","","","","","","","","","","","","<img src=images/blank.png width =""500"" height = ""500"" style=""border:5px solid black"">",""
"","47.01999999815598","practice-block","7","30126","0.0-7.0","SS1604516660396","<img src='images/practice/practice_deviant.jpeg' width ='500' height = '500' style='border:5px solid black'>","40","null","images/practice/practice_target.jpg","null","null","null","null","","200","247.01999999815598","","","",""
"","null","html-keyboard-response","8","31230","0.0-8.0","SS1604516660396","","null","","","","","","","","","","","","<img src=images/blank.png width =""500"" height = ""500"" style=""border:5px solid black"">",""
"","54.17000000306871","practice-block","9","33293","0.0-9.0-0.0","SS1604516660396","<img src='images/practice/practice_target.jpg' width ='500' height = '500' style='border:5px solid black'>","40","null","images/practice/practice_target.jpg","null","null","null","null","","200","254.1700000030687","","","",""
"","7058.080000002519","practice-block","10","40556","0.0-9.1-0.1","SS1604516660396","<img src='images/practice/practice_target.jpg' width ='500' height = '500' style='border:5px solid black'>","40","null","images/practice/practice_target.jpg","null","null","null","null","","200","7258.080000002519","yes","3836.02499999688","",""
"","null","html-keyboard-response","11","41412","0.0-10.0","SS1604516660396","","null","","","","","","","","","","","","<img src=images/blank.png width =""500"" height = ""500"" style=""border:5px solid black"">",""
"","239.34500000905246","practice-block","12","41868","0.0-11.0","SS1604516660396","<img src='images/practice/practice_background.jpeg' width ='500' height = '500' style='border:5px solid black'>","40","null","images/practice/practice_target.jpg","null","null","null","null","","200","439.34500000905246","","","",""
"[{""page_index"":0,""viewing_time"":1471}]","1471","task-instructions","13","43341","0.0-12.0","SS1604516660396","","","","","","","","","","","","","","",""
"[{""page_index"":0,""viewing_time"":1358.3549999893876},{""page_index"":1,""viewing_time"":2592.029999999795},{""page_index"":2,""viewing_time"":1656.0600000084378}]","5606.734999993932","instructions","14","48949","0.0-13.0","SS1604516660396","","","","","","","","","","","","","","",""
"","null","html-keyboard-response","15","49808","0.0-14.0-0.0","SS1604516660396","","null","","","","","","","","","","","","<img src=images/blank.png width =""500"" height = ""500"" style=""border:5px solid black"">",""
"","289.00000000430737","stimulus-presentation","16","50305","0.0-14.0-1.0","SS1604516660396","<img src='images/complex/4.png' width ='500' height = '500' style='border:5px solid black'>","40","all_complex","images/complex/3.png","images/complex/4.png","images/complex/13.png,images/complex/11.png,images/complex/6.png,images/complex/9.png,images/complex/15.png,images/complex/10.png,images/complex/7.png","0","null","","200","489.00000000430737","","","","background"
"","null","html-keyboard-response","17","51597","0.0-14.0-0.1","SS1604516660396","","null","","","","","","","","","","","","<img src=images/blank.png width =""500"" height = ""500"" style=""border:5px solid black"">",""
"","129.28500000271015","stimulus-presentation","18","51942","0.0-14.0-1.1","SS1604516660396","<img src='images/complex/4.png' width ='500' height = '500' style='border:5px solid black'>","40","all_complex","images/complex/3.png","images/complex/4.png","images/complex/13.png,images/complex/11.png,images/complex/6.png,images/complex/9.png,images/complex/15.png,images/complex/10.png,images/complex/7.png","0","null","","200","329.28500000271015","","","","background"
"","null","html-keyboard-response","19","52790","0.0-14.0-0.2","SS1604516660396","","null","","","","","","","","","","","","<img src=images/blank.png width =""500"" height = ""500"" style=""border:5px solid black"">",""
"","130.6650000042282","stimulus-presentation","20","53140","0.0-14.0-1.2","SS1604516660396","<img src='images/complex/4.png' width ='500' height = '500' style='border:5px solid black'>","40","all_complex","images/complex/3.png","images/complex/4.png","images/complex/13.png,images/complex/11.png,images/complex/6.png,images/complex/9.png,images/complex/15.png,images/complex/10.png,images/complex/7.png","0","null","","200","330.6650000042282","","","","background"
"","null","html-keyboard-response","21","54061","0.0-14.0-0.3","SS1604516660396","","null","","","","","","","","","","","","<img src=images/blank.png width =""500"" height = ""500"" style=""border:5px solid black"">",""
"","192.90000000910368","stimulus-presentation","22","54470","0.0-14.0-1.3","SS1604516660396","<img src='images/complex/4.png' width ='500' height = '500' style='border:5px solid black'>","40","all_complex","images/complex/3.png","images/complex/4.png","images/complex/13.png,images/complex/11.png,images/complex/6.png,images/complex/9.png,images/complex/15.png,images/complex/10.png,images/complex/7.png","0","null","","200","392.9000000091037","","","","background"
"","null","html-keyboard-response","23","55600","0.0-14.0-0.4","SS1604516660396","","null","","","","","","","","","","","","<img src=images/blank.png width =""500"" height = ""500"" style=""border:5px solid black"">",""
"","73.10500000312459","stimulus-presentation","24","55892","0.0-14.0-1.4","SS1604516660396","<img src='images/complex/15.png' width ='500' height = '500' style='border:5px solid black'>","40","all_complex","images/complex/3.png","images/complex/4.png","images/complex/13.png,images/complex/11.png,images/complex/6.png,images/complex/9.png,images/complex/15.png,images/complex/10.png,images/complex/7.png","0","null","","200","273.1050000031246","","","","deviant"
"","null","html-keyboard-response","25","56713","0.0-14.0-0.5","SS1604516660396","","null","","","","","","","","","","","","<img src=images/blank.png width =""500"" height = ""500"" style=""border:5px solid black"">",""
"","105.98999999638181","stimulus-presentation","26","57036","0.0-14.0-1.5","SS1604516660396","<img src='images/complex/4.png' width ='500' height = '500' style='border:5px solid black'>","40","all_complex","images/complex/3.png","images/complex/4.png","images/complex/13.png,images/complex/11.png,images/complex/6.png,images/complex/9.png,images/complex/15.png,images/complex/10.png,images/complex/7.png","0","null","","200","305.9899999963818","","","","background"
"","null","html-keyboard-response","27","57987","0.0-14.0-0.6","SS1604516660396","","null","","","","","","","","","","","","<img src=images/blank.png width =""500"" height = ""500"" style=""border:5px solid black"">",""
"","5195.970000000671","stimulus-presentation","28","63402","0.0-14.0-1.6","SS1604516660396","<img src='images/complex/3.png' width ='500' height = '500' style='border:5px solid black'>","40","all_complex","images/complex/3.png","images/complex/4.png","images/complex/13.png,images/complex/11.png,images/complex/6.png,images/complex/9.png,images/complex/15.png,images/complex/10.png,images/complex/7.png","0","null","","200","5395.970000000671","yes","1600.365000005695","","target"
"","null","html-keyboard-response","29","64672","0.0-14.0-0.7","SS1604516660396","","null","","","","","","","","","","","","<img src=images/blank.png width =""500"" height = ""500"" style=""border:5px solid black"">",""
"","168.88500000641216","stimulus-presentation","30","65060","0.0-14.0-1.7","SS1604516660396","<img src='images/complex/4.png' width ='500' height = '500' style='border:5px solid black'>","40","all_complex","images/complex/3.png","images/complex/4.png","images/complex/13.png,images/complex/11.png,images/complex/6.png,images/complex/9.png,images/complex/15.png,images/complex/10.png,images/complex/7.png","0","null","","200","368.88500000641216","","","","background"
"","null","html-keyboard-response","31","66014","0.0-14.0-0.8","SS1604516660396","","null","","","","","","","","","","","","<img src=images/blank.png width =""500"" height = ""500"" style=""border:5px solid black"">",""
"","406.4700000017183","stimulus-presentation","32","66636","0.0-14.0-1.8","SS1604516660396","<img src='images/complex/6.png' width ='500' height = '500' style='border:5px solid black'>","40","all_complex","images/complex/3.png","images/complex/4.png","images/complex/13.png,images/complex/11.png,images/complex/6.png,images/complex/9.png,images/complex/15.png,images/complex/10.png,images/complex/7.png","0","null","","200","606.4700000017183","","","","deviant"
"","null","html-keyboard-response","33","67802","0.0-14.0-0.9","SS1604516660396","","null","","","","","","","","","","","","<img src=images/blank.png width =""500"" height = ""500"" style=""border:5px solid black"">",""
"","138.27999999921303","stimulus-presentation","34","68159","0.0-14.0-1.9","SS1604516660396","<img src='images/complex/4.png' width ='500' height = '500' style='border:5px solid black'>","40","all_complex","images/complex/3.png","images/complex/4.png","images/complex/13.png,images/complex/11.png,images/complex/6.png,images/complex/9.png,images/complex/15.png,images/complex/10.png,images/complex/7.png","0","null","","200","338.27999999921303","","","","background"
"","null","html-keyboard-response","35","69185","0.0-14.0-0.10","SS1604516660396","","null","","","","","","","","","","","","<img src=images/blank.png width =""500"" height = ""500"" style=""border:5px solid black"">",""
"","170.18500000995118","stimulus-presentation","36","69572","0.0-14.0-1.10","SS1604516660396","<img src='images/complex/4.png' width ='500' height = '500' style='border:5px solid black'>","40","all_complex","images/complex/3.png","images/complex/4.png","images/complex/13.png,images/complex/11.png,images/complex/6.png,images/complex/9.png,images/complex/15.png,images/complex/10.png,images/complex/7.png","0","null","","200","370.1850000099512","","","","background"
"","null","html-keyboard-response","37","70604","0.0-14.0-0.11","SS1604516660396","","null","","","","","","","","","","","","<img src=images/blank.png width =""500"" height = ""500"" style=""border:5px solid black"">",""
"","130.95000000612345","stimulus-presentation","38","70952","0.0-14.0-1.11","SS1604516660396","<img src='images/complex/4.png' width ='500' height = '500' style='border:5px solid black'>","40","all_complex","images/complex/3.png","images/complex/4.png","images/complex/13.png,images/complex/11.png,images/complex/6.png,images/complex/9.png,images/complex/15.png,images/complex/10.png,images/complex/7.png","0","null","","200","330.95000000612345","","","","background"
"","null","html-keyboard-response","39","72118","0.0-14.0-0.12","SS1604516660396","","null","","","","","","","","","","","","<img src=images/blank.png width =""500"" height = ""500"" style=""border:5px solid black"">",""
"","115.45499999192543","stimulus-presentation","40","72454","0.0-14.0-1.12","SS1604516660396","<img src='images/complex/10.png' width ='500' height = '500' style='border:5px solid black'>","40","all_complex","images/complex/3.png","images/complex/4.png","images/complex/13.png,images/complex/11.png,images/complex/6.png,images/complex/9.png,images/complex/15.png,images/complex/10.png,images/complex/7.png","0","null","","200","315.45499999192543","","","","deviant"
"","null","html-keyboard-response","41","73348","0.0-14.0-0.13","SS1604516660396","","null","","","","","","","","","","","","<img src=images/blank.png width =""500"" height = ""500"" style=""border:5px solid black"">",""
"","144.95000000169966","stimulus-presentation","42","73712","0.0-14.0-1.13","SS1604516660396","<img src='images/complex/4.png' width ='500' height = '500' style='border:5px solid black'>","40","all_complex","images/complex/3.png","images/complex/4.png","images/complex/13.png,images/complex/11.png,images/complex/6.png,images/complex/9.png,images/complex/15.png,images/complex/10.png,images/complex/7.png","0","null","","200","344.95000000169966","","","","background"
"","null","html-keyboard-response","43","74992","0.0-14.0-0.14","SS1604516660396","","null","","","","","","","","","","","","<img src=images/blank.png width =""500"" height = ""500"" style=""border:5px solid black"">",""
"","202.19500000530388","stimulus-presentation","44","75414","0.0-14.0-1.14","SS1604516660396","<img src='images/complex/4.png' width ='500' height = '500' style='border:5px solid black'>","40","all_complex","images/complex/3.png","images/complex/4.png","images/complex/13.png,images/complex/11.png,images/complex/6.png,images/complex/9.png,images/complex/15.png,images/complex/10.png,images/complex/7.png","0","null","","200","402.1950000053039","","","","background"
"","null","html-keyboard-response","45","76454","0.0-14.0-0.15","SS1604516660396","","null","","","","","","","","","","","","<img src=images/blank.png width =""500"" height = ""500"" style=""border:5px solid black"">",""
"","85.67000000039116","stimulus-presentation","46","76758","0.0-14.0-1.15","SS1604516660396","<img src='images/complex/4.png' width ='500' height = '500' style='border:5px solid black'>","40","all_complex","images/complex/3.png","images/complex/4.png","images/complex/13.png,images/complex/11.png,images/complex/6.png,images/complex/9.png,images/complex/15.png,images/complex/10.png,images/complex/7.png","0","null","","200","285.67000000039116","","","","background"
"","null","html-keyboard-response","47","77979","0.0-14.0-0.16","SS1604516660396","","null","","","","","","","","","","","","<img src=images/blank.png width =""500"" height = ""500"" style=""border:5px solid black"">",""
"","130.86499999917578","stimulus-presentation","48","78326","0.0-14.0-1.16","SS1604516660396","<img src='images/complex/4.png' width ='500' height = '500' style='border:5px solid black'>","40","all_complex","images/complex/3.png","images/complex/4.png","images/complex/13.png,images/complex/11.png,images/complex/6.png,images/complex/9.png,images/complex/15.png,images/complex/10.png,images/complex/7.png","0","null","","200","330.8649999991758","","","","background"
"","null","html-keyboard-response","49","79204","0.0-14.0-0.17","SS1604516660396","","null","","","","","","","","","","","","<img src=images/blank.png width =""500"" height = ""500"" style=""border:5px solid black"">",""
"","137.43000000249594","stimulus-presentation","50","79556","0.0-14.0-1.17","SS1604516660396","<img src='images/complex/4.png' width ='500' height = '500' style='border:5px solid black'>","40","all_complex","images/complex/3.png","images/complex/4.png","images/complex/13.png,images/complex/11.png,images/complex/6.png,images/complex/9.png,images/complex/15.png,images/complex/10.png,images/complex/7.png","0","null","","200","337.43000000249594","","","","background"
"","null","html-keyboard-response","51","80736","0.0-14.0-0.18","SS1604516660396","","null","","","","","","","","","","","","<img src=images/blank.png width =""500"" height = ""500"" style=""border:5px solid black"">",""
"","59.31000001146458","stimulus-presentation","52","81014","0.0-14.0-1.18","SS1604516660396","<img src='images/complex/4.png' width ='500' height = '500' style='border:5px solid black'>","40","all_complex","images/complex/3.png","images/complex/4.png","images/complex/13.png,images/complex/11.png,images/complex/6.png,images/complex/9.png,images/complex/15.png,images/complex/10.png,images/complex/7.png","0","null","","200","259.3100000114646","","","","background"
"","null","html-keyboard-response","53","82325","0.0-14.0-0.19","SS1604516660396","","null","","","","","","","","","","","","<img src=images/blank.png width =""500"" height = ""500"" style=""border:5px solid black"">",""
"","118.77999998978339","stimulus-presentation","54","82660","0.0-14.0-1.19","SS1604516660396","<img src='images/complex/7.png' width ='500' height = '500' style='border:5px solid black'>","40","all_complex","images/complex/3.png","images/complex/4.png","images/complex/13.png,images/complex/11.png,images/complex/6.png,images/complex/9.png,images/complex/15.png,images/complex/10.png,images/complex/7.png","0","null","","200","318.7799999897834","","","","deviant"
"","null","html-keyboard-response","55","83853","0.0-14.0-0.20","SS1604516660396","","null","","","","","","","","","","","","<img src=images/blank.png width =""500"" height = ""500"" style=""border:5px solid black"">",""
"","257.24500000069384","stimulus-presentation","56","84335","0.0-14.0-1.20","SS1604516660396","<img src='images/complex/3.png' width ='500' height = '500' style='border:5px solid black'>","40","all_complex","images/complex/3.png","images/complex/4.png","images/complex/13.png,images/complex/11.png,images/complex/6.png,images/complex/9.png,images/complex/15.png,images/complex/10.png,images/complex/7.png","0","null","","200","457.24500000069384","","","","target"
"","null","html-keyboard-response","57","85621","0.0-14.0-0.21","SS1604516660396","","null","","","","","","","","","","","","<img src=images/blank.png width =""500"" height = ""500"" style=""border:5px solid black"">",""
"","330.00499999616295","stimulus-presentation","58","86168","0.0-14.0-1.21","SS1604516660396","<img src='images/complex/3.png' width ='500' height = '500' style='border:5px solid black'>","40","all_complex","images/complex/3.png","images/complex/4.png","images/complex/13.png,images/complex/11.png,images/complex/6.png,images/complex/9.png,images/complex/15.png,images/complex/10.png,images/complex/7.png","0","null","","200","530.004999996163","","","","target"
"","null","html-keyboard-response","59","87058","0.0-14.0-0.22","SS1604516660396","","null","","","","","","","","","","","","<img src=images/blank.png width =""500"" height = ""500"" style=""border:5px solid black"">",""
"","285.8450000057928","stimulus-presentation","60","87558","0.0-14.0-1.22","SS1604516660396","<img src='images/complex/4.png' width ='500' height = '500' style='border:5px solid black'>","40","all_complex","images/complex/3.png","images/complex/4.png","images/complex/13.png,images/complex/11.png,images/complex/6.png,images/complex/9.png,images/complex/15.png,images/complex/10.png,images/complex/7.png","0","null","","200","485.8450000057928","","","","background"
"","null","html-keyboard-response","61","88783","0.0-14.0-0.23","SS1604516660396","","null","","","","","","","","","","","","<img src=images/blank.png width =""500"" height = ""500"" style=""border:5px solid black"">",""
"","160.09000000485685","stimulus-presentation","62","89160","0.0-14.0-1.23","SS1604516660396","<img src='images/complex/4.png' width ='500' height = '500' style='border:5px solid black'>","40","all_complex","images/complex/3.png","images/complex/4.png","images/complex/13.png,images/complex/11.png,images/complex/6.png,images/complex/9.png,images/complex/15.png,images/complex/10.png,images/complex/7.png","0","null","","200","360.09000000485685","","","","background"
"","null","html-keyboard-response","63","90400","0.0-14.0-0.24","SS1604516660396","","null","","","","","","","","","","","","<img src=images/blank.png width =""500"" height = ""500"" style=""border:5px solid black"">",""
"","149.0650000050664","stimulus-presentation","64","90768","0.0-14.0-1.24","SS1604516660396","<img src='images/complex/4.png' width ='500' height = '500' style='border:5px solid black'>","40","all_complex","images/complex/3.png","images/complex/4.png","images/complex/13.png,images/complex/11.png,images/complex/6.png,images/complex/9.png,images/complex/15.png,images/complex/10.png,images/complex/7.png","0","null","","200","349.0650000050664","","","","background"
"","null","html-keyboard-response","65","92051","0.0-14.0-0.25","SS1604516660396","","null","","","","","","","","","","","","<img src=images/blank.png width =""500"" height = ""500"" style=""border:5px solid black"">",""
"","4710.7299999915995","stimulus-presentation","66","96978","0.0-14.0-1.25","SS1604516660396","<img src='images/complex/3.png' width ='500' height = '500' style='border:5px solid black'>","40","all_complex","images/complex/3.png","images/complex/4.png","images/complex/13.png,images/complex/11.png,images/complex/6.png,images/complex/9.png,images/complex/15.png,images/complex/10.png,images/complex/7.png","0","null","","200","4910.7299999915995","yes","3522.1699999965494","","target"
"","null","html-keyboard-response","67","98191","0.0-14.0-0.26","SS1604516660396","","null","","","","","","","","","","","","<img src=images/blank.png width =""500"" height = ""500"" style=""border:5px solid black"">",""
"","135.309999997844","stimulus-presentation","68","98542","0.0-14.0-1.26","SS1604516660396","<img src='images/complex/13.png' width ='500' height = '500' style='border:5px solid black'>","40","all_complex","images/complex/3.png","images/complex/4.png","images/complex/13.png,images/complex/11.png,images/complex/6.png,images/complex/9.png,images/complex/15.png,images/complex/10.png,images/complex/7.png","0","null","","200","335.309999997844","","","","deviant"
"","null","html-keyboard-response","69","99446","0.0-14.0-0.27","SS1604516660396","","null","","","","","","","","","","","","<img src=images/blank.png width =""500"" height = ""500"" style=""border:5px solid black"">",""
"","155.35000000090804","stimulus-presentation","70","99820","0.0-14.0-1.27","SS1604516660396","<img src='images/complex/3.png' width ='500' height = '500' style='border:5px solid black'>","40","all_complex","images/complex/3.png","images/complex/4.png","images/complex/13.png,images/complex/11.png,images/complex/6.png,images/complex/9.png,images/complex/15.png,images/complex/10.png,images/complex/7.png","0","null","","200","355.35000000090804","","","","target"
"","null","html-keyboard-response","71","100875","0.0-14.0-0.28","SS1604516660396","","null","","","","","","","","","","","","<img src=images/blank.png width =""500"" height = ""500"" style=""border:5px solid black"">",""
"","52.499999990686774","stimulus-presentation","72","101142","0.0-14.0-1.28","SS1604516660396","<img src='images/complex/4.png' width ='500' height = '500' style='border:5px solid black'>","40","all_complex","images/complex/3.png","images/complex/4.png","images/complex/13.png,images/complex/11.png,images/complex/6.png,images/complex/9.png,images/complex/15.png,images/complex/10.png,images/complex/7.png","0","null","","200","252.49999999068677","","","","background"
"","null","html-keyboard-response","73","102160","0.0-14.0-0.29","SS1604516660396","","null","","","","","","","","","","","","<img src=images/blank.png width =""500"" height = ""500"" style=""border:5px solid black"">",""
"","743.5799999948358","stimulus-presentation","74","103114","0.0-14.0-1.29","SS1604516660396","<img src='images/complex/4.png' width ='500' height = '500' style='border:5px solid black'>","40","all_complex","images/complex/3.png","images/complex/4.png","images/complex/13.png,images/complex/11.png,images/complex/6.png,images/complex/9.png,images/complex/15.png,images/complex/10.png,images/complex/7.png","0","null","","200","943.5799999948358","","","","background"
"","null","html-keyboard-response","75","103935","0.0-14.0-0.30","SS1604516660396","","null","","","","","","","","","","","","<img src=images/blank.png width =""500"" height = ""500"" style=""border:5px solid black"">",""
"","127.88000000000466","stimulus-presentation","76","104278","0.0-14.0-1.30","SS1604516660396","<img src='images/complex/3.png' width ='500' height = '500' style='border:5px solid black'>","40","all_complex","images/complex/3.png","images/complex/4.png","images/complex/13.png,images/complex/11.png,images/complex/6.png,images/complex/9.png,images/complex/15.png,images/complex/10.png,images/complex/7.png","0","null","","200","327.88000000000466","","","","target"
"","null","html-keyboard-response","77","105273","0.0-14.0-0.31","SS1604516660396","","null","","","","","","","","","","","","<img src=images/blank.png width =""500"" height = ""500"" style=""border:5px solid black"">",""
"","111.27999999735039","stimulus-presentation","78","105602","0.0-14.0-1.31","SS1604516660396","<img src='images/complex/4.png' width ='500' height = '500' style='border:5px solid black'>","40","all_complex","images/complex/3.png","images/complex/4.png","images/complex/13.png,images/complex/11.png,images/complex/6.png,images/complex/9.png,images/complex/15.png,images/complex/10.png,images/complex/7.png","0","null","","200","311.2799999973504","","","","background"
"","null","html-keyboard-response","79","106449","0.0-14.0-0.32","SS1604516660396","","null","","","","","","","","","","","","<img src=images/blank.png width =""500"" height = ""500"" style=""border:5px solid black"">",""
"","207.48499999172054","stimulus-presentation","80","106874","0.0-14.0-1.32","SS1604516660396","<img src='images/complex/4.png' width ='500' height = '500' style='border:5px solid black'>","40","all_complex","images/complex/3.png","images/complex/4.png","images/complex/13.png,images/complex/11.png,images/complex/6.png,images/complex/9.png,images/complex/15.png,images/complex/10.png,images/complex/7.png","0","null","","200","407.48499999172054","","","","background"
"","null","html-keyboard-response","81","108181","0.0-14.0-0.33","SS1604516660396","","null","","","","","","","","","","","","<img src=images/blank.png width =""500"" height = ""500"" style=""border:5px solid black"">",""
"","235.5449999886332","stimulus-presentation","82","108630","0.0-14.0-1.33","SS1604516660396","<img src='images/complex/3.png' width ='500' height = '500' style='border:5px solid black'>","40","all_complex","images/complex/3.png","images/complex/4.png","images/complex/13.png,images/complex/11.png,images/complex/6.png,images/complex/9.png,images/complex/15.png,images/complex/10.png,images/complex/7.png","0","null","","200","435.5449999886332","","","","target"
"","null","html-keyboard-response","83","109629","0.0-14.0-0.34","SS1604516660396","","null","","","","","","","","","","","","<img src=images/blank.png width =""500"" height = ""500"" style=""border:5px solid black"">",""
"","185.63500000163913","stimulus-presentation","84","110032","0.0-14.0-1.34","SS1604516660396","<img src='images/complex/11.png' width ='500' height = '500' style='border:5px solid black'>","40","all_complex","images/complex/3.png","images/complex/4.png","images/complex/13.png,images/complex/11.png,images/complex/6.png,images/complex/9.png,images/complex/15.png,images/complex/10.png,images/complex/7.png","0","null","","200","385.6350000016391","","","","deviant"
"","null","html-keyboard-response","85","111044","0.0-14.0-0.35","SS1604516660396","","null","","","","","","","","","","","","<img src=images/blank.png width =""500"" height = ""500"" style=""border:5px solid black"">",""
"","89.20999999099877","stimulus-presentation","86","111352","0.0-14.0-1.35","SS1604516660396","<img src='images/complex/4.png' width ='500' height = '500' style='border:5px solid black'>","40","all_complex","images/complex/3.png","images/complex/4.png","images/complex/13.png,images/complex/11.png,images/complex/6.png,images/complex/9.png,images/complex/15.png,images/complex/10.png,images/complex/7.png","0","null","","200","289.20999999099877","","","","background"
"","null","html-keyboard-response","87","112442","0.0-14.0-0.36","SS1604516660396","","null","","","","","","","","","","","","<img src=images/blank.png width =""500"" height = ""500"" style=""border:5px solid black"">",""
"","64.36000000394415","stimulus-presentation","88","112726","0.0-14.0-1.36","SS1604516660396","<img src='images/complex/4.png' width ='500' height = '500' style='border:5px solid black'>","40","all_complex","images/complex/3.png","images/complex/4.png","images/complex/13.png,images/complex/11.png,images/complex/6.png,images/complex/9.png,images/complex/15.png,images/complex/10.png,images/complex/7.png","0","null","","200","264.36000000394415","","","","background"
"","null","html-keyboard-response","89","113999","0.0-14.0-0.37","SS1604516660396","","null","","","","","","","","","","","","<img src=images/blank.png width =""500"" height = ""500"" style=""border:5px solid black"">",""
"","17.550000004121102","stimulus-presentation","90","114233","0.0-14.0-1.37","SS1604516660396","<img src='images/complex/4.png' width ='500' height = '500' style='border:5px solid black'>","40","all_complex","images/complex/3.png","images/complex/4.png","images/complex/13.png,images/complex/11.png,images/complex/6.png,images/complex/9.png,images/complex/15.png,images/complex/10.png,images/complex/7.png","0","null","","200","217.5500000041211","","","","background"
"","null","html-keyboard-response","91","115493","0.0-14.0-0.38","SS1604516660396","","null","","","","","","","","","","","","<img src=images/blank.png width =""500"" height = ""500"" style=""border:5px solid black"">",""
"","15.519999986281618","stimulus-presentation","92","115726","0.0-14.0-1.38","SS1604516660396","<img src='images/complex/4.png' width ='500' height = '500' style='border:5px solid black'>","40","all_complex","images/complex/3.png","images/complex/4.png","images/complex/13.png,images/complex/11.png,images/complex/6.png,images/complex/9.png,images/complex/15.png,images/complex/10.png,images/complex/7.png","0","null","","200","215.51999998628162","","","","background"
"","null","html-keyboard-response","93","116556","0.0-14.0-0.39","SS1604516660396","","null","","","","","","","","","","","","<img src=images/blank.png width =""500"" height = ""500"" style=""border:5px solid black"">",""
"","136.15500000014435","stimulus-presentation","94","116910","0.0-14.0-1.39","SS1604516660396","<img src='images/complex/4.png' width ='500' height = '500' style='border:5px solid black'>","40","all_complex","images/complex/3.png","images/complex/4.png","images/complex/13.png,images/complex/11.png,images/complex/6.png,images/complex/9.png,images/complex/15.png,images/complex/10.png,images/complex/7.png","0","null","","200","336.15500000014435","","","","background"
"","null","html-keyboard-response","95","118225","0.0-14.0-0.40","SS1604516660396","","null","","","","","","","","","","","","<img src=images/blank.png width =""500"" height = ""500"" style=""border:5px solid black"">",""
"","107.65000000537839","stimulus-presentation","96","118566","0.0-14.0-1.40","SS1604516660396","<img src='images/complex/4.png' width ='500' height = '500' style='border:5px solid black'>","40","all_complex","images/complex/3.png","images/complex/4.png","images/complex/13.png,images/complex/11.png,images/complex/6.png,images/complex/9.png,images/complex/15.png,images/complex/10.png,images/complex/7.png","0","null","","200","307.6500000053784","","","","background"
"","null","html-keyboard-response","97","119657","0.0-14.0-0.41","SS1604516660396","","null","","","","","","","","","","","","<img src=images/blank.png width =""500"" height = ""500"" style=""border:5px solid black"">",""
"","16.010000006644987","stimulus-presentation","98","119887","0.0-14.0-1.41","SS1604516660396","<img src='images/complex/4.png' width ='500' height = '500' style='border:5px solid black'>","40","all_complex","images/complex/3.png","images/complex/4.png","images/complex/13.png,images/complex/11.png,images/complex/6.png,images/complex/9.png,images/complex/15.png,images/complex/10.png,images/complex/7.png","0","null","","200","216.010000006645","","","","background"
"","null","html-keyboard-response","99","121082","0.0-14.0-0.42","SS1604516660396","","null","","","","","","","","","","","","<img src=images/blank.png width =""500"" height = ""500"" style=""border:5px solid black"">",""
"","233.01500000525266","stimulus-presentation","100","121530","0.0-14.0-1.42","SS1604516660396","<img src='images/complex/4.png' width ='500' height = '500' style='border:5px solid black'>","40","all_complex","images/complex/3.png","images/complex/4.png","images/complex/13.png,images/complex/11.png,images/complex/6.png,images/complex/9.png,images/complex/15.png,images/complex/10.png,images/complex/7.png","0","null","","200","433.01500000525266","","","","background"
"","null","html-keyboard-response","101","122360","0.0-14.0-0.43","SS1604516660396","","null","","","","","","","","","","","","<img src=images/blank.png width =""500"" height = ""500"" style=""border:5px solid black"">",""
"","34.945000006700866","stimulus-presentation","102","122614","0.0-14.0-1.43","SS1604516660396","<img src='images/complex/4.png' width ='500' height = '500' style='border:5px solid black'>","40","all_complex","images/complex/3.png","images/complex/4.png","images/complex/13.png,images/complex/11.png,images/complex/6.png,images/complex/9.png,images/complex/15.png,images/complex/10.png,images/complex/7.png","0","null","","200","234.94500000670087","","","","background"
"","null","html-keyboard-response","103","123615","0.0-14.0-0.44","SS1604516660396","","null","","","","","","","","","","","","<img src=images/blank.png width =""500"" height = ""500"" style=""border:5px solid black"">",""
"","235.05000000295695","stimulus-presentation","104","124064","0.0-14.0-1.44","SS1604516660396","<img src='images/complex/9.png' width ='500' height = '500' style='border:5px solid black'>","40","all_complex","images/complex/3.png","images/complex/4.png","images/complex/13.png,images/complex/11.png,images/complex/6.png,images/complex/9.png,images/complex/15.png,images/complex/10.png,images/complex/7.png","0","null","","200","435.05000000295695","","","","deviant"
"","null","html-keyboard-response","105","124885","0.0-14.0-0.45","SS1604516660396","","null","","","","","","","","","","","","<img src=images/blank.png width =""500"" height = ""500"" style=""border:5px solid black"">",""
"","7.989999998244457","stimulus-presentation","106","125110","0.0-14.0-1.45","SS1604516660396","<img src='images/complex/4.png' width ='500' height = '500' style='border:5px solid black'>","40","all_complex","images/complex/3.png","images/complex/4.png","images/complex/13.png,images/complex/11.png,images/complex/6.png,images/complex/9.png,images/complex/15.png,images/complex/10.png,images/complex/7.png","0","null","","200","207.98999999824446","","","","background"
"","null","html-keyboard-response","107","126130","0.0-14.0-0.46","SS1604516660396","","null","","","","","","","","","","","","<img src=images/blank.png width =""500"" height = ""500"" style=""border:5px solid black"">",""
"","128.58000000414904","stimulus-presentation","108","126478","0.0-14.0-1.46","SS1604516660396","<img src='images/complex/4.png' width ='500' height = '500' style='border:5px solid black'>","40","all_complex","images/complex/3.png","images/complex/4.png","images/complex/13.png,images/complex/11.png,images/complex/6.png,images/complex/9.png,images/complex/15.png,images/complex/10.png,images/complex/7.png","0","null","","200","328.58000000414904","","","","background"
"","null","html-keyboard-response","109","127617","0.0-14.0-0.47","SS1604516660396","","null","","","","","","","","","","","","<img src=images/blank.png width =""500"" height = ""500"" style=""border:5px solid black"">",""
"","103.92999999749009","stimulus-presentation","110","127939","0.0-14.0-1.47","SS1604516660396","<img src='images/complex/4.png' width ='500' height = '500' style='border:5px solid black'>","40","all_complex","images/complex/3.png","images/complex/4.png","images/complex/13.png,images/complex/11.png,images/complex/6.png,images/complex/9.png,images/complex/15.png,images/complex/10.png,images/complex/7.png","0","null","","200","303.9299999974901","","","","background"
"","null","html-keyboard-response","111","129188","0.0-14.0-0.48","SS1604516660396","","null","","","","","","","","","","","","<img src=images/blank.png width =""500"" height = ""500"" style=""border:5px solid black"">",""
"","139.0899999969406","stimulus-presentation","112","129544","0.0-14.0-1.48","SS1604516660396","<img src='images/complex/4.png' width ='500' height = '500' style='border:5px solid black'>","40","all_complex","images/complex/3.png","images/complex/4.png","images/complex/13.png,images/complex/11.png,images/complex/6.png,images/complex/9.png,images/complex/15.png,images/complex/10.png,images/complex/7.png","0","null","","200","339.0899999969406","","","","background"
"[{""page_index"":0,""viewing_time"":2180}]","2181","task-instructions","113","131733","0.0-15.0","SS1604516660396","","","","","","","","","","","","","","",""
"[{""page_index"":0,""viewing_time"":1653.360000011162},{""page_index"":1,""viewing_time"":3111.9349999935366},{""page_index"":2,""viewing_time"":1008.0049999960465}]","5773.605000009411","instructions","114","137509","0.0-16.0","SS1604516660396","","","","","","","","","","","","","","",""
"","null","html-keyboard-response","115","138350","0.0-17.0-0.0","SS1604516660396","","null","","","","","","","","","","","","<img src=images/blank.png width =""500"" height = ""500"" style=""border:5px solid black"">",""
"","436.89500000618864","stimulus-presentation","116","139004","0.0-17.0-1.0","SS1604516660396","<img src='images/simple/11.png' width ='500' height = '500' style='border:5px solid black'>","40","all_simple","images/simple/17.png","images/simple/2.png","images/simple/14.png,images/simple/3.png,images/simple/11.png,images/simple/10.png,images/simple/12.png,images/simple/15.png,images/simple/13.png","1","null","","200","636.8950000061886","","","","deviant"
"","null","html-keyboard-response","117","140101","0.0-17.0-0.1","SS1604516660396","","null","","","","","","","","","","","","<img src=images/blank.png width =""500"" height = ""500"" style=""border:5px solid black"">",""
"","156.44500000053085","stimulus-presentation","118","140476","0.0-17.0-1.1","SS1604516660396","<img src='images/simple/17.png' width ='500' height = '500' style='border:5px solid black'>","40","all_simple","images/simple/17.png","images/simple/2.png","images/simple/14.png,images/simple/3.png,images/simple/11.png,images/simple/10.png,images/simple/12.png,images/simple/15.png,images/simple/13.png","1","null","","200","356.44500000053085","","","","target"
"","null","html-keyboard-response","119","141504","0.0-17.0-0.2","SS1604516660396","","null","","","","","","","","","","","","<img src=images/blank.png width =""500"" height = ""500"" style=""border:5px solid black"">",""
"","96.01999999722466","stimulus-presentation","120","141818","0.0-17.0-1.2","SS1604516660396","<img src='images/simple/17.png' width ='500' height = '500' style='border:5px solid black'>","40","all_simple","images/simple/17.png","images/simple/2.png","images/simple/14.png,images/simple/3.png,images/simple/11.png,images/simple/10.png,images/simple/12.png,images/simple/15.png,images/simple/13.png","1","null","","200","296.01999999722466","","","","target"
"","null","html-keyboard-response","121","142916","0.0-17.0-0.3","SS1604516660396","","null","","","","","","","","","","","","<img src=images/blank.png width =""500"" height = ""500"" style=""border:5px solid black"">",""
"","81.22999999613967","stimulus-presentation","122","143219","0.0-17.0-1.3","SS1604516660396","<img src='images/simple/17.png' width ='500' height = '500' style='border:5px solid black'>","40","all_simple","images/simple/17.png","images/simple/2.png","images/simple/14.png,images/simple/3.png,images/simple/11.png,images/simple/10.png,images/simple/12.png,images/simple/15.png,images/simple/13.png","1","null","","200","281.22999999613967","","","","target"
"","null","html-keyboard-response","123","144475","0.0-17.0-0.4","SS1604516660396","","null","","","","","","","","","","","","<img src=images/blank.png width =""500"" height = ""500"" style=""border:5px solid black"">",""
"","206.63500000955537","stimulus-presentation","124","144898","0.0-17.0-1.4","SS1604516660396","<img src='images/simple/2.png' width ='500' height = '500' style='border:5px solid black'>","40","all_simple","images/simple/17.png","images/simple/2.png","images/simple/14.png,images/simple/3.png,images/simple/11.png,images/simple/10.png,images/simple/12.png,images/simple/15.png,images/simple/13.png","1","null","","200","406.63500000955537","","","","background"
"","null","html-keyboard-response","125","145834","0.0-17.0-0.5","SS1604516660396","","null","","","","","","","","","","","","<img src=images/blank.png width =""500"" height = ""500"" style=""border:5px solid black"">",""
"","62.019999997573905","stimulus-presentation","126","146112","0.0-17.0-1.5","SS1604516660396","<img src='images/simple/15.png' width ='500' height = '500' style='border:5px solid black'>","40","all_simple","images/simple/17.png","images/simple/2.png","images/simple/14.png,images/simple/3.png,images/simple/11.png,images/simple/10.png,images/simple/12.png,images/simple/15.png,images/simple/13.png","1","null","","200","262.0199999975739","","","","deviant"
"","null","html-keyboard-response","127","146995","0.0-17.0-0.6","SS1604516660396","","null","","","","","","","","","","","","<img src=images/blank.png width =""500"" height = ""500"" style=""border:5px solid black"">",""
"","68.10499999846797","stimulus-presentation","128","147278","0.0-17.0-1.6","SS1604516660396","<img src='images/simple/2.png' width ='500' height = '500' style='border:5px solid black'>","40","all_simple","images/simple/17.png","images/simple/2.png","images/simple/14.png,images/simple/3.png,images/simple/11.png,images/simple/10.png,images/simple/12.png,images/simple/15.png,images/simple/13.png","1","null","","200","268.104999998468","","","","background"
"","null","html-keyboard-response","129","148514","0.0-17.0-0.7","SS1604516660396","","null","","","","","","","","","","","","<img src=images/blank.png width =""500"" height = ""500"" style=""border:5px solid black"">",""
"","140.1049999985844","stimulus-presentation","130","148872","0.0-17.0-1.7","SS1604516660396","<img src='images/simple/2.png' width ='500' height = '500' style='border:5px solid black'>","40","all_simple","images/simple/17.png","images/simple/2.png","images/simple/14.png,images/simple/3.png,images/simple/11.png,images/simple/10.png,images/simple/12.png,images/simple/15.png,images/simple/13.png","1","null","","200","340.1049999985844","","","","background"
"","null","html-keyboard-response","131","150023","0.0-17.0-0.8","SS1604516660396","","null","","","","","","","","","","","","<img src=images/blank.png width =""500"" height = ""500"" style=""border:5px solid black"">",""
"","121.45999999484047","stimulus-presentation","132","150362","0.0-17.0-1.8","SS1604516660396","<img src='images/simple/2.png' width ='500' height = '500' style='border:5px solid black'>","40","all_simple","images/simple/17.png","images/simple/2.png","images/simple/14.png,images/simple/3.png,images/simple/11.png,images/simple/10.png,images/simple/12.png,images/simple/15.png,images/simple/13.png","1","null","","200","321.4599999948405","","","","background"
"","null","html-keyboard-response","133","151280","0.0-17.0-0.9","SS1604516660396","","null","","","","","","","","","","","","<img src=images/blank.png width =""500"" height = ""500"" style=""border:5px solid black"">",""
"","192.45500001125038","stimulus-presentation","134","151690","0.0-17.0-1.9","SS1604516660396","<img src='images/simple/2.png' width ='500' height = '500' style='border:5px solid black'>","40","all_simple","images/simple/17.png","images/simple/2.png","images/simple/14.png,images/simple/3.png,images/simple/11.png,images/simple/10.png,images/simple/12.png,images/simple/15.png,images/simple/13.png","1","null","","200","392.4550000112504","yes","104.57500000484288","","background"
"","null","html-keyboard-response","135","153005","0.0-17.0-0.10","SS1604516660396","","null","","","","","","","","","","","","<img src=images/blank.png width =""500"" height = ""500"" style=""border:5px solid black"">",""
"","55.98499999905471","stimulus-presentation","136","153276","0.0-17.0-1.10","SS1604516660396","<img src='images/simple/2.png' width ='500' height = '500' style='border:5px solid black'>","40","all_simple","images/simple/17.png","images/simple/2.png","images/simple/14.png,images/simple/3.png,images/simple/11.png,images/simple/10.png,images/simple/12.png,images/simple/15.png,images/simple/13.png","1","null","","200","255.9849999990547","","","","background"
"","null","html-keyboard-response","137","154108","0.0-17.0-0.11","SS1604516660396","","null","","","","","","","","","","","","<img src=images/blank.png width =""500"" height = ""500"" style=""border:5px solid black"">",""
"","191.2750000046799","stimulus-presentation","138","154518","0.0-17.0-1.11","SS1604516660396","<img src='images/simple/2.png' width ='500' height = '500' style='border:5px solid black'>","40","all_simple","images/simple/17.png","images/simple/2.png","images/simple/14.png,images/simple/3.png,images/simple/11.png,images/simple/10.png,images/simple/12.png,images/simple/15.png,images/simple/13.png","1","null","","200","391.2750000046799","","","","background"
"","null","html-keyboard-response","139","155604","0.0-17.0-0.12","SS1604516660396","","null","","","","","","","","","","","","<img src=images/blank.png width =""500"" height = ""500"" style=""border:5px solid black"">",""
"","2.8750000055879354","stimulus-presentation","140","155826","0.0-17.0-1.12","SS1604516660396","<img src='images/simple/2.png' width ='500' height = '500' style='border:5px solid black'>","40","all_simple","images/simple/17.png","images/simple/2.png","images/simple/14.png,images/simple/3.png,images/simple/11.png,images/simple/10.png,images/simple/12.png,images/simple/15.png,images/simple/13.png","1","null","","200","202.87500000558794","","","","background"
"","null","html-keyboard-response","141","156798","0.0-17.0-0.13","SS1604516660396","","null","","","","","","","","","","","","<img src=images/blank.png width =""500"" height = ""500"" style=""border:5px solid black"">",""
"","155.06000000459608","stimulus-presentation","142","157170","0.0-17.0-1.13","SS1604516660396","<img src='images/simple/2.png' width ='500' height = '500' style='border:5px solid black'>","40","all_simple","images/simple/17.png","images/simple/2.png","images/simple/14.png,images/simple/3.png,images/simple/11.png,images/simple/10.png,images/simple/12.png,images/simple/15.png,images/simple/13.png","1","null","","200","355.0600000045961","","","","background"
"","null","html-keyboard-response","143","158386","0.0-17.0-0.14","SS1604516660396","","null","","","","","","","","","","","","<img src=images/blank.png width =""500"" height = ""500"" style=""border:5px solid black"">",""
"","93.4549999947194","stimulus-presentation","144","158698","0.0-17.0-1.14","SS1604516660396","<img src='images/simple/2.png' width ='500' height = '500' style='border:5px solid black'>","40","all_simple","images/simple/17.png","images/simple/2.png","images/simple/14.png,images/simple/3.png,images/simple/11.png,images/simple/10.png,images/simple/12.png,images/simple/15.png,images/simple/13.png","1","null","","200","293.4549999947194","","","","background"
"","null","html-keyboard-response","145","159650","0.0-17.0-0.15","SS1604516660396","","null","","","","","","","","","","","","<img src=images/blank.png width =""500"" height = ""500"" style=""border:5px solid black"">",""
"","91.9749999884516","stimulus-presentation","146","159958","0.0-17.0-1.15","SS1604516660396","<img src='images/simple/17.png' width ='500' height = '500' style='border:5px solid black'>","40","all_simple","images/simple/17.png","images/simple/2.png","images/simple/14.png,images/simple/3.png,images/simple/11.png,images/simple/10.png,images/simple/12.png,images/simple/15.png,images/simple/13.png","1","null","","200","291.9749999884516","","","","target"
"","null","html-keyboard-response","147","160906","0.0-17.0-0.16","SS1604516660396","","null","","","","","","","","","","","","<img src=images/blank.png width =""500"" height = ""500"" style=""border:5px solid black"">",""
"","132.4400000012247","stimulus-presentation","148","161256","0.0-17.0-1.16","SS1604516660396","<img src='images/simple/2.png' width ='500' height = '500' style='border:5px solid black'>","40","all_simple","images/simple/17.png","images/simple/2.png","images/simple/14.png,images/simple/3.png,images/simple/11.png,images/simple/10.png,images/simple/12.png,images/simple/15.png,images/simple/13.png","1","null","","200","332.4400000012247","","","","background"
"","null","html-keyboard-response","149","162322","0.0-17.0-0.17","SS1604516660396","","null","","","","","","","","","","","","<img src=images/blank.png width =""500"" height = ""500"" style=""border:5px solid black"">",""
"","144.28500000212807","stimulus-presentation","150","162684","0.0-17.0-1.17","SS1604516660396","<img src='images/simple/2.png' width ='500' height = '500' style='border:5px solid black'>","40","all_simple","images/simple/17.png","images/simple/2.png","images/simple/14.png,images/simple/3.png,images/simple/11.png,images/simple/10.png,images/simple/12.png,images/simple/15.png,images/simple/13.png","1","null","","200","344.2850000021281","","","","background"
"","null","html-keyboard-response","151","163912","0.0-17.0-0.18","SS1604516660396","","null","","","","","","","","","","","","<img src=images/blank.png width =""500"" height = ""500"" style=""border:5px solid black"">",""
"","213.35499999986496","stimulus-presentation","152","164346","0.0-17.0-1.18","SS1604516660396","<img src='images/simple/14.png' width ='500' height = '500' style='border:5px solid black'>","40","all_simple","images/simple/17.png","images/simple/2.png","images/simple/14.png,images/simple/3.png,images/simple/11.png,images/simple/10.png,images/simple/12.png,images/simple/15.png,images/simple/13.png","1","null","","200","413.35499999986496","","","","deviant"
"","null","html-keyboard-response","153","165318","0.0-17.0-0.19","SS1604516660396","","null","","","","","","","","","","","","<img src=images/blank.png width =""500"" height = ""500"" style=""border:5px solid black"">",""
"","196.92000000213739","stimulus-presentation","154","165722","0.0-17.0-1.19","SS1604516660396","<img src='images/simple/2.png' width ='500' height = '500' style='border:5px solid black'>","40","all_simple","images/simple/17.png","images/simple/2.png","images/simple/14.png,images/simple/3.png,images/simple/11.png,images/simple/10.png,images/simple/12.png,images/simple/15.png,images/simple/13.png","1","null","","200","396.9200000021374","","","","background"
"","null","html-keyboard-response","155","166799","0.0-17.0-0.20","SS1604516660396","","null","","","","","","","","","","","","<img src=images/blank.png width =""500"" height = ""500"" style=""border:5px solid black"">",""
"","5.789999995613471","stimulus-presentation","156","167036","0.0-17.0-1.20","SS1604516660396","<img src='images/simple/2.png' width ='500' height = '500' style='border:5px solid black'>","40","all_simple","images/simple/17.png","images/simple/2.png","images/simple/14.png,images/simple/3.png,images/simple/11.png,images/simple/10.png,images/simple/12.png,images/simple/15.png,images/simple/13.png","1","null","","200","205.78999999561347","","","","background"
"","null","html-keyboard-response","157","167853","0.0-17.0-0.21","SS1604516660396","","null","","","","","","","","","","","","<img src=images/blank.png width =""500"" height = ""500"" style=""border:5px solid black"">",""
"","106.89999999885913","stimulus-presentation","158","168174","0.0-17.0-1.21","SS1604516660396","<img src='images/simple/2.png' width ='500' height = '500' style='border:5px solid black'>","40","all_simple","images/simple/17.png","images/simple/2.png","images/simple/14.png,images/simple/3.png,images/simple/11.png,images/simple/10.png,images/simple/12.png,images/simple/15.png,images/simple/13.png","1","null","","200","306.89999999885913","","","","background"
"","null","html-keyboard-response","159","169143","0.0-17.0-0.22","SS1604516660396","","null","","","","","","","","","","","","<img src=images/blank.png width =""500"" height = ""500"" style=""border:5px solid black"">",""
"","123.43500000133645","stimulus-presentation","160","169484","0.0-17.0-1.22","SS1604516660396","<img src='images/simple/17.png' width ='500' height = '500' style='border:5px solid black'>","40","all_simple","images/simple/17.png","images/simple/2.png","images/simple/14.png,images/simple/3.png,images/simple/11.png,images/simple/10.png,images/simple/12.png,images/simple/15.png,images/simple/13.png","1","null","","200","323.43500000133645","yes","34.21499999240041","","target"
"","null","html-keyboard-response","161","170557","0.0-17.0-0.23","SS1604516660396","","null","","","","","","","","","","","","<img src=images/blank.png width =""500"" height = ""500"" style=""border:5px solid black"">",""
"","328.9749999967171","stimulus-presentation","162","171089","0.0-17.0-1.23","SS1604516660396","<img src='images/simple/2.png' width ='500' height = '500' style='border:5px solid black'>","40","all_simple","images/simple/17.png","images/simple/2.png","images/simple/14.png,images/simple/3.png,images/simple/11.png,images/simple/10.png,images/simple/12.png,images/simple/15.png,images/simple/13.png","1","null","","200","528.9749999967171","yes","142.61499998974614","","background"
"","null","html-keyboard-response","163","172367","0.0-17.0-0.24","SS1604516660396","","null","","","","","","","","","","","","<img src=images/blank.png width =""500"" height = ""500"" style=""border:5px solid black"">",""
"","128.07999999495223","stimulus-presentation","164","172701","0.0-17.0-1.24","SS1604516660396","<img src='images/simple/3.png' width ='500' height = '500' style='border:5px solid black'>","40","all_simple","images/simple/17.png","images/simple/2.png","images/simple/14.png,images/simple/3.png,images/simple/11.png,images/simple/10.png,images/simple/12.png,images/simple/15.png,images/simple/13.png","1","null","","200","328.07999999495223","yes","103.05000000516884","","deviant"
"","null","html-keyboard-response","165","173930","0.0-17.0-0.25","SS1604516660396","","null","","","","","","","","","","","","<img src=images/blank.png width =""500"" height = ""500"" style=""border:5px solid black"">",""
"","193.25499999104068","stimulus-presentation","166","174338","0.0-17.0-1.25","SS1604516660396","<img src='images/simple/2.png' width ='500' height = '500' style='border:5px solid black'>","40","all_simple","images/simple/17.png","images/simple/2.png","images/simple/14.png,images/simple/3.png,images/simple/11.png,images/simple/10.png,images/simple/12.png,images/simple/15.png,images/simple/13.png","1","null","","200","393.2549999910407","","","","background"
"","null","html-keyboard-response","167","175505","0.0-17.0-0.26","SS1604516660396","","null","","","","","","","","","","","","<img src=images/blank.png width =""500"" height = ""500"" style=""border:5px solid black"">",""
"","153.44999999797437","stimulus-presentation","168","175878","0.0-17.0-1.26","SS1604516660396","<img src='images/simple/2.png' width ='500' height = '500' style='border:5px solid black'>","40","all_simple","images/simple/17.png","images/simple/2.png","images/simple/14.png,images/simple/3.png,images/simple/11.png,images/simple/10.png,images/simple/12.png,images/simple/15.png,images/simple/13.png","1","null","","200","353.4499999979744","yes","89.64999999443535","","background"
"","null","html-keyboard-response","169","177030","0.0-17.0-0.27","SS1604516660396","","null","","","","","","","","","","","","<img src=images/blank.png width =""500"" height = ""500"" style=""border:5px solid black"">",""
"","193.98999999975786","stimulus-presentation","170","177440","0.0-17.0-1.27","SS1604516660396","<img src='images/simple/2.png' width ='500' height = '500' style='border:5px solid black'>","40","all_simple","images/simple/17.png","images/simple/2.png","images/simple/14.png,images/simple/3.png,images/simple/11.png,images/simple/10.png,images/simple/12.png,images/simple/15.png,images/simple/13.png","1","null","","200","393.98999999975786","yes","76.33999999961816","","background"
"","null","html-keyboard-response","171","178512","0.0-17.0-0.28","SS1604516660396","","null","","","","","","","","","","","","<img src=images/blank.png width =""500"" height = ""500"" style=""border:5px solid black"">",""
"","170.7100000057835","stimulus-presentation","172","178902","0.0-17.0-1.28","SS1604516660396","<img src='images/simple/2.png' width ='500' height = '500' style='border:5px solid black'>","40","all_simple","images/simple/17.png","images/simple/2.png","images/simple/14.png,images/simple/3.png,images/simple/11.png,images/simple/10.png,images/simple/12.png,images/simple/15.png,images/simple/13.png","1","null","","200","370.7100000057835","yes","162.76000000652857","","background"
"","null","html-keyboard-response","173","180196","0.0-17.0-0.29","SS1604516660396","","null","","","","","","","","","","","","<img src=images/blank.png width =""500"" height = ""500"" style=""border:5px solid black"">",""
"","120.2049999992596","stimulus-presentation","174","180534","0.0-17.0-1.29","SS1604516660396","<img src='images/simple/12.png' width ='500' height = '500' style='border:5px solid black'>","40","all_simple","images/simple/17.png","images/simple/2.png","images/simple/14.png,images/simple/3.png,images/simple/11.png,images/simple/10.png,images/simple/12.png,images/simple/15.png,images/simple/13.png","1","null","","200","320.2049999992596","","","","deviant"
"","null","html-keyboard-response","175","181534","0.0-17.0-0.30","SS1604516660396","","null","","","","","","","","","","","","<img src=images/blank.png width =""500"" height = ""500"" style=""border:5px solid black"">",""
"","63.74999998661224","stimulus-presentation","176","181816","0.0-17.0-1.30","SS1604516660396","<img src='images/simple/2.png' width ='500' height = '500' style='border:5px solid black'>","40","all_simple","images/simple/17.png","images/simple/2.png","images/simple/14.png,images/simple/3.png,images/simple/11.png,images/simple/10.png,images/simple/12.png,images/simple/15.png,images/simple/13.png","1","null","","200","263.74999998661224","","","","background"
"","null","html-keyboard-response","177","182856","0.0-17.0-0.31","SS1604516660396","","null","","","","","","","","","","","","<img src=images/blank.png width =""500"" height = ""500"" style=""border:5px solid black"">",""
"","47.495000006165355","stimulus-presentation","178","183118","0.0-17.0-1.31","SS1604516660396","<img src='images/simple/2.png' width ='500' height = '500' style='border:5px solid black'>","40","all_simple","images/simple/17.png","images/simple/2.png","images/simple/14.png,images/simple/3.png,images/simple/11.png,images/simple/10.png,images/simple/12.png,images/simple/15.png,images/simple/13.png","1","null","","200","247.49500000616536","","","","background"
"","null","html-keyboard-response","179","184347","0.0-17.0-0.32","SS1604516660396","","null","","","","","","","","","","","","<img src=images/blank.png width =""500"" height = ""500"" style=""border:5px solid black"">",""
"","28.169999990495853","stimulus-presentation","180","184580","0.0-17.0-1.32","SS1604516660396","<img src='images/simple/2.png' width ='500' height = '500' style='border:5px solid black'>","40","all_simple","images/simple/17.png","images/simple/2.png","images/simple/14.png,images/simple/3.png,images/simple/11.png,images/simple/10.png,images/simple/12.png,images/simple/15.png,images/simple/13.png","1","null","","200","228.16999999049585","","","","background"
"","null","html-keyboard-response","181","185833","0.0-17.0-0.33","SS1604516660396","","null","","","","","","","","","","","","<img src=images/blank.png width =""500"" height = ""500"" style=""border:5px solid black"">",""
"","86.28500001213979","stimulus-presentation","182","186150","0.0-17.0-1.33","SS1604516660396","<img src='images/simple/2.png' width ='500' height = '500' style='border:5px solid black'>","40","all_simple","images/simple/17.png","images/simple/2.png","images/simple/14.png,images/simple/3.png,images/simple/11.png,images/simple/10.png,images/simple/12.png,images/simple/15.png,images/simple/13.png","1","null","","200","286.2850000121398","","","","background"
"","null","html-keyboard-response","183","187246","0.0-17.0-0.34","SS1604516660396","","null","","","","","","","","","","","","<img src=images/blank.png width =""500"" height = ""500"" style=""border:5px solid black"">",""
"","94.9500000133412","stimulus-presentation","184","187556","0.0-17.0-1.34","SS1604516660396","<img src='images/simple/2.png' width ='500' height = '500' style='border:5px solid black'>","40","all_simple","images/simple/17.png","images/simple/2.png","images/simple/14.png,images/simple/3.png,images/simple/11.png,images/simple/10.png,images/simple/12.png,images/simple/15.png,images/simple/13.png","1","null","","200","294.9500000133412","","","","background"
"","null","html-keyboard-response","185","188848","0.0-17.0-0.35","SS1604516660396","","null","","","","","","","","","","","","<img src=images/blank.png width =""500"" height = ""500"" style=""border:5px solid black"">",""
"","487.6199999998789","stimulus-presentation","186","189552","0.0-17.0-1.35","SS1604516660396","<img src='images/simple/2.png' width ='500' height = '500' style='border:5px solid black'>","40","all_simple","images/simple/17.png","images/simple/2.png","images/simple/14.png,images/simple/3.png,images/simple/11.png,images/simple/10.png,images/simple/12.png,images/simple/15.png,images/simple/13.png","1","null","","200","687.6199999998789","yes","131.88499999523629","","background"
"","null","html-keyboard-response","187","190586","0.0-17.0-0.36","SS1604516660396","","null","","","","","","","","","","","","<img src=images/blank.png width =""500"" height = ""500"" style=""border:5px solid black"">",""
"","281.8849999894155","stimulus-presentation","188","191086","0.0-17.0-1.36","SS1604516660396","<img src='images/simple/13.png' width ='500' height = '500' style='border:5px solid black'>","40","all_simple","images/simple/17.png","images/simple/2.png","images/simple/14.png,images/simple/3.png,images/simple/11.png,images/simple/10.png,images/simple/12.png,images/simple/15.png,images/simple/13.png","1","null","","200","481.8849999894155","","","","deviant"
"","null","html-keyboard-response","189","192330","0.0-17.0-0.37","SS1604516660396","","null","","","","","","","","","","","","<img src=images/blank.png width =""500"" height = ""500"" style=""border:5px solid black"">",""
"","77.96999999845866","stimulus-presentation","190","192640","0.0-17.0-1.37","SS1604516660396","<img src='images/simple/2.png' width ='500' height = '500' style='border:5px solid black'>","40","all_simple","images/simple/17.png","images/simple/2.png","images/simple/14.png,images/simple/3.png,images/simple/11.png,images/simple/10.png,images/simple/12.png,images/simple/15.png,images/simple/13.png","1","null","","200","277.96999999845866","","","","background"
"","null","html-keyboard-response","191","193854","0.0-17.0-0.38","SS1604516660396","","null","","","","","","","","","","","","<img src=images/blank.png width =""500"" height = ""500"" style=""border:5px solid black"">",""
"","61.724999992293306","stimulus-presentation","192","194136","0.0-17.0-1.38","SS1604516660396","<img src='images/simple/2.png' width ='500' height = '500' style='border:5px solid black'>","40","all_simple","images/simple/17.png","images/simple/2.png","images/simple/14.png,images/simple/3.png,images/simple/11.png,images/simple/10.png,images/simple/12.png,images/simple/15.png,images/simple/13.png","1","null","","200","261.7249999922933","","","","background"
"","null","html-keyboard-response","193","195096","0.0-17.0-0.39","SS1604516660396","","null","","","","","","","","","","","","<img src=images/blank.png width =""500"" height = ""500"" style=""border:5px solid black"">",""
"","261.10000000335276","stimulus-presentation","194","195578","0.0-17.0-1.39","SS1604516660396","<img src='images/simple/10.png' width ='500' height = '500' style='border:5px solid black'>","40","all_simple","images/simple/17.png","images/simple/2.png","images/simple/14.png,images/simple/3.png,images/simple/11.png,images/simple/10.png,images/simple/12.png,images/simple/15.png,images/simple/13.png","1","null","","200","461.10000000335276","","","","deviant"
"","null","html-keyboard-response","195","196530","0.0-17.0-0.40","SS1604516660396","","null","","","","","","","","","","","","<img src=images/blank.png width =""500"" height = ""500"" style=""border:5px solid black"">",""
"","700.9350000007544","stimulus-presentation","196","197450","0.0-17.0-1.40","SS1604516660396","<img src='images/simple/2.png' width ='500' height = '500' style='border:5px solid black'>","40","all_simple","images/simple/17.png","images/simple/2.png","images/simple/14.png,images/simple/3.png,images/simple/11.png,images/simple/10.png,images/simple/12.png,images/simple/15.png,images/simple/13.png","1","null","","200","900.9350000007544","","","","background"
"","null","html-keyboard-response","197","198537","0.0-17.0-0.41","SS1604516660396","","null","","","","","","","","","","","","<img src=images/blank.png width =""500"" height = ""500"" style=""border:5px solid black"">",""
"","12.495000002672896","stimulus-presentation","198","198767","0.0-17.0-1.41","SS1604516660396","<img src='images/simple/17.png' width ='500' height = '500' style='border:5px solid black'>","40","all_simple","images/simple/17.png","images/simple/2.png","images/simple/14.png,images/simple/3.png,images/simple/11.png,images/simple/10.png,images/simple/12.png,images/simple/15.png,images/simple/13.png","1","null","","200","212.4950000026729","","","","target"
"","null","html-keyboard-response","199","199995","0.0-17.0-0.42","SS1604516660396","","null","","","","","","","","","","","","<img src=images/blank.png width =""500"" height = ""500"" style=""border:5px solid black"">",""
"","692.880000002333","stimulus-presentation","200","200905","0.0-17.0-1.42","SS1604516660396","<img src='images/simple/2.png' width ='500' height = '500' style='border:5px solid black'>","40","all_simple","images/simple/17.png","images/simple/2.png","images/simple/14.png,images/simple/3.png,images/simple/11.png,images/simple/10.png,images/simple/12.png,images/simple/15.png,images/simple/13.png","1","null","","200","892.880000002333","","","","background"
"","null","html-keyboard-response","201","201813","0.0-17.0-0.43","SS1604516660396","","null","","","","","","","","","","","","<img src=images/blank.png width =""500"" height = ""500"" style=""border:5px solid black"">",""
"","309.88499999511987","stimulus-presentation","202","202336","0.0-17.0-1.43","SS1604516660396","<img src='images/simple/2.png' width ='500' height = '500' style='border:5px solid black'>","40","all_simple","images/simple/17.png","images/simple/2.png","images/simple/14.png,images/simple/3.png,images/simple/11.png,images/simple/10.png,images/simple/12.png,images/simple/15.png,images/simple/13.png","1","null","","200","509.88499999511987","","","","background"
"","null","html-keyboard-response","203","203415","0.0-17.0-0.44","SS1604516660396","","null","","","","","","","","","","","","<img src=images/blank.png width =""500"" height = ""500"" style=""border:5px solid black"">",""
"","201.11500000348315","stimulus-presentation","204","203827","0.0-17.0-1.44","SS1604516660396","<img src='images/simple/2.png' width ='500' height = '500' style='border:5px solid black'>","40","all_simple","images/simple/17.png","images/simple/2.png","images/simple/14.png,images/simple/3.png,images/simple/11.png,images/simple/10.png,images/simple/12.png,images/simple/15.png,images/simple/13.png","1","null","","200","401.11500000348315","","","","background"
"","null","html-keyboard-response","205","204656","0.0-17.0-0.45","SS1604516660396","","null","","","","","","","","","","","","<img src=images/blank.png width =""500"" height = ""500"" style=""border:5px solid black"">",""
"","21.959999998216517","stimulus-presentation","206","204896","0.0-17.0-1.45","SS1604516660396","<img src='images/simple/2.png' width ='500' height = '500' style='border:5px solid black'>","40","all_simple","images/simple/17.png","images/simple/2.png","images/simple/14.png,images/simple/3.png,images/simple/11.png,images/simple/10.png,images/simple/12.png,images/simple/15.png,images/simple/13.png","1","null","","200","221.95999999821652","","","","background"
"","null","html-keyboard-response","207","206129","0.0-17.0-0.46","SS1604516660396","","null","","","","","","","","","","","","<img src=images/blank.png width =""500"" height = ""500"" style=""border:5px solid black"">",""
"","66.29000000248197","stimulus-presentation","208","206420","0.0-17.0-1.46","SS1604516660396","<img src='images/simple/2.png' width ='500' height = '500' style='border:5px solid black'>","40","all_simple","images/simple/17.png","images/simple/2.png","images/simple/14.png,images/simple/3.png,images/simple/11.png,images/simple/10.png,images/simple/12.png,images/simple/15.png,images/simple/13.png","1","null","","200","266.290000002482","","","","background"
"","null","html-keyboard-response","209","207515","0.0-17.0-0.47","SS1604516660396","","null","","","","","","","","","","","","<img src=images/blank.png width =""500"" height = ""500"" style=""border:5px solid black"">",""
