"view_history","rt","trial_type","trial_index","time_elapsed","internal_node_id","subject","trial_stimulus","key_press","task_type","task_target_stimulus","task_background_stimulus","task_deviant_stimuli","task_order_number","block_order_number","trial_order_number","minimum_viewing_duration","trial_looking_time","trial_pressed_space_bar","trial_space_bar_rt","stimulus","trial_stimulus_type","responses","question_order"
"[{""page_index"":0,""viewing_time"":6259.850000031292}]","6263.145000033546","instructions","0","6292","0.0-0.0","SS1604513247100","","","","","","","","","","","","","","","","",""
"[{""page_index"":0,""viewing_time"":5371.55999999959},{""page_index"":1,""viewing_time"":3917.71999996854},{""page_index"":2,""viewing_time"":4086.1400000285357},{""page_index"":3,""viewing_time"":3966.9949999661185},{""page_index"":4,""viewing_time"":2353.0599999940023},{""page_index"":5,""viewing_time"":4954.365000012331},{""page_index"":6,""viewing_time"":2636.8399999919347},{""page_index"":7,""viewing_time"":2784.879999991972},{""page_index"":8,""viewing_time"":2719.450000033248}]","32791.899999952875","instructions","1","39091","0.0-1.0","SS1604513247100","","","","","","","","","","","","","","","","",""
"[{""page_index"":0,""viewing_time"":4707.880000001751},{""page_index"":1,""viewing_time"":18258.700000005774},{""page_index"":2,""viewing_time"":4124.119999993127}]","27091.554999991786","instructions","2","66190","0.0-2.0","SS1604513247100","","","","","","","","","","","","","","","","",""
"","15381.279999972321","practice-block","3","81785","0.0-3.0","SS1604513247100","<img src='images/practice/practice_background.jpeg' width ='500' height = '500' style='border:5px solid black'>","40","null","images/practice/practice_target.jpg","null","null","null","null","","200","15581.279999972321","yes","2832.445000007283","","","",""
"","null","html-keyboard-response","4","82804","0.0-4.0","SS1604513247100","","null","","","","","","","","","","","","<img src=images/blank.png width =""500"" height = ""500"" style=""border:5px solid black"">","","",""
"","2904.705000051763","practice-block","5","85926","0.0-5.0","SS1604513247100","<img src='images/practice/practice_background.jpeg' width ='500' height = '500' style='border:5px solid black'>","40","null","images/practice/practice_target.jpg","null","null","null","null","","200","3104.705000051763","","","","","",""
"","null","html-keyboard-response","6","86766","0.0-6.0","SS1604513247100","","null","","","","","","","","","","","","<img src=images/blank.png width =""500"" height = ""500"" style=""border:5px solid black"">","","",""
"","1383.9499999885447","practice-block","7","88366","0.0-7.0","SS1604513247100","<img src='images/practice/practice_deviant.jpeg' width ='500' height = '500' style='border:5px solid black'>","40","null","images/practice/practice_target.jpg","null","null","null","null","","200","1583.9499999885447","","","","","",""
"","null","html-keyboard-response","8","89583","0.0-8.0","SS1604513247100","","null","","","","","","","","","","","","<img src=images/blank.png width =""500"" height = ""500"" style=""border:5px solid black"">","","",""
"","1094.5349999819882","practice-block","9","95674","0.0-9.0-0.0","SS1604513247100","<img src='images/practice/practice_target.jpg' width ='500' height = '500' style='border:5px solid black'>","40","null","images/practice/practice_target.jpg","null","null","null","null","","200","1294.5349999819882","","","","","",""
"","5292.799999995623","practice-block","10","101187","0.0-9.1-0.1","SS1604513247100","<img src='images/practice/practice_target.jpg' width ='500' height = '500' style='border:5px solid black'>","40","null","images/practice/practice_target.jpg","null","null","null","null","","200","5492.799999995623","yes","1343.3749999967404","","","",""
"","null","html-keyboard-response","11","102169","0.0-10.0","SS1604513247100","","null","","","","","","","","","","","","<img src=images/blank.png width =""500"" height = ""500"" style=""border:5px solid black"">","","",""
"","399.2049999651499","practice-block","12","102786","0.0-11.0","SS1604513247100","<img src='images/practice/practice_background.jpeg' width ='500' height = '500' style='border:5px solid black'>","40","null","images/practice/practice_target.jpg","null","null","null","null","","200","599.2049999651499","","","","","",""
"[{""page_index"":0,""viewing_time"":1954}]","1955","task-instructions","13","104748","0.0-12.0","SS1604513247100","","","","","","","","","","","","","","","","",""
"[{""page_index"":0,""viewing_time"":2985.5199999874458},{""page_index"":1,""viewing_time"":5589.794999978039},{""page_index"":2,""viewing_time"":1581.7900000256486}]","10157.739999995101","instructions","14","114908","0.0-13.0","SS1604513247100","","","","","","","","","","","","","","","","",""
"","null","html-keyboard-response","15","115745","0.0-14.0-0.0","SS1604513247100","","null","","","","","","","","","","","","<img src=images/blank.png width =""500"" height = ""500"" style=""border:5px solid black"">","","",""
"","3028.6549999727868","stimulus-presentation","16","118988","0.0-14.0-1.0","SS1604513247100","<img src='images/complex/11.png' width ='500' height = '500' style='border:5px solid black'>","40","all_complex","images/complex/10.png","images/complex/11.png","images/complex/15.png,images/complex/8.png,images/complex/12.png,images/complex/2.png,images/complex/18.png,images/complex/14.png,images/complex/3.png","0","null","","200","3228.6549999727868","yes","765.9599999897182","","background","",""
"","null","html-keyboard-response","17","120275","0.0-14.0-0.1","SS1604513247100","","null","","","","","","","","","","","","<img src=images/blank.png width =""500"" height = ""500"" style=""border:5px solid black"">","","",""
"","1589.4899999839254","stimulus-presentation","18","122098","0.0-14.0-1.1","SS1604513247100","<img src='images/complex/14.png' width ='500' height = '500' style='border:5px solid black'>","40","all_complex","images/complex/10.png","images/complex/11.png","images/complex/15.png,images/complex/8.png,images/complex/12.png,images/complex/2.png,images/complex/18.png,images/complex/14.png,images/complex/3.png","0","null","","200","1789.4899999839254","","","","deviant","",""
"","null","html-keyboard-response","19","123183","0.0-14.0-0.2","SS1604513247100","","null","","","","","","","","","","","","<img src=images/blank.png width =""500"" height = ""500"" style=""border:5px solid black"">","","",""
"","2777.334999991581","stimulus-presentation","20","126177","0.0-14.0-1.2","SS1604513247100","<img src='images/complex/11.png' width ='500' height = '500' style='border:5px solid black'>","40","all_complex","images/complex/10.png","images/complex/11.png","images/complex/15.png,images/complex/8.png,images/complex/12.png,images/complex/2.png,images/complex/18.png,images/complex/14.png,images/complex/3.png","0","null","","200","2977.334999991581","yes","594.9999999720603","","background","",""
"","null","html-keyboard-response","21","127362","0.0-14.0-0.3","SS1604513247100","","null","","","","","","","","","","","","<img src=images/blank.png width =""500"" height = ""500"" style=""border:5px solid black"">","","",""
"","677.7749999891967","stimulus-presentation","22","128256","0.0-14.0-1.3","SS1604513247100","<img src='images/complex/11.png' width ='500' height = '500' style='border:5px solid black'>","40","all_complex","images/complex/10.png","images/complex/11.png","images/complex/15.png,images/complex/8.png,images/complex/12.png,images/complex/2.png,images/complex/18.png,images/complex/14.png,images/complex/3.png","0","null","","200","877.7749999891967","","","","background","",""
"","null","html-keyboard-response","23","129158","0.0-14.0-0.4","SS1604513247100","","null","","","","","","","","","","","","<img src=images/blank.png width =""500"" height = ""500"" style=""border:5px solid black"">","","",""
"","637.9450000240467","stimulus-presentation","24","130006","0.0-14.0-1.4","SS1604513247100","<img src='images/complex/11.png' width ='500' height = '500' style='border:5px solid black'>","40","all_complex","images/complex/10.png","images/complex/11.png","images/complex/15.png,images/complex/8.png,images/complex/12.png,images/complex/2.png,images/complex/18.png,images/complex/14.png,images/complex/3.png","0","null","","200","837.9450000240467","","","","background","",""
"","null","html-keyboard-response","25","130957","0.0-14.0-0.5","SS1604513247100","","null","","","","","","","","","","","","<img src=images/blank.png width =""500"" height = ""500"" style=""border:5px solid black"">","","",""
"","122.58999998448417","stimulus-presentation","26","131297","0.0-14.0-1.5","SS1604513247100","<img src='images/complex/11.png' width ='500' height = '500' style='border:5px solid black'>","40","all_complex","images/complex/10.png","images/complex/11.png","images/complex/15.png,images/complex/8.png,images/complex/12.png,images/complex/2.png,images/complex/18.png,images/complex/14.png,images/complex/3.png","0","null","","200","322.58999998448417","","","","background","",""
"","null","html-keyboard-response","27","132439","0.0-14.0-0.6","SS1604513247100","","null","","","","","","","","","","","","<img src=images/blank.png width =""500"" height = ""500"" style=""border:5px solid black"">","","",""
"","3234.3199999886565","stimulus-presentation","28","135898","0.0-14.0-1.6","SS1604513247100","<img src='images/complex/10.png' width ='500' height = '500' style='border:5px solid black'>","40","all_complex","images/complex/10.png","images/complex/11.png","images/complex/15.png,images/complex/8.png,images/complex/12.png,images/complex/2.png,images/complex/18.png,images/complex/14.png,images/complex/3.png","0","null","","200","3434.3199999886565","yes","743.6050000251271","","target","",""
"","null","html-keyboard-response","29","137053","0.0-14.0-0.7","SS1604513247100","","null","","","","","","","","","","","","<img src=images/blank.png width =""500"" height = ""500"" style=""border:5px solid black"">","","",""
"","970.145000028424","stimulus-presentation","30","138246","0.0-14.0-1.7","SS1604513247100","<img src='images/complex/8.png' width ='500' height = '500' style='border:5px solid black'>","40","all_complex","images/complex/10.png","images/complex/11.png","images/complex/15.png,images/complex/8.png,images/complex/12.png,images/complex/2.png,images/complex/18.png,images/complex/14.png,images/complex/3.png","0","null","","200","1170.145000028424","","","","deviant","",""
"","null","html-keyboard-response","31","139275","0.0-14.0-0.8","SS1604513247100","","null","","","","","","","","","","","","<img src=images/blank.png width =""500"" height = ""500"" style=""border:5px solid black"">","","",""
"","539.6600000094622","stimulus-presentation","32","140037","0.0-14.0-1.8","SS1604513247100","<img src='images/complex/11.png' width ='500' height = '500' style='border:5px solid black'>","40","all_complex","images/complex/10.png","images/complex/11.png","images/complex/15.png,images/complex/8.png,images/complex/12.png,images/complex/2.png,images/complex/18.png,images/complex/14.png,images/complex/3.png","0","null","","200","739.6600000094622","","","","background","",""
"","null","html-keyboard-response","33","141186","0.0-14.0-0.9","SS1604513247100","","null","","","","","","","","","","","","<img src=images/blank.png width =""500"" height = ""500"" style=""border:5px solid black"">","","",""
"","189.13499999325722","stimulus-presentation","34","141589","0.0-14.0-1.9","SS1604513247100","<img src='images/complex/11.png' width ='500' height = '500' style='border:5px solid black'>","40","all_complex","images/complex/10.png","images/complex/11.png","images/complex/15.png,images/complex/8.png,images/complex/12.png,images/complex/2.png,images/complex/18.png,images/complex/14.png,images/complex/3.png","0","null","","200","389.1349999932572","","","","background","",""
"","null","html-keyboard-response","35","142590","0.0-14.0-0.10","SS1604513247100","","null","","","","","","","","","","","","<img src=images/blank.png width =""500"" height = ""500"" style=""border:5px solid black"">","","",""
"","391.2850000197068","stimulus-presentation","36","143197","0.0-14.0-1.10","SS1604513247100","<img src='images/complex/3.png' width ='500' height = '500' style='border:5px solid black'>","40","all_complex","images/complex/10.png","images/complex/11.png","images/complex/15.png,images/complex/8.png,images/complex/12.png,images/complex/2.png,images/complex/18.png,images/complex/14.png,images/complex/3.png","0","null","","200","591.2850000197068","","","","deviant","",""
"","null","html-keyboard-response","37","144395","0.0-14.0-0.11","SS1604513247100","","null","","","","","","","","","","","","<img src=images/blank.png width =""500"" height = ""500"" style=""border:5px solid black"">","","",""
"","146.06500003719702","stimulus-presentation","38","144758","0.0-14.0-1.11","SS1604513247100","<img src='images/complex/11.png' width ='500' height = '500' style='border:5px solid black'>","40","all_complex","images/complex/10.png","images/complex/11.png","images/complex/15.png,images/complex/8.png,images/complex/12.png,images/complex/2.png,images/complex/18.png,images/complex/14.png,images/complex/3.png","0","null","","200","346.065000037197","","","","background","",""
"","null","html-keyboard-response","39","145663","0.0-14.0-0.12","SS1604513247100","","null","","","","","","","","","","","","<img src=images/blank.png width =""500"" height = ""500"" style=""border:5px solid black"">","","",""
"","127.85499996971339","stimulus-presentation","40","146008","0.0-14.0-1.12","SS1604513247100","<img src='images/complex/11.png' width ='500' height = '500' style='border:5px solid black'>","40","all_complex","images/complex/10.png","images/complex/11.png","images/complex/15.png,images/complex/8.png,images/complex/12.png,images/complex/2.png,images/complex/18.png,images/complex/14.png,images/complex/3.png","0","null","","200","327.8549999697134","","","","background","",""
"","null","html-keyboard-response","41","147123","0.0-14.0-0.13","SS1604513247100","","null","","","","","","","","","","","","<img src=images/blank.png width =""500"" height = ""500"" style=""border:5px solid black"">","","",""
"","706.4200000022538","stimulus-presentation","42","148047","0.0-14.0-1.13","SS1604513247100","<img src='images/complex/11.png' width ='500' height = '500' style='border:5px solid black'>","40","all_complex","images/complex/10.png","images/complex/11.png","images/complex/15.png,images/complex/8.png,images/complex/12.png,images/complex/2.png,images/complex/18.png,images/complex/14.png,images/complex/3.png","0","null","","200","906.4200000022538","","","","background","",""
"","null","html-keyboard-response","43","149094","0.0-14.0-0.14","SS1604513247100","","null","","","","","","","","","","","","<img src=images/blank.png width =""500"" height = ""500"" style=""border:5px solid black"">","","",""
"","192.45000003138557","stimulus-presentation","44","149498","0.0-14.0-1.14","SS1604513247100","<img src='images/complex/11.png' width ='500' height = '500' style='border:5px solid black'>","40","all_complex","images/complex/10.png","images/complex/11.png","images/complex/15.png,images/complex/8.png,images/complex/12.png,images/complex/2.png,images/complex/18.png,images/complex/14.png,images/complex/3.png","0","null","","200","392.45000003138557","","","","background","",""
"","null","html-keyboard-response","45","150759","0.0-14.0-0.15","SS1604513247100","","null","","","","","","","","","","","","<img src=images/blank.png width =""500"" height = ""500"" style=""border:5px solid black"">","","",""
"","310.5349999968894","stimulus-presentation","46","151290","0.0-14.0-1.15","SS1604513247100","<img src='images/complex/18.png' width ='500' height = '500' style='border:5px solid black'>","40","all_complex","images/complex/10.png","images/complex/11.png","images/complex/15.png,images/complex/8.png,images/complex/12.png,images/complex/2.png,images/complex/18.png,images/complex/14.png,images/complex/3.png","0","null","","200","510.5349999968894","","","","deviant","",""
"","null","html-keyboard-response","47","152286","0.0-14.0-0.16","SS1604513247100","","null","","","","","","","","","","","","<img src=images/blank.png width =""500"" height = ""500"" style=""border:5px solid black"">","","",""
"","287.3750000144355","stimulus-presentation","48","152796","0.0-14.0-1.16","SS1604513247100","<img src='images/complex/11.png' width ='500' height = '500' style='border:5px solid black'>","40","all_complex","images/complex/10.png","images/complex/11.png","images/complex/15.png,images/complex/8.png,images/complex/12.png,images/complex/2.png,images/complex/18.png,images/complex/14.png,images/complex/3.png","0","null","","200","487.3750000144355","","","","background","",""
"","null","html-keyboard-response","49","153914","0.0-14.0-0.17","SS1604513247100","","null","","","","","","","","","","","","<img src=images/blank.png width =""500"" height = ""500"" style=""border:5px solid black"">","","",""
"","126.27499998779967","stimulus-presentation","50","154257","0.0-14.0-1.17","SS1604513247100","<img src='images/complex/11.png' width ='500' height = '500' style='border:5px solid black'>","40","all_complex","images/complex/10.png","images/complex/11.png","images/complex/15.png,images/complex/8.png,images/complex/12.png,images/complex/2.png,images/complex/18.png,images/complex/14.png,images/complex/3.png","0","null","","200","326.2749999877997","","","","background","",""
"","null","html-keyboard-response","51","155119","0.0-14.0-0.18","SS1604513247100","","null","","","","","","","","","","","","<img src=images/blank.png width =""500"" height = ""500"" style=""border:5px solid black"">","","",""
"","871.1400000029244","stimulus-presentation","52","156208","0.0-14.0-1.18","SS1604513247100","<img src='images/complex/11.png' width ='500' height = '500' style='border:5px solid black'>","40","all_complex","images/complex/10.png","images/complex/11.png","images/complex/15.png,images/complex/8.png,images/complex/12.png,images/complex/2.png,images/complex/18.png,images/complex/14.png,images/complex/3.png","0","null","","200","1071.1400000029244","","","","background","",""
"","null","html-keyboard-response","53","157206","0.0-14.0-0.19","SS1604513247100","","null","","","","","","","","","","","","<img src=images/blank.png width =""500"" height = ""500"" style=""border:5px solid black"">","","",""
"","128.1099999905564","stimulus-presentation","54","157557","0.0-14.0-1.19","SS1604513247100","<img src='images/complex/11.png' width ='500' height = '500' style='border:5px solid black'>","40","all_complex","images/complex/10.png","images/complex/11.png","images/complex/15.png,images/complex/8.png,images/complex/12.png,images/complex/2.png,images/complex/18.png,images/complex/14.png,images/complex/3.png","0","null","","200","328.1099999905564","","","","background","",""
"","null","html-keyboard-response","55","158595","0.0-14.0-0.20","SS1604513247100","","null","","","","","","","","","","","","<img src=images/blank.png width =""500"" height = ""500"" style=""border:5px solid black"">","","",""
"","124.3549999780953","stimulus-presentation","56","158937","0.0-14.0-1.20","SS1604513247100","<img src='images/complex/11.png' width ='500' height = '500' style='border:5px solid black'>","40","all_complex","images/complex/10.png","images/complex/11.png","images/complex/15.png,images/complex/8.png,images/complex/12.png,images/complex/2.png,images/complex/18.png,images/complex/14.png,images/complex/3.png","0","null","","200","324.3549999780953","","","","background","",""
"","null","html-keyboard-response","57","159854","0.0-14.0-0.21","SS1604513247100","","null","","","","","","","","","","","","<img src=images/blank.png width =""500"" height = ""500"" style=""border:5px solid black"">","","",""
"","145.66500001819804","stimulus-presentation","58","160218","0.0-14.0-1.21","SS1604513247100","<img src='images/complex/11.png' width ='500' height = '500' style='border:5px solid black'>","40","all_complex","images/complex/10.png","images/complex/11.png","images/complex/15.png,images/complex/8.png,images/complex/12.png,images/complex/2.png,images/complex/18.png,images/complex/14.png,images/complex/3.png","0","null","","200","345.66500001819804","","","","background","",""
"","null","html-keyboard-response","59","161122","0.0-14.0-0.22","SS1604513247100","","null","","","","","","","","","","","","<img src=images/blank.png width =""500"" height = ""500"" style=""border:5px solid black"">","","",""
"","421.7200000421144","stimulus-presentation","60","161768","0.0-14.0-1.22","SS1604513247100","<img src='images/complex/11.png' width ='500' height = '500' style='border:5px solid black'>","40","all_complex","images/complex/10.png","images/complex/11.png","images/complex/15.png,images/complex/8.png,images/complex/12.png,images/complex/2.png,images/complex/18.png,images/complex/14.png,images/complex/3.png","0","null","","200","621.7200000421144","","","","background","",""
"","null","html-keyboard-response","61","162613","0.0-14.0-0.23","SS1604513247100","","null","","","","","","","","","","","","<img src=images/blank.png width =""500"" height = ""500"" style=""border:5px solid black"">","","",""
"","989.3099999753758","stimulus-presentation","62","163818","0.0-14.0-1.23","SS1604513247100","<img src='images/complex/10.png' width ='500' height = '500' style='border:5px solid black'>","40","all_complex","images/complex/10.png","images/complex/11.png","images/complex/15.png,images/complex/8.png,images/complex/12.png,images/complex/2.png,images/complex/18.png,images/complex/14.png,images/complex/3.png","0","null","","200","1189.3099999753758","yes","218.16500002751127","","target","",""
"","null","html-keyboard-response","63","165078","0.0-14.0-0.24","SS1604513247100","","null","","","","","","","","","","","","<img src=images/blank.png width =""500"" height = ""500"" style=""border:5px solid black"">","","",""
"","5113.560000027064","stimulus-presentation","64","170407","0.0-14.0-1.24","SS1604513247100","<img src='images/complex/12.png' width ='500' height = '500' style='border:5px solid black'>","40","all_complex","images/complex/10.png","images/complex/11.png","images/complex/15.png,images/complex/8.png,images/complex/12.png,images/complex/2.png,images/complex/18.png,images/complex/14.png,images/complex/3.png","0","null","","200","5313.560000027064","yes","3474.8750000144355","","deviant","",""
"","null","html-keyboard-response","65","171255","0.0-14.0-0.25","SS1604513247100","","null","","","","","","","","","","","","<img src=images/blank.png width =""500"" height = ""500"" style=""border:5px solid black"">","","",""
"","297.56999999517575","stimulus-presentation","66","171767","0.0-14.0-1.25","SS1604513247100","<img src='images/complex/10.png' width ='500' height = '500' style='border:5px solid black'>","40","all_complex","images/complex/10.png","images/complex/11.png","images/complex/15.png,images/complex/8.png,images/complex/12.png,images/complex/2.png,images/complex/18.png,images/complex/14.png,images/complex/3.png","0","null","","200","497.56999999517575","","","","target","",""
"","null","html-keyboard-response","67","172977","0.0-14.0-0.26","SS1604513247100","","null","","","","","","","","","","","","<img src=images/blank.png width =""500"" height = ""500"" style=""border:5px solid black"">","","",""
"","195.0199999846518","stimulus-presentation","68","173396","0.0-14.0-1.26","SS1604513247100","<img src='images/complex/11.png' width ='500' height = '500' style='border:5px solid black'>","40","all_complex","images/complex/10.png","images/complex/11.png","images/complex/15.png,images/complex/8.png,images/complex/12.png,images/complex/2.png,images/complex/18.png,images/complex/14.png,images/complex/3.png","0","null","","200","395.0199999846518","","","","background","",""
"","null","html-keyboard-response","69","174268","0.0-14.0-0.27","SS1604513247100","","null","","","","","","","","","","","","<img src=images/blank.png width =""500"" height = ""500"" style=""border:5px solid black"">","","",""
"","82.86500000394881","stimulus-presentation","70","174567","0.0-14.0-1.27","SS1604513247100","<img src='images/complex/2.png' width ='500' height = '500' style='border:5px solid black'>","40","all_complex","images/complex/10.png","images/complex/11.png","images/complex/15.png,images/complex/8.png,images/complex/12.png,images/complex/2.png,images/complex/18.png,images/complex/14.png,images/complex/3.png","0","null","","200","282.8650000039488","","","","deviant","",""
"","null","html-keyboard-response","71","175509","0.0-14.0-0.28","SS1604513247100","","null","","","","","","","","","","","","<img src=images/blank.png width =""500"" height = ""500"" style=""border:5px solid black"">","","",""
"","170.769999967888","stimulus-presentation","72","175897","0.0-14.0-1.28","SS1604513247100","<img src='images/complex/11.png' width ='500' height = '500' style='border:5px solid black'>","40","all_complex","images/complex/10.png","images/complex/11.png","images/complex/15.png,images/complex/8.png,images/complex/12.png,images/complex/2.png,images/complex/18.png,images/complex/14.png,images/complex/3.png","0","null","","200","370.769999967888","","","","background","",""
"","null","html-keyboard-response","73","177048","0.0-14.0-0.29","SS1604513247100","","null","","","","","","","","","","","","<img src=images/blank.png width =""500"" height = ""500"" style=""border:5px solid black"">","","",""
"","92.48499997192994","stimulus-presentation","74","177357","0.0-14.0-1.29","SS1604513247100","<img src='images/complex/11.png' width ='500' height = '500' style='border:5px solid black'>","40","all_complex","images/complex/10.png","images/complex/11.png","images/complex/15.png,images/complex/8.png,images/complex/12.png,images/complex/2.png,images/complex/18.png,images/complex/14.png,images/complex/3.png","0","null","","200","292.48499997192994","","","","background","",""
"","null","html-keyboard-response","75","178245","0.0-14.0-0.30","SS1604513247100","","null","","","","","","","","","","","","<img src=images/blank.png width =""500"" height = ""500"" style=""border:5px solid black"">","","",""
"","160.96000000834465","stimulus-presentation","76","178617","0.0-14.0-1.30","SS1604513247100","<img src='images/complex/11.png' width ='500' height = '500' style='border:5px solid black'>","40","all_complex","images/complex/10.png","images/complex/11.png","images/complex/15.png,images/complex/8.png,images/complex/12.png,images/complex/2.png,images/complex/18.png,images/complex/14.png,images/complex/3.png","0","null","","200","360.96000000834465","","","","background","",""
"","null","html-keyboard-response","77","179474","0.0-14.0-0.31","SS1604513247100","","null","","","","","","","","","","","","<img src=images/blank.png width =""500"" height = ""500"" style=""border:5px solid black"">","","",""
"","99.26500002620742","stimulus-presentation","78","179789","0.0-14.0-1.31","SS1604513247100","<img src='images/complex/11.png' width ='500' height = '500' style='border:5px solid black'>","40","all_complex","images/complex/10.png","images/complex/11.png","images/complex/15.png,images/complex/8.png,images/complex/12.png,images/complex/2.png,images/complex/18.png,images/complex/14.png,images/complex/3.png","0","null","","200","299.2650000262074","","","","background","",""
"","null","html-keyboard-response","79","181096","0.0-14.0-0.32","SS1604513247100","","null","","","","","","","","","","","","<img src=images/blank.png width =""500"" height = ""500"" style=""border:5px solid black"">","","",""
"","115.29499996686354","stimulus-presentation","80","181428","0.0-14.0-1.32","SS1604513247100","<img src='images/complex/11.png' width ='500' height = '500' style='border:5px solid black'>","40","all_complex","images/complex/10.png","images/complex/11.png","images/complex/15.png,images/complex/8.png,images/complex/12.png,images/complex/2.png,images/complex/18.png,images/complex/14.png,images/complex/3.png","0","null","","200","315.29499996686354","","","","background","",""
"","null","html-keyboard-response","81","182718","0.0-14.0-0.33","SS1604513247100","","null","","","","","","","","","","","","<img src=images/blank.png width =""500"" height = ""500"" style=""border:5px solid black"">","","",""
"","83.63499998813495","stimulus-presentation","82","183027","0.0-14.0-1.33","SS1604513247100","<img src='images/complex/10.png' width ='500' height = '500' style='border:5px solid black'>","40","all_complex","images/complex/10.png","images/complex/11.png","images/complex/15.png,images/complex/8.png,images/complex/12.png,images/complex/2.png,images/complex/18.png,images/complex/14.png,images/complex/3.png","0","null","","200","283.63499998813495","","","","target","",""
"","null","html-keyboard-response","83","184310","0.0-14.0-0.34","SS1604513247100","","null","","","","","","","","","","","","<img src=images/blank.png width =""500"" height = ""500"" style=""border:5px solid black"">","","",""
"","95.94000002834946","stimulus-presentation","84","184626","0.0-14.0-1.34","SS1604513247100","<img src='images/complex/11.png' width ='500' height = '500' style='border:5px solid black'>","40","all_complex","images/complex/10.png","images/complex/11.png","images/complex/15.png,images/complex/8.png,images/complex/12.png,images/complex/2.png,images/complex/18.png,images/complex/14.png,images/complex/3.png","0","null","","200","295.94000002834946","","","","background","",""
"","null","html-keyboard-response","85","185534","0.0-14.0-0.35","SS1604513247100","","null","","","","","","","","","","","","<img src=images/blank.png width =""500"" height = ""500"" style=""border:5px solid black"">","","",""
"","193.35499999579042","stimulus-presentation","86","185947","0.0-14.0-1.35","SS1604513247100","<img src='images/complex/10.png' width ='500' height = '500' style='border:5px solid black'>","40","all_complex","images/complex/10.png","images/complex/11.png","images/complex/15.png,images/complex/8.png,images/complex/12.png,images/complex/2.png,images/complex/18.png,images/complex/14.png,images/complex/3.png","0","null","","200","393.3549999957904","","","","target","",""
"","null","html-keyboard-response","87","186890","0.0-14.0-0.36","SS1604513247100","","null","","","","","","","","","","","","<img src=images/blank.png width =""500"" height = ""500"" style=""border:5px solid black"">","","",""
"","99.24000001046807","stimulus-presentation","88","187205","0.0-14.0-1.36","SS1604513247100","<img src='images/complex/11.png' width ='500' height = '500' style='border:5px solid black'>","40","all_complex","images/complex/10.png","images/complex/11.png","images/complex/15.png,images/complex/8.png,images/complex/12.png,images/complex/2.png,images/complex/18.png,images/complex/14.png,images/complex/3.png","0","null","","200","299.24000001046807","","","","background","",""
"","null","html-keyboard-response","89","188195","0.0-14.0-0.37","SS1604513247100","","null","","","","","","","","","","","","<img src=images/blank.png width =""500"" height = ""500"" style=""border:5px solid black"">","","",""
"","323.36499996017665","stimulus-presentation","90","188734","0.0-14.0-1.37","SS1604513247100","<img src='images/complex/15.png' width ='500' height = '500' style='border:5px solid black'>","40","all_complex","images/complex/10.png","images/complex/11.png","images/complex/15.png,images/complex/8.png,images/complex/12.png,images/complex/2.png,images/complex/18.png,images/complex/14.png,images/complex/3.png","0","null","","200","523.3649999601766","","","","deviant","",""
"","null","html-keyboard-response","91","189685","0.0-14.0-0.38","SS1604513247100","","null","","","","","","","","","","","","<img src=images/blank.png width =""500"" height = ""500"" style=""border:5px solid black"">","","",""
"","123.32499999320135","stimulus-presentation","92","190025","0.0-14.0-1.38","SS1604513247100","<img src='images/complex/11.png' width ='500' height = '500' style='border:5px solid black'>","40","all_complex","images/complex/10.png","images/complex/11.png","images/complex/15.png,images/complex/8.png,images/complex/12.png,images/complex/2.png,images/complex/18.png,images/complex/14.png,images/complex/3.png","0","null","","200","323.32499999320135","","","","background","",""
"","null","html-keyboard-response","93","191176","0.0-14.0-0.39","SS1604513247100","","null","","","","","","","","","","","","<img src=images/blank.png width =""500"" height = ""500"" style=""border:5px solid black"">","","",""
"","142.3300000024028","stimulus-presentation","94","191535","0.0-14.0-1.39","SS1604513247100","<img src='images/complex/11.png' width ='500' height = '500' style='border:5px solid black'>","40","all_complex","images/complex/10.png","images/complex/11.png","images/complex/15.png,images/complex/8.png,images/complex/12.png,images/complex/2.png,images/complex/18.png,images/complex/14.png,images/complex/3.png","0","null","","200","342.3300000024028","","","","background","",""
"","null","html-keyboard-response","95","192429","0.0-14.0-0.40","SS1604513247100","","null","","","","","","","","","","","","<img src=images/blank.png width =""500"" height = ""500"" style=""border:5px solid black"">","","",""
"","110.38000002736226","stimulus-presentation","96","192756","0.0-14.0-1.40","SS1604513247100","<img src='images/complex/11.png' width ='500' height = '500' style='border:5px solid black'>","40","all_complex","images/complex/10.png","images/complex/11.png","images/complex/15.png,images/complex/8.png,images/complex/12.png,images/complex/2.png,images/complex/18.png,images/complex/14.png,images/complex/3.png","0","null","","200","310.38000002736226","","","","background","",""
"","null","html-keyboard-response","97","194068","0.0-14.0-0.41","SS1604513247100","","null","","","","","","","","","","","","<img src=images/blank.png width =""500"" height = ""500"" style=""border:5px solid black"">","","",""
"","94.09999998752028","stimulus-presentation","98","194388","0.0-14.0-1.41","SS1604513247100","<img src='images/complex/11.png' width ='500' height = '500' style='border:5px solid black'>","40","all_complex","images/complex/10.png","images/complex/11.png","images/complex/15.png,images/complex/8.png,images/complex/12.png,images/complex/2.png,images/complex/18.png,images/complex/14.png,images/complex/3.png","0","null","","200","294.0999999875203","","","","background","",""
"","null","html-keyboard-response","99","195342","0.0-14.0-0.42","SS1604513247100","","null","","","","","","","","","","","","<img src=images/blank.png width =""500"" height = ""500"" style=""border:5px solid black"">","","",""
"","106.94000002695248","stimulus-presentation","100","195666","0.0-14.0-1.42","SS1604513247100","<img src='images/complex/11.png' width ='500' height = '500' style='border:5px solid black'>","40","all_complex","images/complex/10.png","images/complex/11.png","images/complex/15.png,images/complex/8.png,images/complex/12.png,images/complex/2.png,images/complex/18.png,images/complex/14.png,images/complex/3.png","0","null","","200","306.9400000269525","","","","background","",""
"","null","html-keyboard-response","101","196864","0.0-14.0-0.43","SS1604513247100","","null","","","","","","","","","","","","<img src=images/blank.png width =""500"" height = ""500"" style=""border:5px solid black"">","","",""
"","104.79499999200925","stimulus-presentation","102","197187","0.0-14.0-1.43","SS1604513247100","<img src='images/complex/11.png' width ='500' height = '500' style='border:5px solid black'>","40","all_complex","images/complex/10.png","images/complex/11.png","images/complex/15.png,images/complex/8.png,images/complex/12.png,images/complex/2.png,images/complex/18.png,images/complex/14.png,images/complex/3.png","0","null","","200","304.79499999200925","","","","background","",""
"","null","html-keyboard-response","103","198006","0.0-14.0-0.44","SS1604513247100","","null","","","","","","","","","","","","<img src=images/blank.png width =""500"" height = ""500"" style=""border:5px solid black"">","","",""
"","293.4450000175275","stimulus-presentation","104","198517","0.0-14.0-1.44","SS1604513247100","<img src='images/complex/10.png' width ='500' height = '500' style='border:5px solid black'>","40","all_complex","images/complex/10.png","images/complex/11.png","images/complex/15.png,images/complex/8.png,images/complex/12.png,images/complex/2.png,images/complex/18.png,images/complex/14.png,images/complex/3.png","0","null","","200","493.4450000175275","","","","target","",""
"","null","html-keyboard-response","105","199829","0.0-14.0-0.45","SS1604513247100","","null","","","","","","","","","","","","<img src=images/blank.png width =""500"" height = ""500"" style=""border:5px solid black"">","","",""
"","168.1749999988824","stimulus-presentation","106","200218","0.0-14.0-1.45","SS1604513247100","<img src='images/complex/10.png' width ='500' height = '500' style='border:5px solid black'>","40","all_complex","images/complex/10.png","images/complex/11.png","images/complex/15.png,images/complex/8.png,images/complex/12.png,images/complex/2.png,images/complex/18.png,images/complex/14.png,images/complex/3.png","0","null","","200","368.1749999988824","","","","target","",""
"","null","html-keyboard-response","107","201334","0.0-14.0-0.46","SS1604513247100","","null","","","","","","","","","","","","<img src=images/blank.png width =""500"" height = ""500"" style=""border:5px solid black"">","","",""
"","142.2000000020489","stimulus-presentation","108","201686","0.0-14.0-1.46","SS1604513247100","<img src='images/complex/11.png' width ='500' height = '500' style='border:5px solid black'>","40","all_complex","images/complex/10.png","images/complex/11.png","images/complex/15.png,images/complex/8.png,images/complex/12.png,images/complex/2.png,images/complex/18.png,images/complex/14.png,images/complex/3.png","0","null","","200","342.2000000020489","","","","background","",""
"","null","html-keyboard-response","109","202624","0.0-14.0-0.47","SS1604513247100","","null","","","","","","","","","","","","<img src=images/blank.png width =""500"" height = ""500"" style=""border:5px solid black"">","","",""
"","128.33000003593042","stimulus-presentation","110","202967","0.0-14.0-1.47","SS1604513247100","<img src='images/complex/11.png' width ='500' height = '500' style='border:5px solid black'>","40","all_complex","images/complex/10.png","images/complex/11.png","images/complex/15.png,images/complex/8.png,images/complex/12.png,images/complex/2.png,images/complex/18.png,images/complex/14.png,images/complex/3.png","0","null","","200","328.3300000359304","","","","background","",""
"","null","html-keyboard-response","111","203806","0.0-14.0-0.48","SS1604513247100","","null","","","","","","","","","","","","<img src=images/blank.png width =""500"" height = ""500"" style=""border:5px solid black"">","","",""
"","135.39999997010455","stimulus-presentation","112","204166","0.0-14.0-1.48","SS1604513247100","<img src='images/complex/11.png' width ='500' height = '500' style='border:5px solid black'>","40","all_complex","images/complex/10.png","images/complex/11.png","images/complex/15.png,images/complex/8.png,images/complex/12.png,images/complex/2.png,images/complex/18.png,images/complex/14.png,images/complex/3.png","0","null","","200","335.39999997010455","","","","background","",""
"[{""page_index"":0,""viewing_time"":8498}]","8498","task-instructions","113","212671","0.0-15.0","SS1604513247100","","","","","","","","","","","","","","","","",""
"[{""page_index"":0,""viewing_time"":1845.900000014808},{""page_index"":1,""viewing_time"":4242.480000015348},{""page_index"":2,""viewing_time"":1268.370000005234}]","7357.190000009723","instructions","114","220038","0.0-16.0","SS1604513247100","","","","","","","","","","","","","","","","",""
"","null","html-keyboard-response","115","221089","0.0-17.0-0.0","SS1604513247100","","null","","","","","","","","","","","","<img src=images/blank.png width =""500"" height = ""500"" style=""border:5px solid black"">","","",""
"","881.7799999960698","stimulus-presentation","116","222188","0.0-17.0-1.0","SS1604513247100","<img src='images/complex/13.png' width ='500' height = '500' style='border:5px solid black'>","40","mixed_complex_deviant","images/simple/12.png","images/simple/16.png","images/complex/16.png,images/complex/17.png,images/complex/13.png,images/complex/5.png,images/complex/1.png,images/complex/7.png,images/complex/6.png","1","null","","200","1081.7799999960698","yes","422.1200000029057","","deviant","",""
"","null","html-keyboard-response","117","223080","0.0-17.0-0.1","SS1604513247100","","null","","","","","","","","","","","","<img src=images/blank.png width =""500"" height = ""500"" style=""border:5px solid black"">","","",""
"","134.15499997790903","stimulus-presentation","118","223430","0.0-17.0-1.1","SS1604513247100","<img src='images/simple/16.png' width ='500' height = '500' style='border:5px solid black'>","40","mixed_complex_deviant","images/simple/12.png","images/simple/16.png","images/complex/16.png,images/complex/17.png,images/complex/13.png,images/complex/5.png,images/complex/1.png,images/complex/7.png,images/complex/6.png","1","null","","200","334.15499997790903","","","","background","",""
"","null","html-keyboard-response","119","224330","0.0-17.0-0.2","SS1604513247100","","null","","","","","","","","","","","","<img src=images/blank.png width =""500"" height = ""500"" style=""border:5px solid black"">","","",""
"","257.9200000036508","stimulus-presentation","120","224828","0.0-17.0-1.2","SS1604513247100","<img src='images/simple/16.png' width ='500' height = '500' style='border:5px solid black'>","40","mixed_complex_deviant","images/simple/12.png","images/simple/16.png","images/complex/16.png,images/complex/17.png,images/complex/13.png,images/complex/5.png,images/complex/1.png,images/complex/7.png,images/complex/6.png","1","null","","200","457.9200000036508","","","","background","",""
"","null","html-keyboard-response","121","226136","0.0-17.0-0.3","SS1604513247100","","null","","","","","","","","","","","","<img src=images/blank.png width =""500"" height = ""500"" style=""border:5px solid black"">","","",""
"","125.4600000102073","stimulus-presentation","122","226477","0.0-17.0-1.3","SS1604513247100","<img src='images/simple/16.png' width ='500' height = '500' style='border:5px solid black'>","40","mixed_complex_deviant","images/simple/12.png","images/simple/16.png","images/complex/16.png,images/complex/17.png,images/complex/13.png,images/complex/5.png,images/complex/1.png,images/complex/7.png,images/complex/6.png","1","null","","200","325.4600000102073","","","","background","",""
"","null","html-keyboard-response","123","227640","0.0-17.0-0.4","SS1604513247100","","null","","","","","","","","","","","","<img src=images/blank.png width =""500"" height = ""500"" style=""border:5px solid black"">","","",""
"","140.60500002233312","stimulus-presentation","124","227997","0.0-17.0-1.4","SS1604513247100","<img src='images/simple/16.png' width ='500' height = '500' style='border:5px solid black'>","40","mixed_complex_deviant","images/simple/12.png","images/simple/16.png","images/complex/16.png,images/complex/17.png,images/complex/13.png,images/complex/5.png,images/complex/1.png,images/complex/7.png,images/complex/6.png","1","null","","200","340.6050000223331","","","","background","",""
"","null","html-keyboard-response","125","228981","0.0-17.0-0.5","SS1604513247100","","null","","","","","","","","","","","","<img src=images/blank.png width =""500"" height = ""500"" style=""border:5px solid black"">","","",""
"","99.40499998629093","stimulus-presentation","126","229297","0.0-17.0-1.5","SS1604513247100","<img src='images/complex/16.png' width ='500' height = '500' style='border:5px solid black'>","40","mixed_complex_deviant","images/simple/12.png","images/simple/16.png","images/complex/16.png,images/complex/17.png,images/complex/13.png,images/complex/5.png,images/complex/1.png,images/complex/7.png,images/complex/6.png","1","null","","200","299.40499998629093","","","","deviant","",""
"","null","html-keyboard-response","127","230452","0.0-17.0-0.6","SS1604513247100","","null","","","","","","","","","","","","<img src=images/blank.png width =""500"" height = ""500"" style=""border:5px solid black"">","","",""
"","152.13499998208135","stimulus-presentation","128","230817","0.0-17.0-1.6","SS1604513247100","<img src='images/simple/16.png' width ='500' height = '500' style='border:5px solid black'>","40","mixed_complex_deviant","images/simple/12.png","images/simple/16.png","images/complex/16.png,images/complex/17.png,images/complex/13.png,images/complex/5.png,images/complex/1.png,images/complex/7.png,images/complex/6.png","1","null","","200","352.13499998208135","","","","background","",""
"","null","html-keyboard-response","129","231905","0.0-17.0-0.7","SS1604513247100","","null","","","","","","","","","","","","<img src=images/blank.png width =""500"" height = ""500"" style=""border:5px solid black"">","","",""
"","107.26999997859821","stimulus-presentation","130","232228","0.0-17.0-1.7","SS1604513247100","<img src='images/simple/16.png' width ='500' height = '500' style='border:5px solid black'>","40","mixed_complex_deviant","images/simple/12.png","images/simple/16.png","images/complex/16.png,images/complex/17.png,images/complex/13.png,images/complex/5.png,images/complex/1.png,images/complex/7.png,images/complex/6.png","1","null","","200","307.2699999785982","","","","background","",""
"","null","html-keyboard-response","131","233494","0.0-17.0-0.8","SS1604513247100","","null","","","","","","","","","","","","<img src=images/blank.png width =""500"" height = ""500"" style=""border:5px solid black"">","","",""
"","1006.5900000045076","stimulus-presentation","132","234717","0.0-17.0-1.8","SS1604513247100","<img src='images/simple/12.png' width ='500' height = '500' style='border:5px solid black'>","40","mixed_complex_deviant","images/simple/12.png","images/simple/16.png","images/complex/16.png,images/complex/17.png,images/complex/13.png,images/complex/5.png,images/complex/1.png,images/complex/7.png,images/complex/6.png","1","null","","200","1206.5900000045076","yes","296.5400000102818","","target","",""
"","null","html-keyboard-response","133","235800","0.0-17.0-0.9","SS1604513247100","","null","","","","","","","","","","","","<img src=images/blank.png width =""500"" height = ""500"" style=""border:5px solid black"">","","",""
"","990.4649999807589","stimulus-presentation","134","237007","0.0-17.0-1.9","SS1604513247100","<img src='images/simple/12.png' width ='500' height = '500' style='border:5px solid black'>","40","mixed_complex_deviant","images/simple/12.png","images/simple/16.png","images/complex/16.png,images/complex/17.png,images/complex/13.png,images/complex/5.png,images/complex/1.png,images/complex/7.png,images/complex/6.png","1","null","","200","1190.4649999807589","yes","250.4099999787286","","target","",""
"","null","html-keyboard-response","135","238125","0.0-17.0-0.10","SS1604513247100","","null","","","","","","","","","","","","<img src=images/blank.png width =""500"" height = ""500"" style=""border:5px solid black"">","","",""
"","365.7149999635294","stimulus-presentation","136","238707","0.0-17.0-1.10","SS1604513247100","<img src='images/simple/16.png' width ='500' height = '500' style='border:5px solid black'>","40","mixed_complex_deviant","images/simple/12.png","images/simple/16.png","images/complex/16.png,images/complex/17.png,images/complex/13.png,images/complex/5.png,images/complex/1.png,images/complex/7.png,images/complex/6.png","1","null","","200","565.7149999635294","","","","background","",""
"","null","html-keyboard-response","137","239614","0.0-17.0-0.11","SS1604513247100","","null","","","","","","","","","","","","<img src=images/blank.png width =""500"" height = ""500"" style=""border:5px solid black"">","","",""
"","176.73999996623024","stimulus-presentation","138","240007","0.0-17.0-1.11","SS1604513247100","<img src='images/simple/16.png' width ='500' height = '500' style='border:5px solid black'>","40","mixed_complex_deviant","images/simple/12.png","images/simple/16.png","images/complex/16.png,images/complex/17.png,images/complex/13.png,images/complex/5.png,images/complex/1.png,images/complex/7.png,images/complex/6.png","1","null","","200","376.73999996623024","","","","background","",""
"","null","html-keyboard-response","139","240848","0.0-17.0-0.12","SS1604513247100","","null","","","","","","","","","","","","<img src=images/blank.png width =""500"" height = ""500"" style=""border:5px solid black"">","","",""
"","72.35499995294958","stimulus-presentation","140","241137","0.0-17.0-1.12","SS1604513247100","<img src='images/simple/16.png' width ='500' height = '500' style='border:5px solid black'>","40","mixed_complex_deviant","images/simple/12.png","images/simple/16.png","images/complex/16.png,images/complex/17.png,images/complex/13.png,images/complex/5.png,images/complex/1.png,images/complex/7.png,images/complex/6.png","1","null","","200","272.3549999529496","","","","background","",""
"","null","html-keyboard-response","141","242200","0.0-17.0-0.13","SS1604513247100","","null","","","","","","","","","","","","<img src=images/blank.png width =""500"" height = ""500"" style=""border:5px solid black"">","","",""
"","74.80499998200685","stimulus-presentation","142","242498","0.0-17.0-1.13","SS1604513247100","<img src='images/simple/12.png' width ='500' height = '500' style='border:5px solid black'>","40","mixed_complex_deviant","images/simple/12.png","images/simple/16.png","images/complex/16.png,images/complex/17.png,images/complex/13.png,images/complex/5.png,images/complex/1.png,images/complex/7.png,images/complex/6.png","1","null","","200","274.80499998200685","","","","target","",""
"","null","html-keyboard-response","143","243705","0.0-17.0-0.14","SS1604513247100","","null","","","","","","","","","","","","<img src=images/blank.png width =""500"" height = ""500"" style=""border:5px solid black"">","","",""
"","391.0100000211969","stimulus-presentation","144","244319","0.0-17.0-1.14","SS1604513247100","<img src='images/complex/1.png' width ='500' height = '500' style='border:5px solid black'>","40","mixed_complex_deviant","images/simple/12.png","images/simple/16.png","images/complex/16.png,images/complex/17.png,images/complex/13.png,images/complex/5.png,images/complex/1.png,images/complex/7.png,images/complex/6.png","1","null","","200","591.0100000211969","","","","deviant","",""
"","null","html-keyboard-response","145","245495","0.0-17.0-0.15","SS1604513247100","","null","","","","","","","","","","","","<img src=images/blank.png width =""500"" height = ""500"" style=""border:5px solid black"">","","",""
"","157.6999999815598","stimulus-presentation","146","245869","0.0-17.0-1.15","SS1604513247100","<img src='images/simple/16.png' width ='500' height = '500' style='border:5px solid black'>","40","mixed_complex_deviant","images/simple/12.png","images/simple/16.png","images/complex/16.png,images/complex/17.png,images/complex/13.png,images/complex/5.png,images/complex/1.png,images/complex/7.png,images/complex/6.png","1","null","","200","357.6999999815598","","","","background","",""
"","null","html-keyboard-response","147","246984","0.0-17.0-0.16","SS1604513247100","","null","","","","","","","","","","","","<img src=images/blank.png width =""500"" height = ""500"" style=""border:5px solid black"">","","",""
"","128.69500002125278","stimulus-presentation","148","247329","0.0-17.0-1.16","SS1604513247100","<img src='images/simple/16.png' width ='500' height = '500' style='border:5px solid black'>","40","mixed_complex_deviant","images/simple/12.png","images/simple/16.png","images/complex/16.png,images/complex/17.png,images/complex/13.png,images/complex/5.png,images/complex/1.png,images/complex/7.png,images/complex/6.png","1","null","","200","328.6950000212528","","","","background","",""
"","null","html-keyboard-response","149","248387","0.0-17.0-0.17","SS1604513247100","","null","","","","","","","","","","","","<img src=images/blank.png width =""500"" height = ""500"" style=""border:5px solid black"">","","",""
"","215.42999998200685","stimulus-presentation","150","248819","0.0-17.0-1.17","SS1604513247100","<img src='images/simple/16.png' width ='500' height = '500' style='border:5px solid black'>","40","mixed_complex_deviant","images/simple/12.png","images/simple/16.png","images/complex/16.png,images/complex/17.png,images/complex/13.png,images/complex/5.png,images/complex/1.png,images/complex/7.png,images/complex/6.png","1","null","","200","415.42999998200685","","","","background","",""
"","null","html-keyboard-response","151","250077","0.0-17.0-0.18","SS1604513247100","","null","","","","","","","","","","","","<img src=images/blank.png width =""500"" height = ""500"" style=""border:5px solid black"">","","",""
"","115.61999999685213","stimulus-presentation","152","250409","0.0-17.0-1.18","SS1604513247100","<img src='images/simple/16.png' width ='500' height = '500' style='border:5px solid black'>","40","mixed_complex_deviant","images/simple/12.png","images/simple/16.png","images/complex/16.png,images/complex/17.png,images/complex/13.png,images/complex/5.png,images/complex/1.png,images/complex/7.png,images/complex/6.png","1","null","","200","315.61999999685213","","","","background","",""
"","null","html-keyboard-response","153","251651","0.0-17.0-0.19","SS1604513247100","","null","","","","","","","","","","","","<img src=images/blank.png width =""500"" height = ""500"" style=""border:5px solid black"">","","",""
"","91.98000002652407","stimulus-presentation","154","251960","0.0-17.0-1.19","SS1604513247100","<img src='images/simple/16.png' width ='500' height = '500' style='border:5px solid black'>","40","mixed_complex_deviant","images/simple/12.png","images/simple/16.png","images/complex/16.png,images/complex/17.png,images/complex/13.png,images/complex/5.png,images/complex/1.png,images/complex/7.png,images/complex/6.png","1","null","","200","291.98000002652407","","","","background","",""
"","null","html-keyboard-response","155","252817","0.0-17.0-0.20","SS1604513247100","","null","","","","","","","","","","","","<img src=images/blank.png width =""500"" height = ""500"" style=""border:5px solid black"">","","",""
"","256.3800000352785","stimulus-presentation","156","253290","0.0-17.0-1.20","SS1604513247100","<img src='images/complex/6.png' width ='500' height = '500' style='border:5px solid black'>","40","mixed_complex_deviant","images/simple/12.png","images/simple/16.png","images/complex/16.png,images/complex/17.png,images/complex/13.png,images/complex/5.png,images/complex/1.png,images/complex/7.png,images/complex/6.png","1","null","","200","456.3800000352785","","","","deviant","",""
"","null","html-keyboard-response","157","254609","0.0-17.0-0.21","SS1604513247100","","null","","","","","","","","","","","","<img src=images/blank.png width =""500"" height = ""500"" style=""border:5px solid black"">","","",""
"","2265.0549999671057","stimulus-presentation","158","257089","0.0-17.0-1.21","SS1604513247100","<img src='images/simple/12.png' width ='500' height = '500' style='border:5px solid black'>","40","mixed_complex_deviant","images/simple/12.png","images/simple/16.png","images/complex/16.png,images/complex/17.png,images/complex/13.png,images/complex/5.png,images/complex/1.png,images/complex/7.png,images/complex/6.png","1","null","","200","2465.0549999671057","yes","315.58499997481704","","target","",""
"","null","html-keyboard-response","159","258288","0.0-17.0-0.22","SS1604513247100","","null","","","","","","","","","","","","<img src=images/blank.png width =""500"" height = ""500"" style=""border:5px solid black"">","","",""
"","218.2850000099279","stimulus-presentation","160","258730","0.0-17.0-1.22","SS1604513247100","<img src='images/simple/16.png' width ='500' height = '500' style='border:5px solid black'>","40","mixed_complex_deviant","images/simple/12.png","images/simple/16.png","images/complex/16.png,images/complex/17.png,images/complex/13.png,images/complex/5.png,images/complex/1.png,images/complex/7.png,images/complex/6.png","1","null","","200","418.2850000099279","","","","background","",""
"","null","html-keyboard-response","161","259560","0.0-17.0-0.23","SS1604513247100","","null","","","","","","","","","","","","<img src=images/blank.png width =""500"" height = ""500"" style=""border:5px solid black"">","","",""
"","121.14500004099682","stimulus-presentation","162","259899","0.0-17.0-1.23","SS1604513247100","<img src='images/simple/16.png' width ='500' height = '500' style='border:5px solid black'>","40","mixed_complex_deviant","images/simple/12.png","images/simple/16.png","images/complex/16.png,images/complex/17.png,images/complex/13.png,images/complex/5.png,images/complex/1.png,images/complex/7.png,images/complex/6.png","1","null","","200","321.1450000409968","","","","background","",""
"","null","html-keyboard-response","163","261177","0.0-17.0-0.24","SS1604513247100","","null","","","","","","","","","","","","<img src=images/blank.png width =""500"" height = ""500"" style=""border:5px solid black"">","","",""
"","705.9100000187755","stimulus-presentation","164","262089","0.0-17.0-1.24","SS1604513247100","<img src='images/simple/16.png' width ='500' height = '500' style='border:5px solid black'>","40","mixed_complex_deviant","images/simple/12.png","images/simple/16.png","images/complex/16.png,images/complex/17.png,images/complex/13.png,images/complex/5.png,images/complex/1.png,images/complex/7.png,images/complex/6.png","1","null","","200","905.9100000187755","","","","background","",""
"","null","html-keyboard-response","165","262988","0.0-17.0-0.25","SS1604513247100","","null","","","","","","","","","","","","<img src=images/blank.png width =""500"" height = ""500"" style=""border:5px solid black"">","","",""
"","107.46499995002523","stimulus-presentation","166","263310","0.0-17.0-1.25","SS1604513247100","<img src='images/simple/16.png' width ='500' height = '500' style='border:5px solid black'>","40","mixed_complex_deviant","images/simple/12.png","images/simple/16.png","images/complex/16.png,images/complex/17.png,images/complex/13.png,images/complex/5.png,images/complex/1.png,images/complex/7.png,images/complex/6.png","1","null","","200","307.46499995002523","","","","background","",""
"","null","html-keyboard-response","167","264205","0.0-17.0-0.26","SS1604513247100","","null","","","","","","","","","","","","<img src=images/blank.png width =""500"" height = ""500"" style=""border:5px solid black"">","","",""
"","72.7249999763444","stimulus-presentation","168","264500","0.0-17.0-1.26","SS1604513247100","<img src='images/simple/16.png' width ='500' height = '500' style='border:5px solid black'>","40","mixed_complex_deviant","images/simple/12.png","images/simple/16.png","images/complex/16.png,images/complex/17.png,images/complex/13.png,images/complex/5.png,images/complex/1.png,images/complex/7.png,images/complex/6.png","1","null","","200","272.7249999763444","","","","background","",""
"","null","html-keyboard-response","169","265534","0.0-17.0-0.27","SS1604513247100","","null","","","","","","","","","","","","<img src=images/blank.png width =""500"" height = ""500"" style=""border:5px solid black"">","","",""
"","49.8350000125356","stimulus-presentation","170","265812","0.0-17.0-1.27","SS1604513247100","<img src='images/simple/12.png' width ='500' height = '500' style='border:5px solid black'>","40","mixed_complex_deviant","images/simple/12.png","images/simple/16.png","images/complex/16.png,images/complex/17.png,images/complex/13.png,images/complex/5.png,images/complex/1.png,images/complex/7.png,images/complex/6.png","1","null","","200","249.8350000125356","","","","target","",""
"","null","html-keyboard-response","171","266734","0.0-17.0-0.28","SS1604513247100","","null","","","","","","","","","","","","<img src=images/blank.png width =""500"" height = ""500"" style=""border:5px solid black"">","","",""
"","468.23500003665686","stimulus-presentation","172","267421","0.0-17.0-1.28","SS1604513247100","<img src='images/complex/17.png' width ='500' height = '500' style='border:5px solid black'>","40","mixed_complex_deviant","images/simple/12.png","images/simple/16.png","images/complex/16.png,images/complex/17.png,images/complex/13.png,images/complex/5.png,images/complex/1.png,images/complex/7.png,images/complex/6.png","1","null","","200","668.2350000366569","","","","deviant","",""
"","null","html-keyboard-response","173","268339","0.0-17.0-0.29","SS1604513247100","","null","","","","","","","","","","","","<img src=images/blank.png width =""500"" height = ""500"" style=""border:5px solid black"">","","",""
"","49.7849999810569","stimulus-presentation","174","268610","0.0-17.0-1.29","SS1604513247100","<img src='images/simple/16.png' width ='500' height = '500' style='border:5px solid black'>","40","mixed_complex_deviant","images/simple/12.png","images/simple/16.png","images/complex/16.png,images/complex/17.png,images/complex/13.png,images/complex/5.png,images/complex/1.png,images/complex/7.png,images/complex/6.png","1","null","","200","249.7849999810569","","","","background","",""
"","null","html-keyboard-response","175","269643","0.0-17.0-0.30","SS1604513247100","","null","","","","","","","","","","","","<img src=images/blank.png width =""500"" height = ""500"" style=""border:5px solid black"">","","",""
"","170.54999998072162","stimulus-presentation","176","270030","0.0-17.0-1.30","SS1604513247100","<img src='images/simple/16.png' width ='500' height = '500' style='border:5px solid black'>","40","mixed_complex_deviant","images/simple/12.png","images/simple/16.png","images/complex/16.png,images/complex/17.png,images/complex/13.png,images/complex/5.png,images/complex/1.png,images/complex/7.png,images/complex/6.png","1","null","","200","370.5499999807216","","","","background","",""
"","null","html-keyboard-response","177","271078","0.0-17.0-0.31","SS1604513247100","","null","","","","","","","","","","","","<img src=images/blank.png width =""500"" height = ""500"" style=""border:5px solid black"">","","",""
"","87.56499999435619","stimulus-presentation","178","271382","0.0-17.0-1.31","SS1604513247100","<img src='images/complex/5.png' width ='500' height = '500' style='border:5px solid black'>","40","mixed_complex_deviant","images/simple/12.png","images/simple/16.png","images/complex/16.png,images/complex/17.png,images/complex/13.png,images/complex/5.png,images/complex/1.png,images/complex/7.png,images/complex/6.png","1","null","","200","287.5649999943562","","","","deviant","",""
"","null","html-keyboard-response","179","272682","0.0-17.0-0.32","SS1604513247100","","null","","","","","","","","","","","","<img src=images/blank.png width =""500"" height = ""500"" style=""border:5px solid black"">","","",""
"","547.0550000318326","stimulus-presentation","180","273461","0.0-17.0-1.32","SS1604513247100","<img src='images/simple/16.png' width ='500' height = '500' style='border:5px solid black'>","40","mixed_complex_deviant","images/simple/12.png","images/simple/16.png","images/complex/16.png,images/complex/17.png,images/complex/13.png,images/complex/5.png,images/complex/1.png,images/complex/7.png,images/complex/6.png","1","null","","200","747.0550000318326","","","","background","",""
"","null","html-keyboard-response","181","274657","0.0-17.0-0.33","SS1604513247100","","null","","","","","","","","","","","","<img src=images/blank.png width =""500"" height = ""500"" style=""border:5px solid black"">","","",""
"","69.99999994877726","stimulus-presentation","182","274962","0.0-17.0-1.33","SS1604513247100","<img src='images/simple/16.png' width ='500' height = '500' style='border:5px solid black'>","40","mixed_complex_deviant","images/simple/12.png","images/simple/16.png","images/complex/16.png,images/complex/17.png,images/complex/13.png,images/complex/5.png,images/complex/1.png,images/complex/7.png,images/complex/6.png","1","null","","200","269.99999994877726","","","","background","",""
"","null","html-keyboard-response","183","276010","0.0-17.0-0.34","SS1604513247100","","null","","","","","","","","","","","","<img src=images/blank.png width =""500"" height = ""500"" style=""border:5px solid black"">","","",""
"","92.27999998256564","stimulus-presentation","184","276332","0.0-17.0-1.34","SS1604513247100","<img src='images/simple/16.png' width ='500' height = '500' style='border:5px solid black'>","40","mixed_complex_deviant","images/simple/12.png","images/simple/16.png","images/complex/16.png,images/complex/17.png,images/complex/13.png,images/complex/5.png,images/complex/1.png,images/complex/7.png,images/complex/6.png","1","null","","200","292.27999998256564","","","","background","",""
"","null","html-keyboard-response","185","277412","0.0-17.0-0.35","SS1604513247100","","null","","","","","","","","","","","","<img src=images/blank.png width =""500"" height = ""500"" style=""border:5px solid black"">","","",""
"","95.87499999906868","stimulus-presentation","186","277741","0.0-17.0-1.35","SS1604513247100","<img src='images/simple/16.png' width ='500' height = '500' style='border:5px solid black'>","40","mixed_complex_deviant","images/simple/12.png","images/simple/16.png","images/complex/16.png,images/complex/17.png,images/complex/13.png,images/complex/5.png,images/complex/1.png,images/complex/7.png,images/complex/6.png","1","null","","200","295.8749999990687","","","","background","",""
"","null","html-keyboard-response","187","278933","0.0-17.0-0.36","SS1604513247100","","null","","","","","","","","","","","","<img src=images/blank.png width =""500"" height = ""500"" style=""border:5px solid black"">","","",""
"","80.52499999757856","stimulus-presentation","188","279230","0.0-17.0-1.36","SS1604513247100","<img src='images/simple/16.png' width ='500' height = '500' style='border:5px solid black'>","40","mixed_complex_deviant","images/simple/12.png","images/simple/16.png","images/complex/16.png,images/complex/17.png,images/complex/13.png,images/complex/5.png,images/complex/1.png,images/complex/7.png,images/complex/6.png","1","null","","200","280.52499999757856","","","","background","",""
"","null","html-keyboard-response","189","280491","0.0-17.0-0.37","SS1604513247100","","null","","","","","","","","","","","","<img src=images/blank.png width =""500"" height = ""500"" style=""border:5px solid black"">","","",""
"","132.55499996012077","stimulus-presentation","190","280840","0.0-17.0-1.37","SS1604513247100","<img src='images/simple/16.png' width ='500' height = '500' style='border:5px solid black'>","40","mixed_complex_deviant","images/simple/12.png","images/simple/16.png","images/complex/16.png,images/complex/17.png,images/complex/13.png,images/complex/5.png,images/complex/1.png,images/complex/7.png,images/complex/6.png","1","null","","200","332.55499996012077","","","","background","",""
"","null","html-keyboard-response","191","281894","0.0-17.0-0.38","SS1604513247100","","null","","","","","","","","","","","","<img src=images/blank.png width =""500"" height = ""500"" style=""border:5px solid black"">","","",""
"","378.63500003004447","stimulus-presentation","192","282490","0.0-17.0-1.38","SS1604513247100","<img src='images/complex/7.png' width ='500' height = '500' style='border:5px solid black'>","40","mixed_complex_deviant","images/simple/12.png","images/simple/16.png","images/complex/16.png,images/complex/17.png,images/complex/13.png,images/complex/5.png,images/complex/1.png,images/complex/7.png,images/complex/6.png","1","null","","200","578.6350000300445","","","","deviant","",""
"","null","html-keyboard-response","193","283330","0.0-17.0-0.39","SS1604513247100","","null","","","","","","","","","","","","<img src=images/blank.png width =""500"" height = ""500"" style=""border:5px solid black"">","","",""
"","124.69500000588596","stimulus-presentation","194","283671","0.0-17.0-1.39","SS1604513247100","<img src='images/simple/16.png' width ='500' height = '500' style='border:5px solid black'>","40","mixed_complex_deviant","images/simple/12.png","images/simple/16.png","images/complex/16.png,images/complex/17.png,images/complex/13.png,images/complex/5.png,images/complex/1.png,images/complex/7.png,images/complex/6.png","1","null","","200","324.69500000588596","","","","background","",""
"","null","html-keyboard-response","195","284704","0.0-17.0-0.40","SS1604513247100","","null","","","","","","","","","","","","<img src=images/blank.png width =""500"" height = ""500"" style=""border:5px solid black"">","","",""
"","93.12999999383464","stimulus-presentation","196","285010","0.0-17.0-1.40","SS1604513247100","<img src='images/simple/16.png' width ='500' height = '500' style='border:5px solid black'>","40","mixed_complex_deviant","images/simple/12.png","images/simple/16.png","images/complex/16.png,images/complex/17.png,images/complex/13.png,images/complex/5.png,images/complex/1.png,images/complex/7.png,images/complex/6.png","1","null","","200","293.12999999383464","","","","background","",""
"","null","html-keyboard-response","197","286007","0.0-17.0-0.41","SS1604513247100","","null","","","","","","","","","","","","<img src=images/blank.png width =""500"" height = ""500"" style=""border:5px solid black"">","","",""
"","116.94999999599531","stimulus-presentation","198","286340","0.0-17.0-1.41","SS1604513247100","<img src='images/simple/16.png' width ='500' height = '500' style='border:5px solid black'>","40","mixed_complex_deviant","images/simple/12.png","images/simple/16.png","images/complex/16.png,images/complex/17.png,images/complex/13.png,images/complex/5.png,images/complex/1.png,images/complex/7.png,images/complex/6.png","1","null","","200","316.9499999959953","","","","background","",""
"","null","html-keyboard-response","199","287310","0.0-17.0-0.42","SS1604513247100","","null","","","","","","","","","","","","<img src=images/blank.png width =""500"" height = ""500"" style=""border:5px solid black"">","","",""
"","553.9950000238605","stimulus-presentation","200","288081","0.0-17.0-1.42","SS1604513247100","<img src='images/simple/12.png' width ='500' height = '500' style='border:5px solid black'>","40","mixed_complex_deviant","images/simple/12.png","images/simple/16.png","images/complex/16.png,images/complex/17.png,images/complex/13.png,images/complex/5.png,images/complex/1.png,images/complex/7.png,images/complex/6.png","1","null","","200","753.9950000238605","","","","target","",""
"","null","html-keyboard-response","201","289347","0.0-17.0-0.43","SS1604513247100","","null","","","","","","","","","","","","<img src=images/blank.png width =""500"" height = ""500"" style=""border:5px solid black"">","","",""
"","186.76499999128282","stimulus-presentation","202","289749","0.0-17.0-1.43","SS1604513247100","<img src='images/simple/16.png' width ='500' height = '500' style='border:5px solid black'>","40","mixed_complex_deviant","images/simple/12.png","images/simple/16.png","images/complex/16.png,images/complex/17.png,images/complex/13.png,images/complex/5.png,images/complex/1.png,images/complex/7.png,images/complex/6.png","1","null","","200","386.7649999912828","","","","background","",""
"","null","html-keyboard-response","203","290981","0.0-17.0-0.44","SS1604513247100","","null","","","","","","","","","","","","<img src=images/blank.png width =""500"" height = ""500"" style=""border:5px solid black"">","","",""
"","45.20499997306615","stimulus-presentation","204","291250","0.0-17.0-1.44","SS1604513247100","<img src='images/simple/16.png' width ='500' height = '500' style='border:5px solid black'>","40","mixed_complex_deviant","images/simple/12.png","images/simple/16.png","images/complex/16.png,images/complex/17.png,images/complex/13.png,images/complex/5.png,images/complex/1.png,images/complex/7.png,images/complex/6.png","1","null","","200","245.20499997306615","","","","background","",""
"","null","html-keyboard-response","205","292207","0.0-17.0-0.45","SS1604513247100","","null","","","","","","","","","","","","<img src=images/blank.png width =""500"" height = ""500"" style=""border:5px solid black"">","","",""
"","955.7350000250153","stimulus-presentation","206","293380","0.0-17.0-1.45","SS1604513247100","<img src='images/simple/16.png' width ='500' height = '500' style='border:5px solid black'>","40","mixed_complex_deviant","images/simple/12.png","images/simple/16.png","images/complex/16.png,images/complex/17.png,images/complex/13.png,images/complex/5.png,images/complex/1.png,images/complex/7.png,images/complex/6.png","1","null","","200","1155.7350000250153","","","","background","",""
"","null","html-keyboard-response","207","294591","0.0-17.0-0.46","SS1604513247100","","null","","","","","","","","","","","","<img src=images/blank.png width =""500"" height = ""500"" style=""border:5px solid black"">","","",""
"","1695.160000002943","stimulus-presentation","208","296510","0.0-17.0-1.46","SS1604513247100","<img src='images/simple/16.png' width ='500' height = '500' style='border:5px solid black'>","40","mixed_complex_deviant","images/simple/12.png","images/simple/16.png","images/complex/16.png,images/complex/17.png,images/complex/13.png,images/complex/5.png,images/complex/1.png,images/complex/7.png,images/complex/6.png","1","null","","200","1895.160000002943","","","","background","",""
"","null","html-keyboard-response","209","297787","0.0-17.0-0.47","SS1604513247100","","null","","","","","","","","","","","","<img src=images/blank.png width =""500"" height = ""500"" style=""border:5px solid black"">","","",""
"","5758.130000031088","stimulus-presentation","210","303758","0.0-17.0-1.47","SS1604513247100","<img src='images/simple/12.png' width ='500' height = '500' style='border:5px solid black'>","40","mixed_complex_deviant","images/simple/12.png","images/simple/16.png","images/complex/16.png,images/complex/17.png,images/complex/13.png,images/complex/5.png,images/complex/1.png,images/complex/7.png,images/complex/6.png","1","null","","200","5958.130000031088","yes","268.68000003742054","","target","",""
"","null","html-keyboard-response","211","304874","0.0-17.0-0.48","SS1604513247100","","null","","","","","","","","","","","","<img src=images/blank.png width =""500"" height = ""500"" style=""border:5px solid black"">","","",""
"","158.7500000023283","stimulus-presentation","212","305248","0.0-17.0-1.48","SS1604513247100","<img src='images/simple/16.png' width ='500' height = '500' style='border:5px solid black'>","40","mixed_complex_deviant","images/simple/12.png","images/simple/16.png","images/complex/16.png,images/complex/17.png,images/complex/13.png,images/complex/5.png,images/complex/1.png,images/complex/7.png,images/complex/6.png","1","null","","200","358.7500000023283","","","","background","",""
"[{""page_index"":0,""viewing_time"":4314}]","4314","task-instructions","213","309574","0.0-18.0","SS1604513247100","","","","","","","","","","","","","","","","",""
"[{""page_index"":0,""viewing_time"":1617.099999974016},{""page_index"":1,""viewing_time"":2558.729999989737},{""page_index"":2,""viewing_time"":1374.2900000070222}]","5551.3149999897","instructions","214","315133","0.0-19.0","SS1604513247100","","","","","","","","","","","","","","","","",""
"","null","html-keyboard-response","215","316236","0.0-20.0-0.0","SS1604513247100","","null","","","","","","","","","","","","<img src=images/blank.png width =""500"" height = ""500"" style=""border:5px solid black"">","","",""
"","333.76999996835366","stimulus-presentation","216","316809","0.0-20.0-1.0","SS1604513247100","<img src='images/simple/17.png' width ='500' height = '500' style='border:5px solid black'>","40","all_simple","images/simple/15.png","images/simple/17.png","images/simple/6.png,images/simple/14.png,images/simple/2.png,images/simple/5.png,images/simple/3.png,images/simple/7.png,images/simple/4.png","2","null","","200","533.7699999683537","","","","background","",""
"","null","html-keyboard-response","217","317945","0.0-20.0-0.1","SS1604513247100","","null","","","","","","","","","","","","<img src=images/blank.png width =""500"" height = ""500"" style=""border:5px solid black"">","","",""
"","526.8999999971129","stimulus-presentation","218","318688","0.0-20.0-1.1","SS1604513247100","<img src='images/simple/14.png' width ='500' height = '500' style='border:5px solid black'>","40","all_simple","images/simple/15.png","images/simple/17.png","images/simple/6.png,images/simple/14.png,images/simple/2.png,images/simple/5.png,images/simple/3.png,images/simple/7.png,images/simple/4.png","2","null","","200","726.8999999971129","","","","deviant","",""
"","null","html-keyboard-response","219","319965","0.0-20.0-0.2","SS1604513247100","","null","","","","","","","","","","","","<img src=images/blank.png width =""500"" height = ""500"" style=""border:5px solid black"">","","",""
"","57.24500003270805","stimulus-presentation","220","320239","0.0-20.0-1.2","SS1604513247100","<img src='images/simple/17.png' width ='500' height = '500' style='border:5px solid black'>","40","all_simple","images/simple/15.png","images/simple/17.png","images/simple/6.png,images/simple/14.png,images/simple/2.png,images/simple/5.png,images/simple/3.png,images/simple/7.png,images/simple/4.png","2","null","","200","257.24500003270805","","","","background","",""
"","null","html-keyboard-response","221","321170","0.0-20.0-0.3","SS1604513247100","","null","","","","","","","","","","","","<img src=images/blank.png width =""500"" height = ""500"" style=""border:5px solid black"">","","",""
"","51.69499997282401","stimulus-presentation","222","321439","0.0-20.0-1.3","SS1604513247100","<img src='images/simple/6.png' width ='500' height = '500' style='border:5px solid black'>","40","all_simple","images/simple/15.png","images/simple/17.png","images/simple/6.png,images/simple/14.png,images/simple/2.png,images/simple/5.png,images/simple/3.png,images/simple/7.png,images/simple/4.png","2","null","","200","251.694999972824","","","","deviant","",""
"","null","html-keyboard-response","223","322461","0.0-20.0-0.4","SS1604513247100","","null","","","","","","","","","","","","<img src=images/blank.png width =""500"" height = ""500"" style=""border:5px solid black"">","","",""
"","113.4650000021793","stimulus-presentation","224","322788","0.0-20.0-1.4","SS1604513247100","<img src='images/simple/17.png' width ='500' height = '500' style='border:5px solid black'>","40","all_simple","images/simple/15.png","images/simple/17.png","images/simple/6.png,images/simple/14.png,images/simple/2.png,images/simple/5.png,images/simple/3.png,images/simple/7.png,images/simple/4.png","2","null","","200","313.4650000021793","","","","background","",""
"","null","html-keyboard-response","225","323877","0.0-20.0-0.5","SS1604513247100","","null","","","","","","","","","","","","<img src=images/blank.png width =""500"" height = ""500"" style=""border:5px solid black"">","","",""
"","165.90999998152256","stimulus-presentation","226","324260","0.0-20.0-1.5","SS1604513247100","<img src='images/simple/17.png' width ='500' height = '500' style='border:5px solid black'>","40","all_simple","images/simple/15.png","images/simple/17.png","images/simple/6.png,images/simple/14.png,images/simple/2.png,images/simple/5.png,images/simple/3.png,images/simple/7.png,images/simple/4.png","2","null","","200","365.90999998152256","","","","background","",""
"","null","html-keyboard-response","227","325379","0.0-20.0-0.6","SS1604513247100","","null","","","","","","","","","","","","<img src=images/blank.png width =""500"" height = ""500"" style=""border:5px solid black"">","","",""
"","334.68000002903864","stimulus-presentation","228","325921","0.0-20.0-1.6","SS1604513247100","<img src='images/simple/17.png' width ='500' height = '500' style='border:5px solid black'>","40","all_simple","images/simple/15.png","images/simple/17.png","images/simple/6.png,images/simple/14.png,images/simple/2.png,images/simple/5.png,images/simple/3.png,images/simple/7.png,images/simple/4.png","2","null","","200","534.6800000290386","","","","background","",""
"","null","html-keyboard-response","229","327089","0.0-20.0-0.7","SS1604513247100","","null","","","","","","","","","","","","<img src=images/blank.png width =""500"" height = ""500"" style=""border:5px solid black"">","","",""
"","119.44499996025115","stimulus-presentation","230","327428","0.0-20.0-1.7","SS1604513247100","<img src='images/simple/17.png' width ='500' height = '500' style='border:5px solid black'>","40","all_simple","images/simple/15.png","images/simple/17.png","images/simple/6.png,images/simple/14.png,images/simple/2.png,images/simple/5.png,images/simple/3.png,images/simple/7.png,images/simple/4.png","2","null","","200","319.44499996025115","","","","background","",""
"","null","html-keyboard-response","231","328340","0.0-20.0-0.8","SS1604513247100","","null","","","","","","","","","","","","<img src=images/blank.png width =""500"" height = ""500"" style=""border:5px solid black"">","","",""
"","232.1599999559112","stimulus-presentation","232","328778","0.0-20.0-1.8","SS1604513247100","<img src='images/simple/17.png' width ='500' height = '500' style='border:5px solid black'>","40","all_simple","images/simple/15.png","images/simple/17.png","images/simple/6.png,images/simple/14.png,images/simple/2.png,images/simple/5.png,images/simple/3.png,images/simple/7.png,images/simple/4.png","2","null","","200","432.1599999559112","","","","background","",""
"","null","html-keyboard-response","233","330063","0.0-20.0-0.9","SS1604513247100","","null","","","","","","","","","","","","<img src=images/blank.png width =""500"" height = ""500"" style=""border:5px solid black"">","","",""
"","107.54499997710809","stimulus-presentation","234","330389","0.0-20.0-1.9","SS1604513247100","<img src='images/simple/2.png' width ='500' height = '500' style='border:5px solid black'>","40","all_simple","images/simple/15.png","images/simple/17.png","images/simple/6.png,images/simple/14.png,images/simple/2.png,images/simple/5.png,images/simple/3.png,images/simple/7.png,images/simple/4.png","2","null","","200","307.5449999771081","","","","deviant","",""
"","null","html-keyboard-response","235","331655","0.0-20.0-0.10","SS1604513247100","","null","","","","","","","","","","","","<img src=images/blank.png width =""500"" height = ""500"" style=""border:5px solid black"">","","",""
"","164.71499996259809","stimulus-presentation","236","332039","0.0-20.0-1.10","SS1604513247100","<img src='images/simple/17.png' width ='500' height = '500' style='border:5px solid black'>","40","all_simple","images/simple/15.png","images/simple/17.png","images/simple/6.png,images/simple/14.png,images/simple/2.png,images/simple/5.png,images/simple/3.png,images/simple/7.png,images/simple/4.png","2","null","","200","364.7149999625981","","","","background","",""
"","null","html-keyboard-response","237","333040","0.0-20.0-0.11","SS1604513247100","","null","","","","","","","","","","","","<img src=images/blank.png width =""500"" height = ""500"" style=""border:5px solid black"">","","",""
"","15.180000045802444","stimulus-presentation","238","333278","0.0-20.0-1.11","SS1604513247100","<img src='images/simple/17.png' width ='500' height = '500' style='border:5px solid black'>","40","all_simple","images/simple/15.png","images/simple/17.png","images/simple/6.png,images/simple/14.png,images/simple/2.png,images/simple/5.png,images/simple/3.png,images/simple/7.png,images/simple/4.png","2","null","","200","215.18000004580244","","","","background","",""
"","null","html-keyboard-response","239","334445","0.0-20.0-0.12","SS1604513247100","","null","","","","","","","","","","","","<img src=images/blank.png width =""500"" height = ""500"" style=""border:5px solid black"">","","",""
"","90.87499999441206","stimulus-presentation","240","334749","0.0-20.0-1.12","SS1604513247100","<img src='images/simple/17.png' width ='500' height = '500' style='border:5px solid black'>","40","all_simple","images/simple/15.png","images/simple/17.png","images/simple/6.png,images/simple/14.png,images/simple/2.png,images/simple/5.png,images/simple/3.png,images/simple/7.png,images/simple/4.png","2","null","","200","290.87499999441206","","","","background","",""
"","null","html-keyboard-response","241","335813","0.0-20.0-0.13","SS1604513247100","","null","","","","","","","","","","","","<img src=images/blank.png width =""500"" height = ""500"" style=""border:5px solid black"">","","",""
"","119.37499995110556","stimulus-presentation","242","336149","0.0-20.0-1.13","SS1604513247100","<img src='images/simple/17.png' width ='500' height = '500' style='border:5px solid black'>","40","all_simple","images/simple/15.png","images/simple/17.png","images/simple/6.png,images/simple/14.png,images/simple/2.png,images/simple/5.png,images/simple/3.png,images/simple/7.png,images/simple/4.png","2","null","","200","319.37499995110556","","","","background","",""
"","null","html-keyboard-response","243","337072","0.0-20.0-0.14","SS1604513247100","","null","","","","","","","","","","","","<img src=images/blank.png width =""500"" height = ""500"" style=""border:5px solid black"">","","",""
"","1137.5450000050478","stimulus-presentation","244","338429","0.0-20.0-1.14","SS1604513247100","<img src='images/simple/17.png' width ='500' height = '500' style='border:5px solid black'>","40","all_simple","images/simple/15.png","images/simple/17.png","images/simple/6.png,images/simple/14.png,images/simple/2.png,images/simple/5.png,images/simple/3.png,images/simple/7.png,images/simple/4.png","2","null","","200","1337.5450000050478","","","","background","",""
"","null","html-keyboard-response","245","339700","0.0-20.0-0.15","SS1604513247100","","null","","","","","","","","","","","","<img src=images/blank.png width =""500"" height = ""500"" style=""border:5px solid black"">","","",""
"","1854.8900000168942","stimulus-presentation","246","341771","0.0-20.0-1.15","SS1604513247100","<img src='images/simple/17.png' width ='500' height = '500' style='border:5px solid black'>","40","all_simple","images/simple/15.png","images/simple/17.png","images/simple/6.png,images/simple/14.png,images/simple/2.png,images/simple/5.png,images/simple/3.png,images/simple/7.png,images/simple/4.png","2","null","","200","2054.890000016894","","","","background","",""
"","null","html-keyboard-response","247","343065","0.0-20.0-0.16","SS1604513247100","","null","","","","","","","","","","","","<img src=images/blank.png width =""500"" height = ""500"" style=""border:5px solid black"">","","",""
"","792.5149999791756","stimulus-presentation","248","344080","0.0-20.0-1.16","SS1604513247100","<img src='images/simple/17.png' width ='500' height = '500' style='border:5px solid black'>","40","all_simple","images/simple/15.png","images/simple/17.png","images/simple/6.png,images/simple/14.png,images/simple/2.png,images/simple/5.png,images/simple/3.png,images/simple/7.png,images/simple/4.png","2","null","","200","992.5149999791756","","","","background","",""
"","null","html-keyboard-response","249","345058","0.0-20.0-0.17","SS1604513247100","","null","","","","","","","","","","","","<img src=images/blank.png width =""500"" height = ""500"" style=""border:5px solid black"">","","",""
"","173.1800000416115","stimulus-presentation","250","345450","0.0-20.0-1.17","SS1604513247100","<img src='images/simple/17.png' width ='500' height = '500' style='border:5px solid black'>","40","all_simple","images/simple/15.png","images/simple/17.png","images/simple/6.png,images/simple/14.png,images/simple/2.png,images/simple/5.png,images/simple/3.png,images/simple/7.png,images/simple/4.png","2","null","","200","373.1800000416115","","","","background","",""
"","null","html-keyboard-response","251","346538","0.0-20.0-0.18","SS1604513247100","","null","","","","","","","","","","","","<img src=images/blank.png width =""500"" height = ""500"" style=""border:5px solid black"">","","",""
"","2176.1149999802","stimulus-presentation","252","348928","0.0-20.0-1.18","SS1604513247100","<img src='images/simple/15.png' width ='500' height = '500' style='border:5px solid black'>","40","all_simple","images/simple/15.png","images/simple/17.png","images/simple/6.png,images/simple/14.png,images/simple/2.png,images/simple/5.png,images/simple/3.png,images/simple/7.png,images/simple/4.png","2","null","","200","2376.1149999802","yes","1657.4000000255182","","target","",""
"","null","html-keyboard-response","253","350032","0.0-20.0-0.19","SS1604513247100","","null","","","","","","","","","","","","<img src=images/blank.png width =""500"" height = ""500"" style=""border:5px solid black"">","","",""
"","241.41999997664243","stimulus-presentation","254","350489","0.0-20.0-1.19","SS1604513247100","<img src='images/simple/17.png' width ='500' height = '500' style='border:5px solid black'>","40","all_simple","images/simple/15.png","images/simple/17.png","images/simple/6.png,images/simple/14.png,images/simple/2.png,images/simple/5.png,images/simple/3.png,images/simple/7.png,images/simple/4.png","2","null","","200","441.41999997664243","","","","background","",""
"","null","html-keyboard-response","255","351786","0.0-20.0-0.20","SS1604513247100","","null","","","","","","","","","","","","<img src=images/blank.png width =""500"" height = ""500"" style=""border:5px solid black"">","","",""
"","178.23000001953915","stimulus-presentation","256","352179","0.0-20.0-1.20","SS1604513247100","<img src='images/simple/17.png' width ='500' height = '500' style='border:5px solid black'>","40","all_simple","images/simple/15.png","images/simple/17.png","images/simple/6.png,images/simple/14.png,images/simple/2.png,images/simple/5.png,images/simple/3.png,images/simple/7.png,images/simple/4.png","2","null","","200","378.23000001953915","","","","background","",""
"","null","html-keyboard-response","257","353314","0.0-20.0-0.21","SS1604513247100","","null","","","","","","","","","","","","<img src=images/blank.png width =""500"" height = ""500"" style=""border:5px solid black"">","","",""
"","166.7250000173226","stimulus-presentation","258","353699","0.0-20.0-1.21","SS1604513247100","<img src='images/simple/17.png' width ='500' height = '500' style='border:5px solid black'>","40","all_simple","images/simple/15.png","images/simple/17.png","images/simple/6.png,images/simple/14.png,images/simple/2.png,images/simple/5.png,images/simple/3.png,images/simple/7.png,images/simple/4.png","2","null","","200","366.7250000173226","","","","background","",""
"","null","html-keyboard-response","259","354754","0.0-20.0-0.22","SS1604513247100","","null","","","","","","","","","","","","<img src=images/blank.png width =""500"" height = ""500"" style=""border:5px solid black"">","","",""
"","219.55999999772757","stimulus-presentation","260","355187","0.0-20.0-1.22","SS1604513247100","<img src='images/simple/5.png' width ='500' height = '500' style='border:5px solid black'>","40","all_simple","images/simple/15.png","images/simple/17.png","images/simple/6.png,images/simple/14.png,images/simple/2.png,images/simple/5.png,images/simple/3.png,images/simple/7.png,images/simple/4.png","2","null","","200","419.5599999977276","","","","deviant","",""
"","null","html-keyboard-response","261","356336","0.0-20.0-0.23","SS1604513247100","","null","","","","","","","","","","","","<img src=images/blank.png width =""500"" height = ""500"" style=""border:5px solid black"">","","",""
"","506.30000000819564","stimulus-presentation","262","357059","0.0-20.0-1.23","SS1604513247100","<img src='images/simple/17.png' width ='500' height = '500' style='border:5px solid black'>","40","all_simple","images/simple/15.png","images/simple/17.png","images/simple/6.png,images/simple/14.png,images/simple/2.png,images/simple/5.png,images/simple/3.png,images/simple/7.png,images/simple/4.png","2","null","","200","706.3000000081956","","","","background","",""
"","null","html-keyboard-response","263","358361","0.0-20.0-0.24","SS1604513247100","","null","","","","","","","","","","","","<img src=images/blank.png width =""500"" height = ""500"" style=""border:5px solid black"">","","",""
"","172.36999998567626","stimulus-presentation","264","358749","0.0-20.0-1.24","SS1604513247100","<img src='images/simple/17.png' width ='500' height = '500' style='border:5px solid black'>","40","all_simple","images/simple/15.png","images/simple/17.png","images/simple/6.png,images/simple/14.png,images/simple/2.png,images/simple/5.png,images/simple/3.png,images/simple/7.png,images/simple/4.png","2","null","","200","372.36999998567626","","","","background","",""
"","null","html-keyboard-response","265","360037","0.0-20.0-0.25","SS1604513247100","","null","","","","","","","","","","","","<img src=images/blank.png width =""500"" height = ""500"" style=""border:5px solid black"">","","",""
"","706.1849999590777","stimulus-presentation","266","360960","0.0-20.0-1.25","SS1604513247100","<img src='images/simple/15.png' width ='500' height = '500' style='border:5px solid black'>","40","all_simple","images/simple/15.png","images/simple/17.png","images/simple/6.png,images/simple/14.png,images/simple/2.png,images/simple/5.png,images/simple/3.png,images/simple/7.png,images/simple/4.png","2","null","","200","906.1849999590777","yes","216.46500000497326","","target","",""
"","null","html-keyboard-response","267","361845","0.0-20.0-0.26","SS1604513247100","","null","","","","","","","","","","","","<img src=images/blank.png width =""500"" height = ""500"" style=""border:5px solid black"">","","",""
"","139.71499999752268","stimulus-presentation","268","362202","0.0-20.0-1.26","SS1604513247100","<img src='images/simple/4.png' width ='500' height = '500' style='border:5px solid black'>","40","all_simple","images/simple/15.png","images/simple/17.png","images/simple/6.png,images/simple/14.png,images/simple/2.png,images/simple/5.png,images/simple/3.png,images/simple/7.png,images/simple/4.png","2","null","","200","339.7149999975227","","","","deviant","",""
"","null","html-keyboard-response","269","363541","0.0-20.0-0.27","SS1604513247100","","null","","","","","","","","","","","","<img src=images/blank.png width =""500"" height = ""500"" style=""border:5px solid black"">","","",""
"","265.6050000223331","stimulus-presentation","270","364021","0.0-20.0-1.27","SS1604513247100","<img src='images/simple/17.png' width ='500' height = '500' style='border:5px solid black'>","40","all_simple","images/simple/15.png","images/simple/17.png","images/simple/6.png,images/simple/14.png,images/simple/2.png,images/simple/5.png,images/simple/3.png,images/simple/7.png,images/simple/4.png","2","null","","200","465.6050000223331","","","","background","",""
"","null","html-keyboard-response","271","364961","0.0-20.0-0.28","SS1604513247100","","null","","","","","","","","","","","","<img src=images/blank.png width =""500"" height = ""500"" style=""border:5px solid black"">","","",""
"","1267.119999974966","stimulus-presentation","272","366461","0.0-20.0-1.28","SS1604513247100","<img src='images/simple/15.png' width ='500' height = '500' style='border:5px solid black'>","40","all_simple","images/simple/15.png","images/simple/17.png","images/simple/6.png,images/simple/14.png,images/simple/2.png,images/simple/5.png,images/simple/3.png,images/simple/7.png,images/simple/4.png","2","null","","200","1467.119999974966","yes","366.39999999897555","","target","",""
"","null","html-keyboard-response","273","367603","0.0-20.0-0.29","SS1604513247100","","null","","","","","","","","","","","","<img src=images/blank.png width =""500"" height = ""500"" style=""border:5px solid black"">","","",""
"","85.21499997004867","stimulus-presentation","274","367921","0.0-20.0-1.29","SS1604513247100","<img src='images/simple/15.png' width ='500' height = '500' style='border:5px solid black'>","40","all_simple","images/simple/15.png","images/simple/17.png","images/simple/6.png,images/simple/14.png,images/simple/2.png,images/simple/5.png,images/simple/3.png,images/simple/7.png,images/simple/4.png","2","null","","200","285.21499997004867","","","","target","",""
"","null","html-keyboard-response","275","368761","0.0-20.0-0.30","SS1604513247100","","null","","","","","","","","","","","","<img src=images/blank.png width =""500"" height = ""500"" style=""border:5px solid black"">","","",""
"","107.77499998221174","stimulus-presentation","276","369101","0.0-20.0-1.30","SS1604513247100","<img src='images/simple/17.png' width ='500' height = '500' style='border:5px solid black'>","40","all_simple","images/simple/15.png","images/simple/17.png","images/simple/6.png,images/simple/14.png,images/simple/2.png,images/simple/5.png,images/simple/3.png,images/simple/7.png,images/simple/4.png","2","null","","200","307.77499998221174","","","","background","",""
"","null","html-keyboard-response","277","370042","0.0-20.0-0.31","SS1604513247100","","null","","","","","","","","","","","","<img src=images/blank.png width =""500"" height = ""500"" style=""border:5px solid black"">","","",""
"","1859.165000030771","stimulus-presentation","278","372121","0.0-20.0-1.31","SS1604513247100","<img src='images/simple/15.png' width ='500' height = '500' style='border:5px solid black'>","40","all_simple","images/simple/15.png","images/simple/17.png","images/simple/6.png,images/simple/14.png,images/simple/2.png,images/simple/5.png,images/simple/3.png,images/simple/7.png,images/simple/4.png","2","null","","200","2059.165000030771","yes","201.7549999873154","","target","",""
"","null","html-keyboard-response","279","373325","0.0-20.0-0.32","SS1604513247100","","null","","","","","","","","","","","","<img src=images/blank.png width =""500"" height = ""500"" style=""border:5px solid black"">","","",""
"","250.56000001495704","stimulus-presentation","280","373792","0.0-20.0-1.32","SS1604513247100","<img src='images/simple/17.png' width ='500' height = '500' style='border:5px solid black'>","40","all_simple","images/simple/15.png","images/simple/17.png","images/simple/6.png,images/simple/14.png,images/simple/2.png,images/simple/5.png,images/simple/3.png,images/simple/7.png,images/simple/4.png","2","null","","200","450.56000001495704","","","","background","",""
"","null","html-keyboard-response","281","374863","0.0-20.0-0.33","SS1604513247100","","null","","","","","","","","","","","","<img src=images/blank.png width =""500"" height = ""500"" style=""border:5px solid black"">","","",""
"","105.83499999484047","stimulus-presentation","282","375200","0.0-20.0-1.33","SS1604513247100","<img src='images/simple/17.png' width ='500' height = '500' style='border:5px solid black'>","40","all_simple","images/simple/15.png","images/simple/17.png","images/simple/6.png,images/simple/14.png,images/simple/2.png,images/simple/5.png,images/simple/3.png,images/simple/7.png,images/simple/4.png","2","null","","200","305.8349999948405","","","","background","",""
"","null","html-keyboard-response","283","376488","0.0-20.0-0.34","SS1604513247100","","null","","","","","","","","","","","","<img src=images/blank.png width =""500"" height = ""500"" style=""border:5px solid black"">","","",""
