"view_history","rt","trial_type","trial_index","time_elapsed","internal_node_id","subject","trial_stimulus","key_press","task_type","task_target_stimulus","task_background_stimulus","task_deviant_stimuli","task_order_number","block_order_number","trial_order_number","minimum_viewing_duration","trial_looking_time","trial_pressed_space_bar","trial_space_bar_rt","stimulus","trial_stimulus_type","responses","question_order"
"[{""page_index"":0,""viewing_time"":42886.45999997971}]","42887.71499998984","instructions","0","42908","0.0-0.0","SS1604588505621","","","","","","","","","","","","","","","","",""
"[{""page_index"":0,""viewing_time"":9682.624999986729},{""page_index"":1,""viewing_time"":6719.290000008186},{""page_index"":2,""viewing_time"":1699.5999999926426},{""page_index"":3,""viewing_time"":6200.245000014547},{""page_index"":4,""viewing_time"":3721.1799999931827},{""page_index"":5,""viewing_time"":2299.735000007786},{""page_index"":6,""viewing_time"":1989.304999995511},{""page_index"":7,""viewing_time"":2449.0850000001956},{""page_index"":8,""viewing_time"":1362.9950000031386}]","36124.649999983376","instructions","1","79039","0.0-1.0","SS1604588505621","","","","","","","","","","","","","","","","",""
"[{""page_index"":0,""viewing_time"":2634.3249999918044},{""page_index"":1,""viewing_time"":17948.629999998957},{""page_index"":2,""viewing_time"":3512.3749999911524}]","24095.954999997048","instructions","2","103137","0.0-2.0","SS1604588505621","","","","","","","","","","","","","","","","",""
"","11290.970000001835","practice-block","3","114635","0.0-3.0","SS1604588505621","<img src='images/practice/practice_background.jpeg' width ='500' height = '500' style='border:5px solid black'>","40","null","images/practice/practice_target.jpg","null","null","null","null","","200","11490.970000001835","yes","3501.7600000137463","","","",""
"","null","html-keyboard-response","4","115858","0.0-4.0","SS1604588505621","","null","","","","","","","","","","","","<img src=images/blank.png width =""500"" height = ""500"" style=""border:5px solid black"">","","",""
"","443.19999997969717","practice-block","5","116664","0.0-5.0","SS1604588505621","<img src='images/practice/practice_background.jpeg' width ='500' height = '500' style='border:5px solid black'>","40","null","images/practice/practice_target.jpg","null","null","null","null","","200","643.1999999796972","","","","","",""
"","null","html-keyboard-response","6","117736","0.0-6.0","SS1604588505621","","null","","","","","","","","","","","","<img src=images/blank.png width =""500"" height = ""500"" style=""border:5px solid black"">","","",""
"","366.6149999771733","practice-block","7","118314","0.0-7.0","SS1604588505621","<img src='images/practice/practice_deviant.jpeg' width ='500' height = '500' style='border:5px solid black'>","40","null","images/practice/practice_target.jpg","null","null","null","null","","200","566.6149999771733","","","","","",""
"","null","html-keyboard-response","8","119591","0.0-8.0","SS1604588505621","","null","","","","","","","","","","","","<img src=images/blank.png width =""500"" height = ""500"" style=""border:5px solid black"">","","",""
"","13982.220000005327","practice-block","9","133783","0.0-9.0-0.0","SS1604588505621","<img src='images/practice/practice_target.jpg' width ='500' height = '500' style='border:5px solid black'>","40","null","images/practice/practice_target.jpg","null","null","null","null","","200","14182.220000005327","yes","3972.5100000214297","","","",""
"","null","html-keyboard-response","10","134935","0.0-10.0","SS1604588505621","","null","","","","","","","","","","","","<img src=images/blank.png width =""500"" height = ""500"" style=""border:5px solid black"">","","",""
"","3769.1500000073574","practice-block","11","138915","0.0-11.0","SS1604588505621","<img src='images/practice/practice_background.jpeg' width ='500' height = '500' style='border:5px solid black'>","40","null","images/practice/practice_target.jpg","null","null","null","null","","200","3969.1500000073574","","","","","",""
"[{""page_index"":0,""viewing_time"":3053}]","3054","task-instructions","12","141971","0.0-12.0","SS1604588505621","","","","","","","","","","","","","","","","",""
"[{""page_index"":0,""viewing_time"":1989.964999986114},{""page_index"":1,""viewing_time"":20976.410000002943},{""page_index"":2,""viewing_time"":2034.1100000077859}]","25001.109999982873","instructions","13","166975","0.0-13.0","SS1604588505621","","","","","","","","","","","","","","","","",""
"","null","html-keyboard-response","14","167843","0.0-14.0-0.0","SS1604588505621","","null","","","","","","","","","","","","<img src=images/blank.png width =""500"" height = ""500"" style=""border:5px solid black"">","","",""
"","2940.520000003744","stimulus-presentation","15","171077","0.0-14.0-1.0","SS1604588505621","<img src='images/simple/8.png' width ='500' height = '500' style='border:5px solid black'>","40","mixed_complex_deviant","images/simple/13.png","images/simple/8.png","images/complex/14.png,images/complex/2.png,images/complex/4.png,images/complex/9.png,images/complex/15.png,images/complex/7.png,images/complex/16.png","0","null","","200","3140.520000003744","yes","1089.349999994738","","background","",""
"","null","html-keyboard-response","16","172239","0.0-14.0-0.1","SS1604588505621","","null","","","","","","","","","","","","<img src=images/blank.png width =""500"" height = ""500"" style=""border:5px solid black"">","","",""
"","1564.2649999936111","stimulus-presentation","17","174016","0.0-14.0-1.1","SS1604588505621","<img src='images/simple/8.png' width ='500' height = '500' style='border:5px solid black'>","40","mixed_complex_deviant","images/simple/13.png","images/simple/8.png","images/complex/14.png,images/complex/2.png,images/complex/4.png,images/complex/9.png,images/complex/15.png,images/complex/7.png,images/complex/16.png","0","null","","200","1764.2649999936111","","","","background","",""
"","null","html-keyboard-response","18","174840","0.0-14.0-0.2","SS1604588505621","","null","","","","","","","","","","","","<img src=images/blank.png width =""500"" height = ""500"" style=""border:5px solid black"">","","",""
"","950.23499999661","stimulus-presentation","19","176001","0.0-14.0-1.2","SS1604588505621","<img src='images/simple/8.png' width ='500' height = '500' style='border:5px solid black'>","40","mixed_complex_deviant","images/simple/13.png","images/simple/8.png","images/complex/14.png,images/complex/2.png,images/complex/4.png,images/complex/9.png,images/complex/15.png,images/complex/7.png,images/complex/16.png","0","null","","200","1150.23499999661","","","","background","",""
"","null","html-keyboard-response","20","176926","0.0-14.0-0.3","SS1604588505621","","null","","","","","","","","","","","","<img src=images/blank.png width =""500"" height = ""500"" style=""border:5px solid black"">","","",""
"","885.3999999992084","stimulus-presentation","21","178023","0.0-14.0-1.3","SS1604588505621","<img src='images/complex/7.png' width ='500' height = '500' style='border:5px solid black'>","40","mixed_complex_deviant","images/simple/13.png","images/simple/8.png","images/complex/14.png,images/complex/2.png,images/complex/4.png,images/complex/9.png,images/complex/15.png,images/complex/7.png,images/complex/16.png","0","null","","200","1085.3999999992084","","","","deviant","",""
"","null","html-keyboard-response","22","179035","0.0-14.0-0.4","SS1604588505621","","null","","","","","","","","","","","","<img src=images/blank.png width =""500"" height = ""500"" style=""border:5px solid black"">","","",""
"","449.1850000049453","stimulus-presentation","23","179876","0.0-14.0-1.4","SS1604588505621","<img src='images/simple/8.png' width ='500' height = '500' style='border:5px solid black'>","40","mixed_complex_deviant","images/simple/13.png","images/simple/8.png","images/complex/14.png,images/complex/2.png,images/complex/4.png,images/complex/9.png,images/complex/15.png,images/complex/7.png,images/complex/16.png","0","null","","200","649.1850000049453","","","","background","",""
"","null","html-keyboard-response","24","180729","0.0-14.0-0.5","SS1604588505621","","null","","","","","","","","","","","","<img src=images/blank.png width =""500"" height = ""500"" style=""border:5px solid black"">","","",""
"","495.7649999996647","stimulus-presentation","25","181434","0.0-14.0-1.5","SS1604588505621","<img src='images/simple/8.png' width ='500' height = '500' style='border:5px solid black'>","40","mixed_complex_deviant","images/simple/13.png","images/simple/8.png","images/complex/14.png,images/complex/2.png,images/complex/4.png,images/complex/9.png,images/complex/15.png,images/complex/7.png,images/complex/16.png","0","null","","200","695.7649999996647","","","","background","",""
"","null","html-keyboard-response","26","182622","0.0-14.0-0.6","SS1604588505621","","null","","","","","","","","","","","","<img src=images/blank.png width =""500"" height = ""500"" style=""border:5px solid black"">","","",""
"","2541.750000003958","stimulus-presentation","27","185374","0.0-14.0-1.6","SS1604588505621","<img src='images/simple/8.png' width ='500' height = '500' style='border:5px solid black'>","40","mixed_complex_deviant","images/simple/13.png","images/simple/8.png","images/complex/14.png,images/complex/2.png,images/complex/4.png,images/complex/9.png,images/complex/15.png,images/complex/7.png,images/complex/16.png","0","null","","200","2741.750000003958","yes","1002.8049999964423","","background","",""
"","null","html-keyboard-response","28","186566","0.0-14.0-0.7","SS1604588505621","","null","","","","","","","","","","","","<img src=images/blank.png width =""500"" height = ""500"" style=""border:5px solid black"">","","",""
"","459.94500000961125","stimulus-presentation","29","187235","0.0-14.0-1.7","SS1604588505621","<img src='images/simple/8.png' width ='500' height = '500' style='border:5px solid black'>","40","mixed_complex_deviant","images/simple/13.png","images/simple/8.png","images/complex/14.png,images/complex/2.png,images/complex/4.png,images/complex/9.png,images/complex/15.png,images/complex/7.png,images/complex/16.png","0","null","","200","659.9450000096112","","","","background","",""
"","null","html-keyboard-response","30","188186","0.0-14.0-0.8","SS1604588505621","","null","","","","","","","","","","","","<img src=images/blank.png width =""500"" height = ""500"" style=""border:5px solid black"">","","",""
"","576.8349999852944","stimulus-presentation","31","188973","0.0-14.0-1.8","SS1604588505621","<img src='images/simple/8.png' width ='500' height = '500' style='border:5px solid black'>","40","mixed_complex_deviant","images/simple/13.png","images/simple/8.png","images/complex/14.png,images/complex/2.png,images/complex/4.png,images/complex/9.png,images/complex/15.png,images/complex/7.png,images/complex/16.png","0","null","","200","776.8349999852944","","","","background","",""
"","null","html-keyboard-response","32","190028","0.0-14.0-0.9","SS1604588505621","","null","","","","","","","","","","","","<img src=images/blank.png width =""500"" height = ""500"" style=""border:5px solid black"">","","",""
"","274.9400000029709","stimulus-presentation","33","190513","0.0-14.0-1.9","SS1604588505621","<img src='images/simple/8.png' width ='500' height = '500' style='border:5px solid black'>","40","mixed_complex_deviant","images/simple/13.png","images/simple/8.png","images/complex/14.png,images/complex/2.png,images/complex/4.png,images/complex/9.png,images/complex/15.png,images/complex/7.png,images/complex/16.png","0","null","","200","474.9400000029709","","","","background","",""
"","null","html-keyboard-response","34","191364","0.0-14.0-0.10","SS1604588505621","","null","","","","","","","","","","","","<img src=images/blank.png width =""500"" height = ""500"" style=""border:5px solid black"">","","",""
"","2930.495000007795","stimulus-presentation","35","194504","0.0-14.0-1.10","SS1604588505621","<img src='images/complex/2.png' width ='500' height = '500' style='border:5px solid black'>","40","mixed_complex_deviant","images/simple/13.png","images/simple/8.png","images/complex/14.png,images/complex/2.png,images/complex/4.png,images/complex/9.png,images/complex/15.png,images/complex/7.png,images/complex/16.png","0","null","","200","3130.495000007795","yes","1502.665000007255","","deviant","",""
"","null","html-keyboard-response","36","195470","0.0-14.0-0.11","SS1604588505621","","null","","","","","","","","","","","","<img src=images/blank.png width =""500"" height = ""500"" style=""border:5px solid black"">","","",""
"","1545.6650000123773","stimulus-presentation","37","197224","0.0-14.0-1.11","SS1604588505621","<img src='images/simple/8.png' width ='500' height = '500' style='border:5px solid black'>","40","mixed_complex_deviant","images/simple/13.png","images/simple/8.png","images/complex/14.png,images/complex/2.png,images/complex/4.png,images/complex/9.png,images/complex/15.png,images/complex/7.png,images/complex/16.png","0","null","","200","1745.6650000123773","","","","background","",""
"","null","html-keyboard-response","38","198556","0.0-14.0-0.12","SS1604588505621","","null","","","","","","","","","","","","<img src=images/blank.png width =""500"" height = ""500"" style=""border:5px solid black"">","","",""
"","429.1899999952875","stimulus-presentation","39","199234","0.0-14.0-1.12","SS1604588505621","<img src='images/simple/8.png' width ='500' height = '500' style='border:5px solid black'>","40","mixed_complex_deviant","images/simple/13.png","images/simple/8.png","images/complex/14.png,images/complex/2.png,images/complex/4.png,images/complex/9.png,images/complex/15.png,images/complex/7.png,images/complex/16.png","0","null","","200","629.1899999952875","","","","background","",""
"","null","html-keyboard-response","40","200533","0.0-14.0-0.13","SS1604588505621","","null","","","","","","","","","","","","<img src=images/blank.png width =""500"" height = ""500"" style=""border:5px solid black"">","","",""
"","329.69000001321547","stimulus-presentation","41","201073","0.0-14.0-1.13","SS1604588505621","<img src='images/simple/8.png' width ='500' height = '500' style='border:5px solid black'>","40","mixed_complex_deviant","images/simple/13.png","images/simple/8.png","images/complex/14.png,images/complex/2.png,images/complex/4.png,images/complex/9.png,images/complex/15.png,images/complex/7.png,images/complex/16.png","0","null","","200","529.6900000132155","","","","background","",""
"","null","html-keyboard-response","42","202129","0.0-14.0-0.14","SS1604588505621","","null","","","","","","","","","","","","<img src=images/blank.png width =""500"" height = ""500"" style=""border:5px solid black"">","","",""
"","656.0750000062399","stimulus-presentation","43","203033","0.0-14.0-1.14","SS1604588505621","<img src='images/simple/8.png' width ='500' height = '500' style='border:5px solid black'>","40","mixed_complex_deviant","images/simple/13.png","images/simple/8.png","images/complex/14.png,images/complex/2.png,images/complex/4.png,images/complex/9.png,images/complex/15.png,images/complex/7.png,images/complex/16.png","0","null","","200","856.0750000062399","","","","background","",""
"","null","html-keyboard-response","44","203945","0.0-14.0-0.15","SS1604588505621","","null","","","","","","","","","","","","<img src=images/blank.png width =""500"" height = ""500"" style=""border:5px solid black"">","","",""
"","1709.1000000073109","stimulus-presentation","45","205868","0.0-14.0-1.15","SS1604588505621","<img src='images/simple/8.png' width ='500' height = '500' style='border:5px solid black'>","40","mixed_complex_deviant","images/simple/13.png","images/simple/8.png","images/complex/14.png,images/complex/2.png,images/complex/4.png,images/complex/9.png,images/complex/15.png,images/complex/7.png,images/complex/16.png","0","null","","200","1909.1000000073109","","","","background","",""
"","null","html-keyboard-response","46","206896","0.0-14.0-0.16","SS1604588505621","","null","","","","","","","","","","","","<img src=images/blank.png width =""500"" height = ""500"" style=""border:5px solid black"">","","",""
"","1854.0300000167917","stimulus-presentation","47","208994","0.0-14.0-1.16","SS1604588505621","<img src='images/simple/13.png' width ='500' height = '500' style='border:5px solid black'>","40","mixed_complex_deviant","images/simple/13.png","images/simple/8.png","images/complex/14.png,images/complex/2.png,images/complex/4.png,images/complex/9.png,images/complex/15.png,images/complex/7.png,images/complex/16.png","0","null","","200","2054.0300000167917","","","","target","",""
"","null","html-keyboard-response","48","209900","0.0-14.0-0.17","SS1604588505621","","null","","","","","","","","","","","","<img src=images/blank.png width =""500"" height = ""500"" style=""border:5px solid black"">","","",""
"","542.8099999844562","stimulus-presentation","49","210654","0.0-14.0-1.17","SS1604588505621","<img src='images/simple/8.png' width ='500' height = '500' style='border:5px solid black'>","40","mixed_complex_deviant","images/simple/13.png","images/simple/8.png","images/complex/14.png,images/complex/2.png,images/complex/4.png,images/complex/9.png,images/complex/15.png,images/complex/7.png,images/complex/16.png","0","null","","200","742.8099999844562","","","","background","",""
"","null","html-keyboard-response","50","211566","0.0-14.0-0.18","SS1604588505621","","null","","","","","","","","","","","","<img src=images/blank.png width =""500"" height = ""500"" style=""border:5px solid black"">","","",""
"","5259.075000009034","stimulus-presentation","51","217035","0.0-14.0-1.18","SS1604588505621","<img src='images/simple/13.png' width ='500' height = '500' style='border:5px solid black'>","40","mixed_complex_deviant","images/simple/13.png","images/simple/8.png","images/complex/14.png,images/complex/2.png,images/complex/4.png,images/complex/9.png,images/complex/15.png,images/complex/7.png,images/complex/16.png","0","null","","200","5459.075000009034","yes","751.8649999983609","","target","",""
"","null","html-keyboard-response","52","217961","0.0-14.0-0.19","SS1604588505621","","null","","","","","","","","","","","","<img src=images/blank.png width =""500"" height = ""500"" style=""border:5px solid black"">","","",""
"","1426.9199999980628","stimulus-presentation","53","219594","0.0-14.0-1.19","SS1604588505621","<img src='images/simple/8.png' width ='500' height = '500' style='border:5px solid black'>","40","mixed_complex_deviant","images/simple/13.png","images/simple/8.png","images/complex/14.png,images/complex/2.png,images/complex/4.png,images/complex/9.png,images/complex/15.png,images/complex/7.png,images/complex/16.png","0","null","","200","1626.9199999980628","yes","816.8899999873247","","background","",""
"","null","html-keyboard-response","54","220594","0.0-14.0-0.20","SS1604588505621","","null","","","","","","","","","","","","<img src=images/blank.png width =""500"" height = ""500"" style=""border:5px solid black"">","","",""
"","644.0700000093784","stimulus-presentation","55","221450","0.0-14.0-1.20","SS1604588505621","<img src='images/complex/9.png' width ='500' height = '500' style='border:5px solid black'>","40","mixed_complex_deviant","images/simple/13.png","images/simple/8.png","images/complex/14.png,images/complex/2.png,images/complex/4.png,images/complex/9.png,images/complex/15.png,images/complex/7.png,images/complex/16.png","0","null","","200","844.0700000093784","","","","deviant","",""
"","null","html-keyboard-response","56","222693","0.0-14.0-0.21","SS1604588505621","","null","","","","","","","","","","","","<img src=images/blank.png width =""500"" height = ""500"" style=""border:5px solid black"">","","",""
"","569.2700000072364","stimulus-presentation","57","223474","0.0-14.0-1.21","SS1604588505621","<img src='images/simple/8.png' width ='500' height = '500' style='border:5px solid black'>","40","mixed_complex_deviant","images/simple/13.png","images/simple/8.png","images/complex/14.png,images/complex/2.png,images/complex/4.png,images/complex/9.png,images/complex/15.png,images/complex/7.png,images/complex/16.png","0","null","","200","769.2700000072364","","","","background","",""
"","null","html-keyboard-response","58","224426","0.0-14.0-0.22","SS1604588505621","","null","","","","","","","","","","","","<img src=images/blank.png width =""500"" height = ""500"" style=""border:5px solid black"">","","",""
"","279.9550000054296","stimulus-presentation","59","224915","0.0-14.0-1.22","SS1604588505621","<img src='images/simple/13.png' width ='500' height = '500' style='border:5px solid black'>","40","mixed_complex_deviant","images/simple/13.png","images/simple/8.png","images/complex/14.png,images/complex/2.png,images/complex/4.png,images/complex/9.png,images/complex/15.png,images/complex/7.png,images/complex/16.png","0","null","","200","479.9550000054296","","","","target","",""
"","null","html-keyboard-response","60","226008","0.0-14.0-0.23","SS1604588505621","","null","","","","","","","","","","","","<img src=images/blank.png width =""500"" height = ""500"" style=""border:5px solid black"">","","",""
"","3293.665000004694","stimulus-presentation","61","229511","0.0-14.0-1.23","SS1604588505621","<img src='images/complex/14.png' width ='500' height = '500' style='border:5px solid black'>","40","mixed_complex_deviant","images/simple/13.png","images/simple/8.png","images/complex/14.png,images/complex/2.png,images/complex/4.png,images/complex/9.png,images/complex/15.png,images/complex/7.png,images/complex/16.png","0","null","","200","3493.665000004694","yes","1005.6899999908637","","deviant","",""
"","null","html-keyboard-response","62","230317","0.0-14.0-0.24","SS1604588505621","","null","","","","","","","","","","","","<img src=images/blank.png width =""500"" height = ""500"" style=""border:5px solid black"">","","",""
"","1224.6049999957904","stimulus-presentation","63","231752","0.0-14.0-1.24","SS1604588505621","<img src='images/simple/8.png' width ='500' height = '500' style='border:5px solid black'>","40","mixed_complex_deviant","images/simple/13.png","images/simple/8.png","images/complex/14.png,images/complex/2.png,images/complex/4.png,images/complex/9.png,images/complex/15.png,images/complex/7.png,images/complex/16.png","0","null","","200","1424.6049999957904","","","","background","",""
"","null","html-keyboard-response","64","232681","0.0-14.0-0.25","SS1604588505621","","null","","","","","","","","","","","","<img src=images/blank.png width =""500"" height = ""500"" style=""border:5px solid black"">","","",""
"","323.58499997644685","stimulus-presentation","65","233214","0.0-14.0-1.25","SS1604588505621","<img src='images/simple/8.png' width ='500' height = '500' style='border:5px solid black'>","40","mixed_complex_deviant","images/simple/13.png","images/simple/8.png","images/complex/14.png,images/complex/2.png,images/complex/4.png,images/complex/9.png,images/complex/15.png,images/complex/7.png,images/complex/16.png","0","null","","200","523.5849999764469","","","","background","",""
"","null","html-keyboard-response","66","234491","0.0-14.0-0.26","SS1604588505621","","null","","","","","","","","","","","","<img src=images/blank.png width =""500"" height = ""500"" style=""border:5px solid black"">","","",""
"","4921.575000014855","stimulus-presentation","67","239622","0.0-14.0-1.26","SS1604588505621","<img src='images/simple/13.png' width ='500' height = '500' style='border:5px solid black'>","40","mixed_complex_deviant","images/simple/13.png","images/simple/8.png","images/complex/14.png,images/complex/2.png,images/complex/4.png,images/complex/9.png,images/complex/15.png,images/complex/7.png,images/complex/16.png","0","null","","200","5121.575000014855","yes","941.7700000049081","","target","",""
"","null","html-keyboard-response","68","240569","0.0-14.0-0.27","SS1604588505621","","null","","","","","","","","","","","","<img src=images/blank.png width =""500"" height = ""500"" style=""border:5px solid black"">","","",""
"","576.0449999943376","stimulus-presentation","69","241373","0.0-14.0-1.27","SS1604588505621","<img src='images/complex/4.png' width ='500' height = '500' style='border:5px solid black'>","40","mixed_complex_deviant","images/simple/13.png","images/simple/8.png","images/complex/14.png,images/complex/2.png,images/complex/4.png,images/complex/9.png,images/complex/15.png,images/complex/7.png,images/complex/16.png","0","null","","200","776.0449999943376","","","","deviant","",""
"","null","html-keyboard-response","70","242894","0.0-14.0-0.28","SS1604588505621","","null","","","","","","","","","","","","<img src=images/blank.png width =""500"" height = ""500"" style=""border:5px solid black"">","","",""
"","3011.3899999996647","stimulus-presentation","71","246272","0.0-14.0-1.28","SS1604588505621","<img src='images/simple/13.png' width ='500' height = '500' style='border:5px solid black'>","40","mixed_complex_deviant","images/simple/13.png","images/simple/8.png","images/complex/14.png,images/complex/2.png,images/complex/4.png,images/complex/9.png,images/complex/15.png,images/complex/7.png,images/complex/16.png","0","null","","200","3211.3899999996647","yes","571.7050000093877","","target","",""
"","null","html-keyboard-response","72","247144","0.0-14.0-0.29","SS1604588505621","","null","","","","","","","","","","","","<img src=images/blank.png width =""500"" height = ""500"" style=""border:5px solid black"">","","",""
"","297.38000000361353","stimulus-presentation","73","247839","0.0-14.0-1.29","SS1604588505621","<img src='images/simple/8.png' width ='500' height = '500' style='border:5px solid black'>","40","mixed_complex_deviant","images/simple/13.png","images/simple/8.png","images/complex/14.png,images/complex/2.png,images/complex/4.png,images/complex/9.png,images/complex/15.png,images/complex/7.png,images/complex/16.png","0","null","","200","497.38000000361353","","","","background","",""
"","null","html-keyboard-response","74","248722","0.0-14.0-0.30","SS1604588505621","","null","","","","","","","","","","","","<img src=images/blank.png width =""500"" height = ""500"" style=""border:5px solid black"">","","",""
"","1313.2350000087172","stimulus-presentation","75","250252","0.0-14.0-1.30","SS1604588505621","<img src='images/complex/16.png' width ='500' height = '500' style='border:5px solid black'>","40","mixed_complex_deviant","images/simple/13.png","images/simple/8.png","images/complex/14.png,images/complex/2.png,images/complex/4.png,images/complex/9.png,images/complex/15.png,images/complex/7.png,images/complex/16.png","0","null","","200","1513.2350000087172","","","","deviant","",""
"","null","html-keyboard-response","76","251206","0.0-14.0-0.31","SS1604588505621","","null","","","","","","","","","","","","<img src=images/blank.png width =""500"" height = ""500"" style=""border:5px solid black"">","","",""
"","468.1999999738764","stimulus-presentation","77","251883","0.0-14.0-1.31","SS1604588505621","<img src='images/simple/8.png' width ='500' height = '500' style='border:5px solid black'>","40","mixed_complex_deviant","images/simple/13.png","images/simple/8.png","images/complex/14.png,images/complex/2.png,images/complex/4.png,images/complex/9.png,images/complex/15.png,images/complex/7.png,images/complex/16.png","0","null","","200","668.1999999738764","","","","background","",""
"","null","html-keyboard-response","78","252882","0.0-14.0-0.32","SS1604588505621","","null","","","","","","","","","","","","<img src=images/blank.png width =""500"" height = ""500"" style=""border:5px solid black"">","","",""
"","423.95500000566244","stimulus-presentation","79","253513","0.0-14.0-1.32","SS1604588505621","<img src='images/simple/8.png' width ='500' height = '500' style='border:5px solid black'>","40","mixed_complex_deviant","images/simple/13.png","images/simple/8.png","images/complex/14.png,images/complex/2.png,images/complex/4.png,images/complex/9.png,images/complex/15.png,images/complex/7.png,images/complex/16.png","0","null","","200","623.9550000056624","","","","background","",""
"","null","html-keyboard-response","80","254432","0.0-14.0-0.33","SS1604588505621","","null","","","","","","","","","","","","<img src=images/blank.png width =""500"" height = ""500"" style=""border:5px solid black"">","","",""
"","3160.5250000138767","stimulus-presentation","81","257803","0.0-14.0-1.33","SS1604588505621","<img src='images/simple/13.png' width ='500' height = '500' style='border:5px solid black'>","40","mixed_complex_deviant","images/simple/13.png","images/simple/8.png","images/complex/14.png,images/complex/2.png,images/complex/4.png,images/complex/9.png,images/complex/15.png,images/complex/7.png,images/complex/16.png","0","null","","200","3360.5250000138767","yes","749.630000005709","","target","",""
"","null","html-keyboard-response","82","258941","0.0-14.0-0.34","SS1604588505621","","null","","","","","","","","","","","","<img src=images/blank.png width =""500"" height = ""500"" style=""border:5px solid black"">","","",""
"","2301.485000003595","stimulus-presentation","83","261453","0.0-14.0-1.34","SS1604588505621","<img src='images/simple/13.png' width ='500' height = '500' style='border:5px solid black'>","40","mixed_complex_deviant","images/simple/13.png","images/simple/8.png","images/complex/14.png,images/complex/2.png,images/complex/4.png,images/complex/9.png,images/complex/15.png,images/complex/7.png,images/complex/16.png","0","null","","200","2501.485000003595","yes","840.7000000006519","","target","",""
"","null","html-keyboard-response","84","262541","0.0-14.0-0.35","SS1604588505621","","null","","","","","","","","","","","","<img src=images/blank.png width =""500"" height = ""500"" style=""border:5px solid black"">","","",""
"","1077.4900000251364","stimulus-presentation","85","263829","0.0-14.0-1.35","SS1604588505621","<img src='images/simple/8.png' width ='500' height = '500' style='border:5px solid black'>","40","mixed_complex_deviant","images/simple/13.png","images/simple/8.png","images/complex/14.png,images/complex/2.png,images/complex/4.png,images/complex/9.png,images/complex/15.png,images/complex/7.png,images/complex/16.png","0","null","","200","1277.4900000251364","","","","background","",""
"","null","html-keyboard-response","86","265129","0.0-14.0-0.36","SS1604588505621","","null","","","","","","","","","","","","<img src=images/blank.png width =""500"" height = ""500"" style=""border:5px solid black"">","","",""
"","472.71500001079403","stimulus-presentation","87","265814","0.0-14.0-1.36","SS1604588505621","<img src='images/simple/8.png' width ='500' height = '500' style='border:5px solid black'>","40","mixed_complex_deviant","images/simple/13.png","images/simple/8.png","images/complex/14.png,images/complex/2.png,images/complex/4.png,images/complex/9.png,images/complex/15.png,images/complex/7.png,images/complex/16.png","0","null","","200","672.715000010794","","","","background","",""
"","null","html-keyboard-response","88","266643","0.0-14.0-0.37","SS1604588505621","","null","","","","","","","","","","","","<img src=images/blank.png width =""500"" height = ""500"" style=""border:5px solid black"">","","",""
"","2668.680000002496","stimulus-presentation","89","269523","0.0-14.0-1.37","SS1604588505621","<img src='images/simple/8.png' width ='500' height = '500' style='border:5px solid black'>","40","mixed_complex_deviant","images/simple/13.png","images/simple/8.png","images/complex/14.png,images/complex/2.png,images/complex/4.png,images/complex/9.png,images/complex/15.png,images/complex/7.png,images/complex/16.png","0","null","","200","2868.680000002496","","","","background","",""
"","null","html-keyboard-response","90","270769","0.0-14.0-0.38","SS1604588505621","","null","","","","","","","","","","","","<img src=images/blank.png width =""500"" height = ""500"" style=""border:5px solid black"">","","",""
"","513.665000005858","stimulus-presentation","91","271493","0.0-14.0-1.38","SS1604588505621","<img src='images/simple/8.png' width ='500' height = '500' style='border:5px solid black'>","40","mixed_complex_deviant","images/simple/13.png","images/simple/8.png","images/complex/14.png,images/complex/2.png,images/complex/4.png,images/complex/9.png,images/complex/15.png,images/complex/7.png,images/complex/16.png","0","null","","200","713.665000005858","","","","background","",""
"","null","html-keyboard-response","92","272596","0.0-14.0-0.39","SS1604588505621","","null","","","","","","","","","","","","<img src=images/blank.png width =""500"" height = ""500"" style=""border:5px solid black"">","","",""
"","604.6349999960512","stimulus-presentation","93","273412","0.0-14.0-1.39","SS1604588505621","<img src='images/simple/8.png' width ='500' height = '500' style='border:5px solid black'>","40","mixed_complex_deviant","images/simple/13.png","images/simple/8.png","images/complex/14.png,images/complex/2.png,images/complex/4.png,images/complex/9.png,images/complex/15.png,images/complex/7.png,images/complex/16.png","0","null","","200","804.6349999960512","","","","background","",""
"","null","html-keyboard-response","94","274356","0.0-14.0-0.40","SS1604588505621","","null","","","","","","","","","","","","<img src=images/blank.png width =""500"" height = ""500"" style=""border:5px solid black"">","","",""
"","505.0850000116043","stimulus-presentation","95","275073","0.0-14.0-1.40","SS1604588505621","<img src='images/simple/8.png' width ='500' height = '500' style='border:5px solid black'>","40","mixed_complex_deviant","images/simple/13.png","images/simple/8.png","images/complex/14.png,images/complex/2.png,images/complex/4.png,images/complex/9.png,images/complex/15.png,images/complex/7.png,images/complex/16.png","0","null","","200","705.0850000116043","","","","background","",""
"","null","html-keyboard-response","96","276103","0.0-14.0-0.41","SS1604588505621","","null","","","","","","","","","","","","<img src=images/blank.png width =""500"" height = ""500"" style=""border:5px solid black"">","","",""
"","3048.094999976456","stimulus-presentation","97","279364","0.0-14.0-1.41","SS1604588505621","<img src='images/simple/8.png' width ='500' height = '500' style='border:5px solid black'>","40","mixed_complex_deviant","images/simple/13.png","images/simple/8.png","images/complex/14.png,images/complex/2.png,images/complex/4.png,images/complex/9.png,images/complex/15.png,images/complex/7.png,images/complex/16.png","0","null","","200","3248.094999976456","","","","background","",""
"","null","html-keyboard-response","98","280200","0.0-14.0-0.42","SS1604588505621","","null","","","","","","","","","","","","<img src=images/blank.png width =""500"" height = ""500"" style=""border:5px solid black"">","","",""
"","518.96499999566","stimulus-presentation","99","280931","0.0-14.0-1.42","SS1604588505621","<img src='images/simple/8.png' width ='500' height = '500' style='border:5px solid black'>","40","mixed_complex_deviant","images/simple/13.png","images/simple/8.png","images/complex/14.png,images/complex/2.png,images/complex/4.png,images/complex/9.png,images/complex/15.png,images/complex/7.png,images/complex/16.png","0","null","","200","718.96499999566","","","","background","",""
"","null","html-keyboard-response","100","281839","0.0-14.0-0.43","SS1604588505621","","null","","","","","","","","","","","","<img src=images/blank.png width =""500"" height = ""500"" style=""border:5px solid black"">","","",""
"","645.2400000125635","stimulus-presentation","101","282713","0.0-14.0-1.43","SS1604588505621","<img src='images/complex/15.png' width ='500' height = '500' style='border:5px solid black'>","40","mixed_complex_deviant","images/simple/13.png","images/simple/8.png","images/complex/14.png,images/complex/2.png,images/complex/4.png,images/complex/9.png,images/complex/15.png,images/complex/7.png,images/complex/16.png","0","null","","200","845.2400000125635","","","","deviant","",""
"","null","html-keyboard-response","102","283563","0.0-14.0-0.44","SS1604588505621","","null","","","","","","","","","","","","<img src=images/blank.png width =""500"" height = ""500"" style=""border:5px solid black"">","","",""
"","380.97499997820705","stimulus-presentation","103","284156","0.0-14.0-1.44","SS1604588505621","<img src='images/simple/8.png' width ='500' height = '500' style='border:5px solid black'>","40","mixed_complex_deviant","images/simple/13.png","images/simple/8.png","images/complex/14.png,images/complex/2.png,images/complex/4.png,images/complex/9.png,images/complex/15.png,images/complex/7.png,images/complex/16.png","0","null","","200","580.974999978207","","","","background","",""
"","null","html-keyboard-response","104","285158","0.0-14.0-0.45","SS1604588505621","","null","","","","","","","","","","","","<img src=images/blank.png width =""500"" height = ""500"" style=""border:5px solid black"">","","",""
"","422.92499999166466","stimulus-presentation","105","285793","0.0-14.0-1.45","SS1604588505621","<img src='images/simple/8.png' width ='500' height = '500' style='border:5px solid black'>","40","mixed_complex_deviant","images/simple/13.png","images/simple/8.png","images/complex/14.png,images/complex/2.png,images/complex/4.png,images/complex/9.png,images/complex/15.png,images/complex/7.png,images/complex/16.png","0","null","","200","622.9249999916647","","","","background","",""
"","null","html-keyboard-response","106","286779","0.0-14.0-0.46","SS1604588505621","","null","","","","","","","","","","","","<img src=images/blank.png width =""500"" height = ""500"" style=""border:5px solid black"">","","",""
"","490.86999997962266","stimulus-presentation","107","287482","0.0-14.0-1.46","SS1604588505621","<img src='images/simple/8.png' width ='500' height = '500' style='border:5px solid black'>","40","mixed_complex_deviant","images/simple/13.png","images/simple/8.png","images/complex/14.png,images/complex/2.png,images/complex/4.png,images/complex/9.png,images/complex/15.png,images/complex/7.png,images/complex/16.png","0","null","","200","690.8699999796227","","","","background","",""
"","null","html-keyboard-response","108","288767","0.0-14.0-0.47","SS1604588505621","","null","","","","","","","","","","","","<img src=images/blank.png width =""500"" height = ""500"" style=""border:5px solid black"">","","",""
"","494.17500002891757","stimulus-presentation","109","289472","0.0-14.0-1.47","SS1604588505621","<img src='images/simple/8.png' width ='500' height = '500' style='border:5px solid black'>","40","mixed_complex_deviant","images/simple/13.png","images/simple/8.png","images/complex/14.png,images/complex/2.png,images/complex/4.png,images/complex/9.png,images/complex/15.png,images/complex/7.png,images/complex/16.png","0","null","","200","694.1750000289176","","","","background","",""
"","null","html-keyboard-response","110","290391","0.0-14.0-0.48","SS1604588505621","","null","","","","","","","","","","","","<img src=images/blank.png width =""500"" height = ""500"" style=""border:5px solid black"">","","",""
"","557.7650000050198","stimulus-presentation","111","291161","0.0-14.0-1.48","SS1604588505621","<img src='images/simple/8.png' width ='500' height = '500' style='border:5px solid black'>","40","mixed_complex_deviant","images/simple/13.png","images/simple/8.png","images/complex/14.png,images/complex/2.png,images/complex/4.png,images/complex/9.png,images/complex/15.png,images/complex/7.png,images/complex/16.png","0","null","","200","757.7650000050198","","","","background","",""
"[{""page_index"":0,""viewing_time"":2997}]","2998","task-instructions","112","294164","0.0-15.0","SS1604588505621","","","","","","","","","","","","","","","","",""
"[{""page_index"":0,""viewing_time"":1581.4850000024308},{""page_index"":1,""viewing_time"":11783.064999995986},{""page_index"":2,""viewing_time"":3379.320000007283}]","16744.509999989532","instructions","113","310913","0.0-16.0","SS1604588505621","","","","","","","","","","","","","","","","",""
"","null","html-keyboard-response","114","312217","0.0-17.0-0.0","SS1604588505621","","null","","","","","","","","","","","","<img src=images/blank.png width =""500"" height = ""500"" style=""border:5px solid black"">","","",""
"","1439.684999990277","stimulus-presentation","115","313865","0.0-17.0-1.0","SS1604588505621","<img src='images/complex/17.png' width ='500' height = '500' style='border:5px solid black'>","40","all_complex","images/complex/6.png","images/complex/10.png","images/complex/17.png,images/complex/12.png,images/complex/13.png,images/complex/8.png,images/complex/5.png,images/complex/18.png,images/complex/1.png","1","null","","200","1639.684999990277","","","","deviant","",""
"","null","html-keyboard-response","116","315066","0.0-17.0-0.1","SS1604588505621","","null","","","","","","","","","","","","<img src=images/blank.png width =""500"" height = ""500"" style=""border:5px solid black"">","","",""
"","515.6500000157394","stimulus-presentation","117","315802","0.0-17.0-1.1","SS1604588505621","<img src='images/complex/10.png' width ='500' height = '500' style='border:5px solid black'>","40","all_complex","images/complex/6.png","images/complex/10.png","images/complex/17.png,images/complex/12.png,images/complex/13.png,images/complex/8.png,images/complex/5.png,images/complex/18.png,images/complex/1.png","1","null","","200","715.6500000157394","","","","background","",""
"","null","html-keyboard-response","118","316665","0.0-17.0-0.2","SS1604588505621","","null","","","","","","","","","","","","<img src=images/blank.png width =""500"" height = ""500"" style=""border:5px solid black"">","","",""
"","474.4349999818951","stimulus-presentation","119","317353","0.0-17.0-1.2","SS1604588505621","<img src='images/complex/1.png' width ='500' height = '500' style='border:5px solid black'>","40","all_complex","images/complex/6.png","images/complex/10.png","images/complex/17.png,images/complex/12.png,images/complex/13.png,images/complex/8.png,images/complex/5.png,images/complex/18.png,images/complex/1.png","1","null","","200","674.4349999818951","","","","deviant","",""
"","null","html-keyboard-response","120","318505","0.0-17.0-0.3","SS1604588505621","","null","","","","","","","","","","","","<img src=images/blank.png width =""500"" height = ""500"" style=""border:5px solid black"">","","",""
"","414.7649999940768","stimulus-presentation","121","319131","0.0-17.0-1.3","SS1604588505621","<img src='images/complex/10.png' width ='500' height = '500' style='border:5px solid black'>","40","all_complex","images/complex/6.png","images/complex/10.png","images/complex/17.png,images/complex/12.png,images/complex/13.png,images/complex/8.png,images/complex/5.png,images/complex/18.png,images/complex/1.png","1","null","","200","614.7649999940768","","","","background","",""
"","null","html-keyboard-response","122","320277","0.0-17.0-0.4","SS1604588505621","","null","","","","","","","","","","","","<img src=images/blank.png width =""500"" height = ""500"" style=""border:5px solid black"">","","",""
"","239.70000000554137","stimulus-presentation","123","320899","0.0-17.0-1.4","SS1604588505621","<img src='images/complex/10.png' width ='500' height = '500' style='border:5px solid black'>","40","all_complex","images/complex/6.png","images/complex/10.png","images/complex/17.png,images/complex/12.png,images/complex/13.png,images/complex/8.png,images/complex/5.png,images/complex/18.png,images/complex/1.png","1","null","","200","439.70000000554137","","","","background","",""
"","null","html-keyboard-response","124","321872","0.0-17.0-0.5","SS1604588505621","","null","","","","","","","","","","","","<img src=images/blank.png width =""500"" height = ""500"" style=""border:5px solid black"">","","",""
"","347.99500001827255","stimulus-presentation","125","322432","0.0-17.0-1.5","SS1604588505621","<img src='images/complex/10.png' width ='500' height = '500' style='border:5px solid black'>","40","all_complex","images/complex/6.png","images/complex/10.png","images/complex/17.png,images/complex/12.png,images/complex/13.png,images/complex/8.png,images/complex/5.png,images/complex/18.png,images/complex/1.png","1","null","","200","547.9950000182725","","","","background","",""
"","null","html-keyboard-response","126","323545","0.0-17.0-0.6","SS1604588505621","","null","","","","","","","","","","","","<img src=images/blank.png width =""500"" height = ""500"" style=""border:5px solid black"">","","",""
"","451.9249999721069","stimulus-presentation","127","324332","0.0-17.0-1.6","SS1604588505621","<img src='images/complex/8.png' width ='500' height = '500' style='border:5px solid black'>","40","all_complex","images/complex/6.png","images/complex/10.png","images/complex/17.png,images/complex/12.png,images/complex/13.png,images/complex/8.png,images/complex/5.png,images/complex/18.png,images/complex/1.png","1","null","","200","651.9249999721069","","","","deviant","",""
"","null","html-keyboard-response","128","325606","0.0-17.0-0.7","SS1604588505621","","null","","","","","","","","","","","","<img src=images/blank.png width =""500"" height = ""500"" style=""border:5px solid black"">","","",""
"","352.260000014212","stimulus-presentation","129","326172","0.0-17.0-1.7","SS1604588505621","<img src='images/complex/10.png' width ='500' height = '500' style='border:5px solid black'>","40","all_complex","images/complex/6.png","images/complex/10.png","images/complex/17.png,images/complex/12.png,images/complex/13.png,images/complex/8.png,images/complex/5.png,images/complex/18.png,images/complex/1.png","1","null","","200","552.260000014212","","","","background","",""
"","null","html-keyboard-response","130","327055","0.0-17.0-0.8","SS1604588505621","","null","","","","","","","","","","","","<img src=images/blank.png width =""500"" height = ""500"" style=""border:5px solid black"">","","",""
"","320.4550000082236","stimulus-presentation","131","327673","0.0-17.0-1.8","SS1604588505621","<img src='images/complex/10.png' width ='500' height = '500' style='border:5px solid black'>","40","all_complex","images/complex/6.png","images/complex/10.png","images/complex/17.png,images/complex/12.png,images/complex/13.png,images/complex/8.png,images/complex/5.png,images/complex/18.png,images/complex/1.png","1","null","","200","520.4550000082236","","","","background","",""
"","null","html-keyboard-response","132","328765","0.0-17.0-0.9","SS1604588505621","","null","","","","","","","","","","","","<img src=images/blank.png width =""500"" height = ""500"" style=""border:5px solid black"">","","",""
"","6903.429999976652","stimulus-presentation","133","335876","0.0-17.0-1.9","SS1604588505621","<img src='images/complex/6.png' width ='500' height = '500' style='border:5px solid black'>","40","all_complex","images/complex/6.png","images/complex/10.png","images/complex/17.png,images/complex/12.png,images/complex/13.png,images/complex/8.png,images/complex/5.png,images/complex/18.png,images/complex/1.png","1","null","","200","7103.429999976652","yes","785.6000000028871","","target","",""
"","null","html-keyboard-response","134","336711","0.0-17.0-0.10","SS1604588505621","","null","","","","","","","","","","","","<img src=images/blank.png width =""500"" height = ""500"" style=""border:5px solid black"">","","",""
"","6909.629999980098","stimulus-presentation","135","343833","0.0-17.0-1.10","SS1604588505621","<img src='images/complex/6.png' width ='500' height = '500' style='border:5px solid black'>","40","all_complex","images/complex/6.png","images/complex/10.png","images/complex/17.png,images/complex/12.png,images/complex/13.png,images/complex/8.png,images/complex/5.png,images/complex/18.png,images/complex/1.png","1","null","","200","7109.629999980098","yes","867.7350000070874","","target","",""
"","null","html-keyboard-response","136","345025","0.0-17.0-0.11","SS1604588505621","","null","","","","","","","","","","","","<img src=images/blank.png width =""500"" height = ""500"" style=""border:5px solid black"">","","",""
"","530.6400000117719","stimulus-presentation","137","345771","0.0-17.0-1.11","SS1604588505621","<img src='images/complex/10.png' width ='500' height = '500' style='border:5px solid black'>","40","all_complex","images/complex/6.png","images/complex/10.png","images/complex/17.png,images/complex/12.png,images/complex/13.png,images/complex/8.png,images/complex/5.png,images/complex/18.png,images/complex/1.png","1","null","","200","730.6400000117719","","","","background","",""
"","null","html-keyboard-response","138","346815","0.0-17.0-0.12","SS1604588505621","","null","","","","","","","","","","","","<img src=images/blank.png width =""500"" height = ""500"" style=""border:5px solid black"">","","",""
"","508.93499999074265","stimulus-presentation","139","347535","0.0-17.0-1.12","SS1604588505621","<img src='images/complex/12.png' width ='500' height = '500' style='border:5px solid black'>","40","all_complex","images/complex/6.png","images/complex/10.png","images/complex/17.png,images/complex/12.png,images/complex/13.png,images/complex/8.png,images/complex/5.png,images/complex/18.png,images/complex/1.png","1","null","","200","708.9349999907427","","","","deviant","",""
"","null","html-keyboard-response","140","348706","0.0-17.0-0.13","SS1604588505621","","null","","","","","","","","","","","","<img src=images/blank.png width =""500"" height = ""500"" style=""border:5px solid black"">","","",""
"","5793.63500000909","stimulus-presentation","141","354712","0.0-17.0-1.13","SS1604588505621","<img src='images/complex/6.png' width ='500' height = '500' style='border:5px solid black'>","40","all_complex","images/complex/6.png","images/complex/10.png","images/complex/17.png,images/complex/12.png,images/complex/13.png,images/complex/8.png,images/complex/5.png,images/complex/18.png,images/complex/1.png","1","null","","200","5993.63500000909","yes","788.6350000044331","","target","",""
"","null","html-keyboard-response","142","355542","0.0-17.0-0.14","SS1604588505621","","null","","","","","","","","","","","","<img src=images/blank.png width =""500"" height = ""500"" style=""border:5px solid black"">","","",""
"","568.1499999773223","stimulus-presentation","143","356322","0.0-17.0-1.14","SS1604588505621","<img src='images/complex/10.png' width ='500' height = '500' style='border:5px solid black'>","40","all_complex","images/complex/6.png","images/complex/10.png","images/complex/17.png,images/complex/12.png,images/complex/13.png,images/complex/8.png,images/complex/5.png,images/complex/18.png,images/complex/1.png","1","null","","200","768.1499999773223","","","","background","",""
"","null","html-keyboard-response","144","357597","0.0-17.0-0.15","SS1604588505621","","null","","","","","","","","","","","","<img src=images/blank.png width =""500"" height = ""500"" style=""border:5px solid black"">","","",""
"","500.97500000265427","stimulus-presentation","145","358311","0.0-17.0-1.15","SS1604588505621","<img src='images/complex/10.png' width ='500' height = '500' style='border:5px solid black'>","40","all_complex","images/complex/6.png","images/complex/10.png","images/complex/17.png,images/complex/12.png,images/complex/13.png,images/complex/8.png,images/complex/5.png,images/complex/18.png,images/complex/1.png","1","null","","200","700.9750000026543","","","","background","",""
"","null","html-keyboard-response","146","359229","0.0-17.0-0.16","SS1604588505621","","null","","","","","","","","","","","","<img src=images/blank.png width =""500"" height = ""500"" style=""border:5px solid black"">","","",""
"","5562.6200000115205","stimulus-presentation","147","365002","0.0-17.0-1.16","SS1604588505621","<img src='images/complex/6.png' width ='500' height = '500' style='border:5px solid black'>","40","all_complex","images/complex/6.png","images/complex/10.png","images/complex/17.png,images/complex/12.png,images/complex/13.png,images/complex/8.png,images/complex/5.png,images/complex/18.png,images/complex/1.png","1","null","","200","5762.6200000115205","yes","684.2550000001211","","target","",""
"","null","html-keyboard-response","148","365930","0.0-17.0-0.17","SS1604588505621","","null","","","","","","","","","","","","<img src=images/blank.png width =""500"" height = ""500"" style=""border:5px solid black"">","","",""
"","2827.95000000624","stimulus-presentation","149","368971","0.0-17.0-1.17","SS1604588505621","<img src='images/complex/6.png' width ='500' height = '500' style='border:5px solid black'>","40","all_complex","images/complex/6.png","images/complex/10.png","images/complex/17.png,images/complex/12.png,images/complex/13.png,images/complex/8.png,images/complex/5.png,images/complex/18.png,images/complex/1.png","1","null","","200","3027.95000000624","yes","929.1850000154227","","target","",""
"","null","html-keyboard-response","150","369788","0.0-17.0-0.18","SS1604588505621","","null","","","","","","","","","","","","<img src=images/blank.png width =""500"" height = ""500"" style=""border:5px solid black"">","","",""
"","477.82999998889863","stimulus-presentation","151","370482","0.0-17.0-1.18","SS1604588505621","<img src='images/complex/10.png' width ='500' height = '500' style='border:5px solid black'>","40","all_complex","images/complex/6.png","images/complex/10.png","images/complex/17.png,images/complex/12.png,images/complex/13.png,images/complex/8.png,images/complex/5.png,images/complex/18.png,images/complex/1.png","1","null","","200","677.8299999888986","","","","background","",""
"","null","html-keyboard-response","152","371382","0.0-17.0-0.19","SS1604588505621","","null","","","","","","","","","","","","<img src=images/blank.png width =""500"" height = ""500"" style=""border:5px solid black"">","","",""
"","432.4899999774061","stimulus-presentation","153","372080","0.0-17.0-1.19","SS1604588505621","<img src='images/complex/10.png' width ='500' height = '500' style='border:5px solid black'>","40","all_complex","images/complex/6.png","images/complex/10.png","images/complex/17.png,images/complex/12.png,images/complex/13.png,images/complex/8.png,images/complex/5.png,images/complex/18.png,images/complex/1.png","1","null","","200","632.4899999774061","","","","background","",""
"","null","html-keyboard-response","154","373012","0.0-17.0-0.20","SS1604588505621","","null","","","","","","","","","","","","<img src=images/blank.png width =""500"" height = ""500"" style=""border:5px solid black"">","","",""
"","397.4249999737367","stimulus-presentation","155","373622","0.0-17.0-1.20","SS1604588505621","<img src='images/complex/10.png' width ='500' height = '500' style='border:5px solid black'>","40","all_complex","images/complex/6.png","images/complex/10.png","images/complex/17.png,images/complex/12.png,images/complex/13.png,images/complex/8.png,images/complex/5.png,images/complex/18.png,images/complex/1.png","1","null","","200","597.4249999737367","","","","background","",""
"","null","html-keyboard-response","156","374857","0.0-17.0-0.21","SS1604588505621","","null","","","","","","","","","","","","<img src=images/blank.png width =""500"" height = ""500"" style=""border:5px solid black"">","","",""
"","411.85000000405125","stimulus-presentation","157","375481","0.0-17.0-1.21","SS1604588505621","<img src='images/complex/10.png' width ='500' height = '500' style='border:5px solid black'>","40","all_complex","images/complex/6.png","images/complex/10.png","images/complex/17.png,images/complex/12.png,images/complex/13.png,images/complex/8.png,images/complex/5.png,images/complex/18.png,images/complex/1.png","1","null","","200","611.8500000040513","","","","background","",""
"","null","html-keyboard-response","158","376630","0.0-17.0-0.22","SS1604588505621","","null","","","","","","","","","","","","<img src=images/blank.png width =""500"" height = ""500"" style=""border:5px solid black"">","","",""
"","348.03500000271015","stimulus-presentation","159","377191","0.0-17.0-1.22","SS1604588505621","<img src='images/complex/10.png' width ='500' height = '500' style='border:5px solid black'>","40","all_complex","images/complex/6.png","images/complex/10.png","images/complex/17.png,images/complex/12.png,images/complex/13.png,images/complex/8.png,images/complex/5.png,images/complex/18.png,images/complex/1.png","1","null","","200","548.0350000027101","","","","background","",""
"","null","html-keyboard-response","160","378289","0.0-17.0-0.23","SS1604588505621","","null","","","","","","","","","","","","<img src=images/blank.png width =""500"" height = ""500"" style=""border:5px solid black"">","","",""
"","6990.129999991041","stimulus-presentation","161","385491","0.0-17.0-1.23","SS1604588505621","<img src='images/complex/6.png' width ='500' height = '500' style='border:5px solid black'>","40","all_complex","images/complex/6.png","images/complex/10.png","images/complex/17.png,images/complex/12.png,images/complex/13.png,images/complex/8.png,images/complex/5.png,images/complex/18.png,images/complex/1.png","1","null","","200","7190.129999991041","yes","730.2249999775086","","target","",""
"","null","html-keyboard-response","162","386329","0.0-17.0-0.24","SS1604588505621","","null","","","","","","","","","","","","<img src=images/blank.png width =""500"" height = ""500"" style=""border:5px solid black"">","","",""
"","549.5200000004843","stimulus-presentation","163","387091","0.0-17.0-1.24","SS1604588505621","<img src='images/complex/10.png' width ='500' height = '500' style='border:5px solid black'>","40","all_complex","images/complex/6.png","images/complex/10.png","images/complex/17.png,images/complex/12.png,images/complex/13.png,images/complex/8.png,images/complex/5.png,images/complex/18.png,images/complex/1.png","1","null","","200","749.5200000004843","","","","background","",""
"","null","html-keyboard-response","164","388235","0.0-17.0-0.25","SS1604588505621","","null","","","","","","","","","","","","<img src=images/blank.png width =""500"" height = ""500"" style=""border:5px solid black"">","","",""
"","453.02999997511506","stimulus-presentation","165","388901","0.0-17.0-1.25","SS1604588505621","<img src='images/complex/10.png' width ='500' height = '500' style='border:5px solid black'>","40","all_complex","images/complex/6.png","images/complex/10.png","images/complex/17.png,images/complex/12.png,images/complex/13.png,images/complex/8.png,images/complex/5.png,images/complex/18.png,images/complex/1.png","1","null","","200","653.0299999751151","","","","background","",""
"","null","html-keyboard-response","166","389975","0.0-17.0-0.26","SS1604588505621","","null","","","","","","","","","","","","<img src=images/blank.png width =""500"" height = ""500"" style=""border:5px solid black"">","","",""
"","408.0050000047777","stimulus-presentation","167","390591","0.0-17.0-1.26","SS1604588505621","<img src='images/complex/10.png' width ='500' height = '500' style='border:5px solid black'>","40","all_complex","images/complex/6.png","images/complex/10.png","images/complex/17.png,images/complex/12.png,images/complex/13.png,images/complex/8.png,images/complex/5.png,images/complex/18.png,images/complex/1.png","1","null","","200","608.0050000047777","","","","background","",""
"","null","html-keyboard-response","168","391660","0.0-17.0-0.27","SS1604588505621","","null","","","","","","","","","","","","<img src=images/blank.png width =""500"" height = ""500"" style=""border:5px solid black"">","","",""
"","398.74499998404644","stimulus-presentation","169","392271","0.0-17.0-1.27","SS1604588505621","<img src='images/complex/10.png' width ='500' height = '500' style='border:5px solid black'>","40","all_complex","images/complex/6.png","images/complex/10.png","images/complex/17.png,images/complex/12.png,images/complex/13.png,images/complex/8.png,images/complex/5.png,images/complex/18.png,images/complex/1.png","1","null","","200","598.7449999840464","","","","background","",""
"","null","html-keyboard-response","170","393309","0.0-17.0-0.28","SS1604588505621","","null","","","","","","","","","","","","<img src=images/blank.png width =""500"" height = ""500"" style=""border:5px solid black"">","","",""
"","623.4800000092946","stimulus-presentation","171","394155","0.0-17.0-1.28","SS1604588505621","<img src='images/complex/10.png' width ='500' height = '500' style='border:5px solid black'>","40","all_complex","images/complex/6.png","images/complex/10.png","images/complex/17.png,images/complex/12.png,images/complex/13.png,images/complex/8.png,images/complex/5.png,images/complex/18.png,images/complex/1.png","1","null","","200","823.4800000092946","","","","background","",""
"","null","html-keyboard-response","172","395317","0.0-17.0-0.29","SS1604588505621","","null","","","","","","","","","","","","<img src=images/blank.png width =""500"" height = ""500"" style=""border:5px solid black"">","","",""
"","1134.0199999976903","stimulus-presentation","173","396664","0.0-17.0-1.29","SS1604588505621","<img src='images/complex/18.png' width ='500' height = '500' style='border:5px solid black'>","40","all_complex","images/complex/6.png","images/complex/10.png","images/complex/17.png,images/complex/12.png,images/complex/13.png,images/complex/8.png,images/complex/5.png,images/complex/18.png,images/complex/1.png","1","null","","200","1334.0199999976903","","","","deviant","",""
"","null","html-keyboard-response","174","397808","0.0-17.0-0.30","SS1604588505621","","null","","","","","","","","","","","","<img src=images/blank.png width =""500"" height = ""500"" style=""border:5px solid black"">","","",""
"","6371.014999982435","stimulus-presentation","175","404391","0.0-17.0-1.30","SS1604588505621","<img src='images/complex/6.png' width ='500' height = '500' style='border:5px solid black'>","40","all_complex","images/complex/6.png","images/complex/10.png","images/complex/17.png,images/complex/12.png,images/complex/13.png,images/complex/8.png,images/complex/5.png,images/complex/18.png,images/complex/1.png","1","null","","200","6571.014999982435","yes","1120.7199999771547","","target","",""
"","null","html-keyboard-response","176","405533","0.0-17.0-0.31","SS1604588505621","","null","","","","","","","","","","","","<img src=images/blank.png width =""500"" height = ""500"" style=""border:5px solid black"">","","",""
"","325.37999999476597","stimulus-presentation","177","406070","0.0-17.0-1.31","SS1604588505621","<img src='images/complex/10.png' width ='500' height = '500' style='border:5px solid black'>","40","all_complex","images/complex/6.png","images/complex/10.png","images/complex/17.png,images/complex/12.png,images/complex/13.png,images/complex/8.png,images/complex/5.png,images/complex/18.png,images/complex/1.png","1","null","","200","525.379999994766","","","","background","",""
"","null","html-keyboard-response","178","407328","0.0-17.0-0.32","SS1604588505621","","null","","","","","","","","","","","","<img src=images/blank.png width =""500"" height = ""500"" style=""border:5px solid black"">","","",""
"","349.6699999959674","stimulus-presentation","179","407892","0.0-17.0-1.32","SS1604588505621","<img src='images/complex/10.png' width ='500' height = '500' style='border:5px solid black'>","40","all_complex","images/complex/6.png","images/complex/10.png","images/complex/17.png,images/complex/12.png,images/complex/13.png,images/complex/8.png,images/complex/5.png,images/complex/18.png,images/complex/1.png","1","null","","200","549.6699999959674","","","","background","",""
"","null","html-keyboard-response","180","409126","0.0-17.0-0.33","SS1604588505621","","null","","","","","","","","","","","","<img src=images/blank.png width =""500"" height = ""500"" style=""border:5px solid black"">","","",""
"","673.8300000142772","stimulus-presentation","181","410014","0.0-17.0-1.33","SS1604588505621","<img src='images/complex/10.png' width ='500' height = '500' style='border:5px solid black'>","40","all_complex","images/complex/6.png","images/complex/10.png","images/complex/17.png,images/complex/12.png,images/complex/13.png,images/complex/8.png,images/complex/5.png,images/complex/18.png,images/complex/1.png","1","null","","200","873.8300000142772","","","","background","",""
"","null","html-keyboard-response","182","411043","0.0-17.0-0.34","SS1604588505621","","null","","","","","","","","","","","","<img src=images/blank.png width =""500"" height = ""500"" style=""border:5px solid black"">","","",""
"","654.0150000073481","stimulus-presentation","183","411911","0.0-17.0-1.34","SS1604588505621","<img src='images/complex/10.png' width ='500' height = '500' style='border:5px solid black'>","40","all_complex","images/complex/6.png","images/complex/10.png","images/complex/17.png,images/complex/12.png,images/complex/13.png,images/complex/8.png,images/complex/5.png,images/complex/18.png,images/complex/1.png","1","null","","200","854.0150000073481","","","","background","",""
"","null","html-keyboard-response","184","413050","0.0-17.0-0.35","SS1604588505621","","null","","","","","","","","","","","","<img src=images/blank.png width =""500"" height = ""500"" style=""border:5px solid black"">","","",""
"","307.2900000261143","stimulus-presentation","185","413571","0.0-17.0-1.35","SS1604588505621","<img src='images/complex/10.png' width ='500' height = '500' style='border:5px solid black'>","40","all_complex","images/complex/6.png","images/complex/10.png","images/complex/17.png,images/complex/12.png,images/complex/13.png,images/complex/8.png,images/complex/5.png,images/complex/18.png,images/complex/1.png","1","null","","200","507.2900000261143","","","","background","",""
"","null","html-keyboard-response","186","414776","0.0-17.0-0.36","SS1604588505621","","null","","","","","","","","","","","","<img src=images/blank.png width =""500"" height = ""500"" style=""border:5px solid black"">","","",""
"","472.86999999778345","stimulus-presentation","187","415466","0.0-17.0-1.36","SS1604588505621","<img src='images/complex/5.png' width ='500' height = '500' style='border:5px solid black'>","40","all_complex","images/complex/6.png","images/complex/10.png","images/complex/17.png,images/complex/12.png,images/complex/13.png,images/complex/8.png,images/complex/5.png,images/complex/18.png,images/complex/1.png","1","null","","200","672.8699999977835","","","","deviant","",""
"","null","html-keyboard-response","188","416486","0.0-17.0-0.37","SS1604588505621","","null","","","","","","","","","","","","<img src=images/blank.png width =""500"" height = ""500"" style=""border:5px solid black"">","","",""
"","471.1749999842141","stimulus-presentation","189","417171","0.0-17.0-1.37","SS1604588505621","<img src='images/complex/10.png' width ='500' height = '500' style='border:5px solid black'>","40","all_complex","images/complex/6.png","images/complex/10.png","images/complex/17.png,images/complex/12.png,images/complex/13.png,images/complex/8.png,images/complex/5.png,images/complex/18.png,images/complex/1.png","1","null","","200","671.1749999842141","","","","background","",""
"","null","html-keyboard-response","190","418067","0.0-17.0-0.38","SS1604588505621","","null","","","","","","","","","","","","<img src=images/blank.png width =""500"" height = ""500"" style=""border:5px solid black"">","","",""
"","483.99500001687557","stimulus-presentation","191","418763","0.0-17.0-1.38","SS1604588505621","<img src='images/complex/10.png' width ='500' height = '500' style='border:5px solid black'>","40","all_complex","images/complex/6.png","images/complex/10.png","images/complex/17.png,images/complex/12.png,images/complex/13.png,images/complex/8.png,images/complex/5.png,images/complex/18.png,images/complex/1.png","1","null","","200","683.9950000168756","","","","background","",""
"","null","html-keyboard-response","192","419584","0.0-17.0-0.39","SS1604588505621","","null","","","","","","","","","","","","<img src=images/blank.png width =""500"" height = ""500"" style=""border:5px solid black"">","","",""
"","435.910000000149","stimulus-presentation","193","420233","0.0-17.0-1.39","SS1604588505621","<img src='images/complex/10.png' width ='500' height = '500' style='border:5px solid black'>","40","all_complex","images/complex/6.png","images/complex/10.png","images/complex/17.png,images/complex/12.png,images/complex/13.png,images/complex/8.png,images/complex/5.png,images/complex/18.png,images/complex/1.png","1","null","","200","635.910000000149","","","","background","",""
"","null","html-keyboard-response","194","421179","0.0-17.0-0.40","SS1604588505621","","null","","","","","","","","","","","","<img src=images/blank.png width =""500"" height = ""500"" style=""border:5px solid black"">","","",""
"","322.2599999862723","stimulus-presentation","195","421712","0.0-17.0-1.40","SS1604588505621","<img src='images/complex/10.png' width ='500' height = '500' style='border:5px solid black'>","40","all_complex","images/complex/6.png","images/complex/10.png","images/complex/17.png,images/complex/12.png,images/complex/13.png,images/complex/8.png,images/complex/5.png,images/complex/18.png,images/complex/1.png","1","null","","200","522.2599999862723","","","","background","",""
"","null","html-keyboard-response","196","422799","0.0-17.0-0.41","SS1604588505621","","null","","","","","","","","","","","","<img src=images/blank.png width =""500"" height = ""500"" style=""border:5px solid black"">","","",""
"","468.2500000053551","stimulus-presentation","197","423482","0.0-17.0-1.41","SS1604588505621","<img src='images/complex/10.png' width ='500' height = '500' style='border:5px solid black'>","40","all_complex","images/complex/6.png","images/complex/10.png","images/complex/17.png,images/complex/12.png,images/complex/13.png,images/complex/8.png,images/complex/5.png,images/complex/18.png,images/complex/1.png","1","null","","200","668.2500000053551","","","","background","",""
"","null","html-keyboard-response","198","424445","0.0-17.0-0.42","SS1604588505621","","null","","","","","","","","","","","","<img src=images/blank.png width =""500"" height = ""500"" style=""border:5px solid black"">","","",""
"","450.35500000813045","stimulus-presentation","199","425110","0.0-17.0-1.42","SS1604588505621","<img src='images/complex/10.png' width ='500' height = '500' style='border:5px solid black'>","40","all_complex","images/complex/6.png","images/complex/10.png","images/complex/17.png,images/complex/12.png,images/complex/13.png,images/complex/8.png,images/complex/5.png,images/complex/18.png,images/complex/1.png","1","null","","200","650.3550000081304","","","","background","",""
"","null","html-keyboard-response","200","426236","0.0-17.0-0.43","SS1604588505621","","null","","","","","","","","","","","","<img src=images/blank.png width =""500"" height = ""500"" style=""border:5px solid black"">","","",""
"","393.3499999984633","stimulus-presentation","201","426842","0.0-17.0-1.43","SS1604588505621","<img src='images/complex/13.png' width ='500' height = '500' style='border:5px solid black'>","40","all_complex","images/complex/6.png","images/complex/10.png","images/complex/17.png,images/complex/12.png,images/complex/13.png,images/complex/8.png,images/complex/5.png,images/complex/18.png,images/complex/1.png","1","null","","200","593.3499999984633","","","","deviant","",""
"","null","html-keyboard-response","202","427961","0.0-17.0-0.44","SS1604588505621","","null","","","","","","","","","","","","<img src=images/blank.png width =""500"" height = ""500"" style=""border:5px solid black"">","","",""
"","449.9049999867566","stimulus-presentation","203","428619","0.0-17.0-1.44","SS1604588505621","<img src='images/complex/10.png' width ='500' height = '500' style='border:5px solid black'>","40","all_complex","images/complex/6.png","images/complex/10.png","images/complex/17.png,images/complex/12.png,images/complex/13.png,images/complex/8.png,images/complex/5.png,images/complex/18.png,images/complex/1.png","1","null","","200","649.9049999867566","","","","background","",""
"","null","html-keyboard-response","204","429841","0.0-17.0-0.45","SS1604588505621","","null","","","","","","","","","","","","<img src=images/blank.png width =""500"" height = ""500"" style=""border:5px solid black"">","","",""
"","327.9599999950733","stimulus-presentation","205","430391","0.0-17.0-1.45","SS1604588505621","<img src='images/complex/10.png' width ='500' height = '500' style='border:5px solid black'>","40","all_complex","images/complex/6.png","images/complex/10.png","images/complex/17.png,images/complex/12.png,images/complex/13.png,images/complex/8.png,images/complex/5.png,images/complex/18.png,images/complex/1.png","1","null","","200","527.9599999950733","","","","background","",""
"","null","html-keyboard-response","206","431407","0.0-17.0-0.46","SS1604588505621","","null","","","","","","","","","","","","<img src=images/blank.png width =""500"" height = ""500"" style=""border:5px solid black"">","","",""
"","533.4399999992456","stimulus-presentation","207","432150","0.0-17.0-1.46","SS1604588505621","<img src='images/complex/10.png' width ='500' height = '500' style='border:5px solid black'>","40","all_complex","images/complex/6.png","images/complex/10.png","images/complex/17.png,images/complex/12.png,images/complex/13.png,images/complex/8.png,images/complex/5.png,images/complex/18.png,images/complex/1.png","1","null","","200","733.4399999992456","","","","background","",""
"","null","html-keyboard-response","208","433423","0.0-17.0-0.47","SS1604588505621","","null","","","","","","","","","","","","<img src=images/blank.png width =""500"" height = ""500"" style=""border:5px solid black"">","","",""
"","306.04500000481494","stimulus-presentation","209","433941","0.0-17.0-1.47","SS1604588505621","<img src='images/complex/10.png' width ='500' height = '500' style='border:5px solid black'>","40","all_complex","images/complex/6.png","images/complex/10.png","images/complex/17.png,images/complex/12.png,images/complex/13.png,images/complex/8.png,images/complex/5.png,images/complex/18.png,images/complex/1.png","1","null","","200","506.04500000481494","","","","background","",""
"","null","html-keyboard-response","210","435225","0.0-17.0-0.48","SS1604588505621","","null","","","","","","","","","","","","<img src=images/blank.png width =""500"" height = ""500"" style=""border:5px solid black"">","","",""
"","341.9899999862537","stimulus-presentation","211","435782","0.0-17.0-1.48","SS1604588505621","<img src='images/complex/10.png' width ='500' height = '500' style='border:5px solid black'>","40","all_complex","images/complex/6.png","images/complex/10.png","images/complex/17.png,images/complex/12.png,images/complex/13.png,images/complex/8.png,images/complex/5.png,images/complex/18.png,images/complex/1.png","1","null","","200","541.9899999862537","","","","background","",""
"[{""page_index"":0,""viewing_time"":2266}]","2266","task-instructions","212","438054","0.0-18.0","SS1604588505621","","","","","","","","","","","","","","","","",""
"[{""page_index"":0,""viewing_time"":2125.270000018645},{""page_index"":1,""viewing_time"":65003.80000000587},{""page_index"":2,""viewing_time"":1687.2349999903236}]","68817.00999999885","instructions","213","506878","0.0-19.0","SS1604588505621","","","","","","","","","","","","","","","","",""
"","null","html-keyboard-response","214","507773","0.0-20.0-0.0","SS1604588505621","","null","","","","","","","","","","","","<img src=images/blank.png width =""500"" height = ""500"" style=""border:5px solid black"">","","",""
"","1234.6650000254158","stimulus-presentation","215","509221","0.0-20.0-1.0","SS1604588505621","<img src='images/simple/9.png' width ='500' height = '500' style='border:5px solid black'>","40","mixed_simple_deviant","images/complex/3.png","images/complex/11.png","images/simple/4.png,images/simple/12.png,images/simple/14.png,images/simple/7.png,images/simple/17.png,images/simple/9.png,images/simple/18.png","2","null","","200","1434.6650000254158","","","","deviant","",""
"","null","html-keyboard-response","216","510502","0.0-20.0-0.1","SS1604588505621","","null","","","","","","","","","","","","<img src=images/blank.png width =""500"" height = ""500"" style=""border:5px solid black"">","","",""
"","7438.530000013998","stimulus-presentation","217","518169","0.0-20.0-1.1","SS1604588505621","<img src='images/complex/3.png' width ='500' height = '500' style='border:5px solid black'>","40","mixed_simple_deviant","images/complex/3.png","images/complex/11.png","images/simple/4.png,images/simple/12.png,images/simple/14.png,images/simple/7.png,images/simple/17.png,images/simple/9.png,images/simple/18.png","2","null","","200","7638.530000013998","yes","1079.8850000137463","","target","",""
"","null","html-keyboard-response","218","519477","0.0-20.0-0.2","SS1604588505621","","null","","","","","","","","","","","","<img src=images/blank.png width =""500"" height = ""500"" style=""border:5px solid black"">","","",""
"","541.6850000037812","stimulus-presentation","219","520241","0.0-20.0-1.2","SS1604588505621","<img src='images/complex/11.png' width ='500' height = '500' style='border:5px solid black'>","40","mixed_simple_deviant","images/complex/3.png","images/complex/11.png","images/simple/4.png,images/simple/12.png,images/simple/14.png,images/simple/7.png,images/simple/17.png,images/simple/9.png,images/simple/18.png","2","null","","200","741.6850000037812","","","","background","",""
"","null","html-keyboard-response","220","521360","0.0-20.0-0.3","SS1604588505621","","null","","","","","","","","","","","","<img src=images/blank.png width =""500"" height = ""500"" style=""border:5px solid black"">","","",""
"","395.250000001397","stimulus-presentation","221","521968","0.0-20.0-1.3","SS1604588505621","<img src='images/complex/11.png' width ='500' height = '500' style='border:5px solid black'>","40","mixed_simple_deviant","images/complex/3.png","images/complex/11.png","images/simple/4.png,images/simple/12.png,images/simple/14.png,images/simple/7.png,images/simple/17.png,images/simple/9.png,images/simple/18.png","2","null","","200","595.250000001397","","","","background","",""
"","null","html-keyboard-response","222","523025","0.0-20.0-0.4","SS1604588505621","","null","","","","","","","","","","","","<img src=images/blank.png width =""500"" height = ""500"" style=""border:5px solid black"">","","",""
"","398.27500001410954","stimulus-presentation","223","523639","0.0-20.0-1.4","SS1604588505621","<img src='images/complex/11.png' width ='500' height = '500' style='border:5px solid black'>","40","mixed_simple_deviant","images/complex/3.png","images/complex/11.png","images/simple/4.png,images/simple/12.png,images/simple/14.png,images/simple/7.png,images/simple/17.png,images/simple/9.png,images/simple/18.png","2","null","","200","598.2750000141095","","","","background","",""
"","null","html-keyboard-response","224","524927","0.0-20.0-0.5","SS1604588505621","","null","","","","","","","","","","","","<img src=images/blank.png width =""500"" height = ""500"" style=""border:5px solid black"">","","",""
"","449.045000015758","stimulus-presentation","225","525589","0.0-20.0-1.5","SS1604588505621","<img src='images/simple/12.png' width ='500' height = '500' style='border:5px solid black'>","40","mixed_simple_deviant","images/complex/3.png","images/complex/11.png","images/simple/4.png,images/simple/12.png,images/simple/14.png,images/simple/7.png,images/simple/17.png,images/simple/9.png,images/simple/18.png","2","null","","200","649.045000015758","","","","deviant","",""
"","null","html-keyboard-response","226","526475","0.0-20.0-0.6","SS1604588505621","","null","","","","","","","","","","","","<img src=images/blank.png width =""500"" height = ""500"" style=""border:5px solid black"">","","",""
"","506.02500000968575","stimulus-presentation","227","527199","0.0-20.0-1.6","SS1604588505621","<img src='images/complex/11.png' width ='500' height = '500' style='border:5px solid black'>","40","mixed_simple_deviant","images/complex/3.png","images/complex/11.png","images/simple/4.png,images/simple/12.png,images/simple/14.png,images/simple/7.png,images/simple/17.png,images/simple/9.png,images/simple/18.png","2","null","","200","706.0250000096858","","","","background","",""
"","null","html-keyboard-response","228","528324","0.0-20.0-0.7","SS1604588505621","","null","","","","","","","","","","","","<img src=images/blank.png width =""500"" height = ""500"" style=""border:5px solid black"">","","",""
"","334.275000001071","stimulus-presentation","229","528870","0.0-20.0-1.7","SS1604588505621","<img src='images/complex/11.png' width ='500' height = '500' style='border:5px solid black'>","40","mixed_simple_deviant","images/complex/3.png","images/complex/11.png","images/simple/4.png,images/simple/12.png,images/simple/14.png,images/simple/7.png,images/simple/17.png,images/simple/9.png,images/simple/18.png","2","null","","200","534.275000001071","","","","background","",""
"","null","html-keyboard-response","230","530136","0.0-20.0-0.8","SS1604588505621","","null","","","","","","","","","","","","<img src=images/blank.png width =""500"" height = ""500"" style=""border:5px solid black"">","","",""
"","437.1349999855738","stimulus-presentation","231","530790","0.0-20.0-1.8","SS1604588505621","<img src='images/complex/11.png' width ='500' height = '500' style='border:5px solid black'>","40","mixed_simple_deviant","images/complex/3.png","images/complex/11.png","images/simple/4.png,images/simple/12.png,images/simple/14.png,images/simple/7.png,images/simple/17.png,images/simple/9.png,images/simple/18.png","2","null","","200","637.1349999855738","","","","background","",""
"","null","html-keyboard-response","232","531687","0.0-20.0-0.9","SS1604588505621","","null","","","","","","","","","","","","<img src=images/blank.png width =""500"" height = ""500"" style=""border:5px solid black"">","","",""
"","3367.659999988973","stimulus-presentation","233","535268","0.0-20.0-1.9","SS1604588505621","<img src='images/complex/3.png' width ='500' height = '500' style='border:5px solid black'>","40","mixed_simple_deviant","images/complex/3.png","images/complex/11.png","images/simple/4.png,images/simple/12.png,images/simple/14.png,images/simple/7.png,images/simple/17.png,images/simple/9.png,images/simple/18.png","2","null","","200","3567.659999988973","yes","748.1700000062119","","target","",""
"","null","html-keyboard-response","234","536510","0.0-20.0-0.10","SS1604588505621","","null","","","","","","","","","","","","<img src=images/blank.png width =""500"" height = ""500"" style=""border:5px solid black"">","","",""
"","404.07499999855645","stimulus-presentation","235","537129","0.0-20.0-1.10","SS1604588505621","<img src='images/complex/11.png' width ='500' height = '500' style='border:5px solid black'>","40","mixed_simple_deviant","images/complex/3.png","images/complex/11.png","images/simple/4.png,images/simple/12.png,images/simple/14.png,images/simple/7.png,images/simple/17.png,images/simple/9.png,images/simple/18.png","2","null","","200","604.0749999985565","","","","background","",""
"","null","html-keyboard-response","236","538291","0.0-20.0-0.11","SS1604588505621","","null","","","","","","","","","","","","<img src=images/blank.png width =""500"" height = ""500"" style=""border:5px solid black"">","","",""
"","353.64499999559484","stimulus-presentation","237","538859","0.0-20.0-1.11","SS1604588505621","<img src='images/complex/11.png' width ='500' height = '500' style='border:5px solid black'>","40","mixed_simple_deviant","images/complex/3.png","images/complex/11.png","images/simple/4.png,images/simple/12.png,images/simple/14.png,images/simple/7.png,images/simple/17.png,images/simple/9.png,images/simple/18.png","2","null","","200","553.6449999955948","","","","background","",""
"","null","html-keyboard-response","238","539965","0.0-20.0-0.12","SS1604588505621","","null","","","","","","","","","","","","<img src=images/blank.png width =""500"" height = ""500"" style=""border:5px solid black"">","","",""
"","287.20500000054017","stimulus-presentation","239","540468","0.0-20.0-1.12","SS1604588505621","<img src='images/complex/11.png' width ='500' height = '500' style='border:5px solid black'>","40","mixed_simple_deviant","images/complex/3.png","images/complex/11.png","images/simple/4.png,images/simple/12.png,images/simple/14.png,images/simple/7.png,images/simple/17.png,images/simple/9.png,images/simple/18.png","2","null","","200","487.20500000054017","","","","background","",""
"","null","html-keyboard-response","240","541286","0.0-20.0-0.13","SS1604588505621","","null","","","","","","","","","","","","<img src=images/blank.png width =""500"" height = ""500"" style=""border:5px solid black"">","","",""
"","314.0350000176113","stimulus-presentation","241","541815","0.0-20.0-1.13","SS1604588505621","<img src='images/complex/11.png' width ='500' height = '500' style='border:5px solid black'>","40","mixed_simple_deviant","images/complex/3.png","images/complex/11.png","images/simple/4.png,images/simple/12.png,images/simple/14.png,images/simple/7.png,images/simple/17.png,images/simple/9.png,images/simple/18.png","2","null","","200","514.0350000176113","","","","background","",""
"","null","html-keyboard-response","242","542830","0.0-20.0-0.14","SS1604588505621","","null","","","","","","","","","","","","<img src=images/blank.png width =""500"" height = ""500"" style=""border:5px solid black"">","","",""
"","314.4949999987148","stimulus-presentation","243","543358","0.0-20.0-1.14","SS1604588505621","<img src='images/complex/11.png' width ='500' height = '500' style='border:5px solid black'>","40","mixed_simple_deviant","images/complex/3.png","images/complex/11.png","images/simple/4.png,images/simple/12.png,images/simple/14.png,images/simple/7.png,images/simple/17.png,images/simple/9.png,images/simple/18.png","2","null","","200","514.4949999987148","","","","background","",""
"","null","html-keyboard-response","244","544380","0.0-20.0-0.15","SS1604588505621","","null","","","","","","","","","","","","<img src=images/blank.png width =""500"" height = ""500"" style=""border:5px solid black"">","","",""
"","2532.9900000069756","stimulus-presentation","245","547130","0.0-20.0-1.15","SS1604588505621","<img src='images/complex/3.png' width ='500' height = '500' style='border:5px solid black'>","40","mixed_simple_deviant","images/complex/3.png","images/complex/11.png","images/simple/4.png,images/simple/12.png,images/simple/14.png,images/simple/7.png,images/simple/17.png,images/simple/9.png,images/simple/18.png","2","null","","200","2732.9900000069756","yes","671.809999999823","","target","",""
"","null","html-keyboard-response","246","548437","0.0-20.0-0.16","SS1604588505621","","null","","","","","","","","","","","","<img src=images/blank.png width =""500"" height = ""500"" style=""border:5px solid black"">","","",""
"","1805.320000014035","stimulus-presentation","247","550456","0.0-20.0-1.16","SS1604588505621","<img src='images/simple/17.png' width ='500' height = '500' style='border:5px solid black'>","40","mixed_simple_deviant","images/complex/3.png","images/complex/11.png","images/simple/4.png,images/simple/12.png,images/simple/14.png,images/simple/7.png,images/simple/17.png,images/simple/9.png,images/simple/18.png","2","null","","200","2005.320000014035","","","","deviant","",""
"","null","html-keyboard-response","248","551739","0.0-20.0-0.17","SS1604588505621","","null","","","","","","","","","","","","<img src=images/blank.png width =""500"" height = ""500"" style=""border:5px solid black"">","","",""
"","387.7199999988079","stimulus-presentation","249","552346","0.0-20.0-1.17","SS1604588505621","<img src='images/complex/11.png' width ='500' height = '500' style='border:5px solid black'>","40","mixed_simple_deviant","images/complex/3.png","images/complex/11.png","images/simple/4.png,images/simple/12.png,images/simple/14.png,images/simple/7.png,images/simple/17.png,images/simple/9.png,images/simple/18.png","2","null","","200","587.7199999988079","","","","background","",""
"","null","html-keyboard-response","250","553597","0.0-20.0-0.18","SS1604588505621","","null","","","","","","","","","","","","<img src=images/blank.png width =""500"" height = ""500"" style=""border:5px solid black"">","","",""
"","4977.899999998044","stimulus-presentation","251","558790","0.0-20.0-1.18","SS1604588505621","<img src='images/complex/3.png' width ='500' height = '500' style='border:5px solid black'>","40","mixed_simple_deviant","images/complex/3.png","images/complex/11.png","images/simple/4.png,images/simple/12.png,images/simple/14.png,images/simple/7.png,images/simple/17.png,images/simple/9.png,images/simple/18.png","2","null","","200","5177.899999998044","yes","736.7950000043493","","target","",""
"","null","html-keyboard-response","252","559632","0.0-20.0-0.19","SS1604588505621","","null","","","","","","","","","","","","<img src=images/blank.png width =""500"" height = ""500"" style=""border:5px solid black"">","","",""
"","304.8750000016298","stimulus-presentation","253","560398","0.0-20.0-1.19","SS1604588505621","<img src='images/complex/11.png' width ='500' height = '500' style='border:5px solid black'>","40","mixed_simple_deviant","images/complex/3.png","images/complex/11.png","images/simple/4.png,images/simple/12.png,images/simple/14.png,images/simple/7.png,images/simple/17.png,images/simple/9.png,images/simple/18.png","2","null","","200","504.8750000016298","","","","background","",""
"","null","html-keyboard-response","254","561237","0.0-20.0-0.20","SS1604588505621","","null","","","","","","","","","","","","<img src=images/blank.png width =""500"" height = ""500"" style=""border:5px solid black"">","","",""
"","568.1299999996554","stimulus-presentation","255","562019","0.0-20.0-1.20","SS1604588505621","<img src='images/complex/11.png' width ='500' height = '500' style='border:5px solid black'>","40","mixed_simple_deviant","images/complex/3.png","images/complex/11.png","images/simple/4.png,images/simple/12.png,images/simple/14.png,images/simple/7.png,images/simple/17.png,images/simple/9.png,images/simple/18.png","2","null","","200","768.1299999996554","","","","background","",""
"","null","html-keyboard-response","256","562945","0.0-20.0-0.21","SS1604588505621","","null","","","","","","","","","","","","<img src=images/blank.png width =""500"" height = ""500"" style=""border:5px solid black"">","","",""
"","523.5949999769218","stimulus-presentation","257","563679","0.0-20.0-1.21","SS1604588505621","<img src='images/simple/18.png' width ='500' height = '500' style='border:5px solid black'>","40","mixed_simple_deviant","images/complex/3.png","images/complex/11.png","images/simple/4.png,images/simple/12.png,images/simple/14.png,images/simple/7.png,images/simple/17.png,images/simple/9.png,images/simple/18.png","2","null","","200","723.5949999769218","","","","deviant","",""
"","null","html-keyboard-response","258","564726","0.0-20.0-0.22","SS1604588505621","","null","","","","","","","","","","","","<img src=images/blank.png width =""500"" height = ""500"" style=""border:5px solid black"">","","",""
"","4158.150000002934","stimulus-presentation","259","569098","0.0-20.0-1.22","SS1604588505621","<img src='images/complex/3.png' width ='500' height = '500' style='border:5px solid black'>","40","mixed_simple_deviant","images/complex/3.png","images/complex/11.png","images/simple/4.png,images/simple/12.png,images/simple/14.png,images/simple/7.png,images/simple/17.png,images/simple/9.png,images/simple/18.png","2","null","","200","4358.150000002934","yes","598.5700000019278","","target","",""
"","null","html-keyboard-response","260","570284","0.0-20.0-0.23","SS1604588505621","","null","","","","","","","","","","","","<img src=images/blank.png width =""500"" height = ""500"" style=""border:5px solid black"">","","",""
"","440.5750000150874","stimulus-presentation","261","570939","0.0-20.0-1.23","SS1604588505621","<img src='images/complex/11.png' width ='500' height = '500' style='border:5px solid black'>","40","mixed_simple_deviant","images/complex/3.png","images/complex/11.png","images/simple/4.png,images/simple/12.png,images/simple/14.png,images/simple/7.png,images/simple/17.png,images/simple/9.png,images/simple/18.png","2","null","","200","640.5750000150874","","","","background","",""
"","null","html-keyboard-response","262","572186","0.0-20.0-0.24","SS1604588505621","","null","","","","","","","","","","","","<img src=images/blank.png width =""500"" height = ""500"" style=""border:5px solid black"">","","",""
"","538.2850000169128","stimulus-presentation","263","572938","0.0-20.0-1.24","SS1604588505621","<img src='images/complex/11.png' width ='500' height = '500' style='border:5px solid black'>","40","mixed_simple_deviant","images/complex/3.png","images/complex/11.png","images/simple/4.png,images/simple/12.png,images/simple/14.png,images/simple/7.png,images/simple/17.png,images/simple/9.png,images/simple/18.png","2","null","","200","738.2850000169128","","","","background","",""
"","null","html-keyboard-response","264","573783","0.0-20.0-0.25","SS1604588505621","","null","","","","","","","","","","","","<img src=images/blank.png width =""500"" height = ""500"" style=""border:5px solid black"">","","",""
"","250.91999999131076","stimulus-presentation","265","574340","0.0-20.0-1.25","SS1604588505621","<img src='images/complex/11.png' width ='500' height = '500' style='border:5px solid black'>","40","mixed_simple_deviant","images/complex/3.png","images/complex/11.png","images/simple/4.png,images/simple/12.png,images/simple/14.png,images/simple/7.png,images/simple/17.png,images/simple/9.png,images/simple/18.png","2","null","","200","450.91999999131076","","","","background","",""
"","null","html-keyboard-response","266","575590","0.0-20.0-0.26","SS1604588505621","","null","","","","","","","","","","","","<img src=images/blank.png width =""500"" height = ""500"" style=""border:5px solid black"">","","",""
"","331.384999997681","stimulus-presentation","267","576140","0.0-20.0-1.26","SS1604588505621","<img src='images/complex/11.png' width ='500' height = '500' style='border:5px solid black'>","40","mixed_simple_deviant","images/complex/3.png","images/complex/11.png","images/simple/4.png,images/simple/12.png,images/simple/14.png,images/simple/7.png,images/simple/17.png,images/simple/9.png,images/simple/18.png","2","null","","200","531.384999997681","","","","background","",""
"","null","html-keyboard-response","268","577132","0.0-20.0-0.27","SS1604588505621","","null","","","","","","","","","","","","<img src=images/blank.png width =""500"" height = ""500"" style=""border:5px solid black"">","","",""
"","267.63999997638166","stimulus-presentation","269","577878","0.0-20.0-1.27","SS1604588505621","<img src='images/complex/11.png' width ='500' height = '500' style='border:5px solid black'>","40","mixed_simple_deviant","images/complex/3.png","images/complex/11.png","images/simple/4.png,images/simple/12.png,images/simple/14.png,images/simple/7.png,images/simple/17.png,images/simple/9.png,images/simple/18.png","2","null","","200","467.63999997638166","","","","background","",""
"","null","html-keyboard-response","270","579115","0.0-20.0-0.28","SS1604588505621","","null","","","","","","","","","","","","<img src=images/blank.png width =""500"" height = ""500"" style=""border:5px solid black"">","","",""
"","486.97999998694286","stimulus-presentation","271","579824","0.0-20.0-1.28","SS1604588505621","<img src='images/simple/7.png' width ='500' height = '500' style='border:5px solid black'>","40","mixed_simple_deviant","images/complex/3.png","images/complex/11.png","images/simple/4.png,images/simple/12.png,images/simple/14.png,images/simple/7.png,images/simple/17.png,images/simple/9.png,images/simple/18.png","2","null","","200","686.9799999869429","","","","deviant","",""
"","null","html-keyboard-response","272","581015","0.0-20.0-0.29","SS1604588505621","","null","","","","","","","","","","","","<img src=images/blank.png width =""500"" height = ""500"" style=""border:5px solid black"">","","",""
"","443.02999999490567","stimulus-presentation","273","581674","0.0-20.0-1.29","SS1604588505621","<img src='images/complex/11.png' width ='500' height = '500' style='border:5px solid black'>","40","mixed_simple_deviant","images/complex/3.png","images/complex/11.png","images/simple/4.png,images/simple/12.png,images/simple/14.png,images/simple/7.png,images/simple/17.png,images/simple/9.png,images/simple/18.png","2","null","","200","643.0299999949057","","","","background","",""
"","null","html-keyboard-response","274","582718","0.0-20.0-0.30","SS1604588505621","","null","","","","","","","","","","","","<img src=images/blank.png width =""500"" height = ""500"" style=""border:5px solid black"">","","",""
"","387.02000002376735","stimulus-presentation","275","583321","0.0-20.0-1.30","SS1604588505621","<img src='images/complex/11.png' width ='500' height = '500' style='border:5px solid black'>","40","mixed_simple_deviant","images/complex/3.png","images/complex/11.png","images/simple/4.png,images/simple/12.png,images/simple/14.png,images/simple/7.png,images/simple/17.png,images/simple/9.png,images/simple/18.png","2","null","","200","587.0200000237674","","","","background","",""
"","null","html-keyboard-response","276","584449","0.0-20.0-0.31","SS1604588505621","","null","","","","","","","","","","","","<img src=images/blank.png width =""500"" height = ""500"" style=""border:5px solid black"">","","",""
"","3254.564999981085","stimulus-presentation","277","587919","0.0-20.0-1.31","SS1604588505621","<img src='images/complex/3.png' width ='500' height = '500' style='border:5px solid black'>","40","mixed_simple_deviant","images/complex/3.png","images/complex/11.png","images/simple/4.png,images/simple/12.png,images/simple/14.png,images/simple/7.png,images/simple/17.png,images/simple/9.png,images/simple/18.png","2","null","","200","3454.564999981085","yes","590.0399999809451","","target","",""
"","null","html-keyboard-response","278","589116","0.0-20.0-0.32","SS1604588505621","","null","","","","","","","","","","","","<img src=images/blank.png width =""500"" height = ""500"" style=""border:5px solid black"">","","",""
"","748.2699999818578","stimulus-presentation","279","590078","0.0-20.0-1.32","SS1604588505621","<img src='images/simple/4.png' width ='500' height = '500' style='border:5px solid black'>","40","mixed_simple_deviant","images/complex/3.png","images/complex/11.png","images/simple/4.png,images/simple/12.png,images/simple/14.png,images/simple/7.png,images/simple/17.png,images/simple/9.png,images/simple/18.png","2","null","","200","948.2699999818578","","","","deviant","",""
"","null","html-keyboard-response","280","591154","0.0-20.0-0.33","SS1604588505621","","null","","","","","","","","","","","","<img src=images/blank.png width =""500"" height = ""500"" style=""border:5px solid black"">","","",""
"","474.709999980405","stimulus-presentation","281","591847","0.0-20.0-1.33","SS1604588505621","<img src='images/complex/11.png' width ='500' height = '500' style='border:5px solid black'>","40","mixed_simple_deviant","images/complex/3.png","images/complex/11.png","images/simple/4.png,images/simple/12.png,images/simple/14.png,images/simple/7.png,images/simple/17.png,images/simple/9.png,images/simple/18.png","2","null","","200","674.709999980405","","","","background","",""
"","null","html-keyboard-response","282","592888","0.0-20.0-0.34","SS1604588505621","","null","","","","","","","","","","","","<img src=images/blank.png width =""500"" height = ""500"" style=""border:5px solid black"">","","",""
