"view_history","rt","trial_type","trial_index","time_elapsed","internal_node_id","subject","trial_stimulus","key_press","task_type","task_target_stimulus","task_background_stimulus","task_deviant_stimuli","task_order_number","block_order_number","trial_order_number","minimum_viewing_duration","trial_looking_time","trial_pressed_space_bar","trial_space_bar_rt","stimulus","trial_stimulus_type","responses","question_order"
"[{""page_index"":0,""viewing_time"":4854.935000184923}]","4855.270000174642","instructions","0","4868","0.0-0.0","SS1604513347125","","","","","","","","","","","","","","","","",""
"[{""page_index"":0,""viewing_time"":5040.71499989368},{""page_index"":1,""viewing_time"":5952.869999920949},{""page_index"":2,""viewing_time"":4380.160000175238},{""page_index"":3,""viewing_time"":4274.969999911264},{""page_index"":4,""viewing_time"":3694.0300001297146},{""page_index"":5,""viewing_time"":3370.8699999842793},{""page_index"":6,""viewing_time"":3477.130000013858},{""page_index"":7,""viewing_time"":5374.924999894574},{""page_index"":8,""viewing_time"":2905.0149999093264}]","38470.9149999544","instructions","1","43340","0.0-1.0","SS1604513347125","","","","","","","","","","","","","","","","",""
"[{""page_index"":0,""viewing_time"":3323.934999993071},{""page_index"":1,""viewing_time"":30058.02999995649},{""page_index"":2,""viewing_time"":1731.0899998992682}]","35113.304999889806","instructions","2","78455","0.0-2.0","SS1604513347125","","","","","","","","","","","","","","","","",""
"","1251.5999998431653","practice-block","3","79909","0.0-3.0","SS1604513347125","<img src='images/practice/practice_background.jpeg' width ='500' height = '500' style='border:5px solid black'>","40","null","images/practice/practice_target.jpg","null","null","null","null","","200","1451.5999998431653","","","","","",""
"","null","html-keyboard-response","4","80725","0.0-4.0","SS1604513347125","","null","","","","","","","","","","","","<img src=images/blank.png width =""500"" height = ""500"" style=""border:5px solid black"">","","",""
"","1125.9550000540912","practice-block","5","82053","0.0-5.0","SS1604513347125","<img src='images/practice/practice_background.jpeg' width ='500' height = '500' style='border:5px solid black'>","40","null","images/practice/practice_target.jpg","null","null","null","null","","200","1325.9550000540912","","","","","",""
"","null","html-keyboard-response","6","82961","0.0-6.0","SS1604513347125","","null","","","","","","","","","","","","<img src=images/blank.png width =""500"" height = ""500"" style=""border:5px solid black"">","","",""
"","936.8700000923127","practice-block","7","84101","0.0-7.0","SS1604513347125","<img src='images/practice/practice_deviant.jpeg' width ='500' height = '500' style='border:5px solid black'>","40","null","images/practice/practice_target.jpg","null","null","null","null","","200","1136.8700000923127","","","","","",""
"","null","html-keyboard-response","8","85208","0.0-8.0","SS1604513347125","","null","","","","","","","","","","","","<img src=images/blank.png width =""500"" height = ""500"" style=""border:5px solid black"">","","",""
"","770.4399998765439","practice-block","9","89467","0.0-9.0-0.0","SS1604513347125","<img src='images/practice/practice_target.jpg' width ='500' height = '500' style='border:5px solid black'>","40","null","images/practice/practice_target.jpg","null","null","null","null","","200","970.4399998765439","","","","","",""
"","4510.990000097081","practice-block","10","94181","0.0-9.1-0.1","SS1604513347125","<img src='images/practice/practice_target.jpg' width ='500' height = '500' style='border:5px solid black'>","40","null","images/practice/practice_target.jpg","null","null","null","null","","200","4710.990000097081","yes","31.279999995604157","","","",""
"","null","html-keyboard-response","11","95445","0.0-10.0","SS1604513347125","","null","","","","","","","","","","","","<img src=images/blank.png width =""500"" height = ""500"" style=""border:5px solid black"">","","",""
"","469.77500012144446","practice-block","12","96117","0.0-11.0","SS1604513347125","<img src='images/practice/practice_background.jpeg' width ='500' height = '500' style='border:5px solid black'>","40","null","images/practice/practice_target.jpg","null","null","null","null","","200","669.7750001214445","","","","","",""
"[{""page_index"":0,""viewing_time"":2081}]","2082","task-instructions","13","98200","0.0-12.0","SS1604513347125","","","","","","","","","","","","","","","","",""
"[{""page_index"":0,""viewing_time"":1017.7149998489767},{""page_index"":1,""viewing_time"":4255.205000052229},{""page_index"":2,""viewing_time"":1462.1500000357628}]","6735.34999997355","instructions","14","104936","0.0-13.0","SS1604513347125","","","","","","","","","","","","","","","","",""
"","null","html-keyboard-response","15","105785","0.0-14.0-0.0","SS1604513347125","","null","","","","","","","","","","","","<img src=images/blank.png width =""500"" height = ""500"" style=""border:5px solid black"">","","",""
"","5297.355000162497","stimulus-presentation","16","111285","0.0-14.0-1.0","SS1604513347125","<img src='images/complex/13.png' width ='500' height = '500' style='border:5px solid black'>","40","mixed_simple_deviant","images/complex/13.png","images/complex/6.png","images/simple/14.png,images/simple/18.png,images/simple/7.png,images/simple/17.png,images/simple/12.png,images/simple/11.png,images/simple/9.png","0","null","","200","5497.355000162497","yes","2465.6450001057237","","target","",""
"","null","html-keyboard-response","17","112160","0.0-14.0-0.1","SS1604513347125","","null","","","","","","","","","","","","<img src=images/blank.png width =""500"" height = ""500"" style=""border:5px solid black"">","","",""
"","1258.1899999640882","stimulus-presentation","18","113653","0.0-14.0-1.1","SS1604513347125","<img src='images/simple/14.png' width ='500' height = '500' style='border:5px solid black'>","40","mixed_simple_deviant","images/complex/13.png","images/complex/6.png","images/simple/14.png,images/simple/18.png,images/simple/7.png,images/simple/17.png,images/simple/12.png,images/simple/11.png,images/simple/9.png","0","null","","200","1458.1899999640882","","","","deviant","",""
"","null","html-keyboard-response","19","114641","0.0-14.0-0.2","SS1604513347125","","null","","","","","","","","","","","","<img src=images/blank.png width =""500"" height = ""500"" style=""border:5px solid black"">","","",""
"","473.18500000983477","stimulus-presentation","20","115317","0.0-14.0-1.2","SS1604513347125","<img src='images/complex/6.png' width ='500' height = '500' style='border:5px solid black'>","40","mixed_simple_deviant","images/complex/13.png","images/complex/6.png","images/simple/14.png,images/simple/18.png,images/simple/7.png,images/simple/17.png,images/simple/12.png,images/simple/11.png,images/simple/9.png","0","null","","200","673.1850000098348","","","","background","",""
"","null","html-keyboard-response","21","116278","0.0-14.0-0.3","SS1604513347125","","null","","","","","","","","","","","","<img src=images/blank.png width =""500"" height = ""500"" style=""border:5px solid black"">","","",""
"","596.3000000920147","stimulus-presentation","22","117077","0.0-14.0-1.3","SS1604513347125","<img src='images/complex/6.png' width ='500' height = '500' style='border:5px solid black'>","40","mixed_simple_deviant","images/complex/13.png","images/complex/6.png","images/simple/14.png,images/simple/18.png,images/simple/7.png,images/simple/17.png,images/simple/12.png,images/simple/11.png,images/simple/9.png","0","null","","200","796.3000000920147","","","","background","",""
"","null","html-keyboard-response","23","118378","0.0-14.0-0.4","SS1604513347125","","null","","","","","","","","","","","","<img src=images/blank.png width =""500"" height = ""500"" style=""border:5px solid black"">","","",""
"","464.43499997258186","stimulus-presentation","24","119045","0.0-14.0-1.4","SS1604513347125","<img src='images/complex/6.png' width ='500' height = '500' style='border:5px solid black'>","40","mixed_simple_deviant","images/complex/13.png","images/complex/6.png","images/simple/14.png,images/simple/18.png,images/simple/7.png,images/simple/17.png,images/simple/12.png,images/simple/11.png,images/simple/9.png","0","null","","200","664.4349999725819","","","","background","",""
"","null","html-keyboard-response","25","120088","0.0-14.0-0.5","SS1604513347125","","null","","","","","","","","","","","","<img src=images/blank.png width =""500"" height = ""500"" style=""border:5px solid black"">","","",""
"","460.4599999729544","stimulus-presentation","26","120750","0.0-14.0-1.5","SS1604513347125","<img src='images/complex/6.png' width ='500' height = '500' style='border:5px solid black'>","40","mixed_simple_deviant","images/complex/13.png","images/complex/6.png","images/simple/14.png,images/simple/18.png,images/simple/7.png,images/simple/17.png,images/simple/12.png,images/simple/11.png,images/simple/9.png","0","null","","200","660.4599999729544","","","","background","",""
"","null","html-keyboard-response","27","121642","0.0-14.0-0.6","SS1604513347125","","null","","","","","","","","","","","","<img src=images/blank.png width =""500"" height = ""500"" style=""border:5px solid black"">","","",""
"","912.4699998646975","stimulus-presentation","28","122757","0.0-14.0-1.6","SS1604513347125","<img src='images/simple/7.png' width ='500' height = '500' style='border:5px solid black'>","40","mixed_simple_deviant","images/complex/13.png","images/complex/6.png","images/simple/14.png,images/simple/18.png,images/simple/7.png,images/simple/17.png,images/simple/12.png,images/simple/11.png,images/simple/9.png","0","null","","200","1112.4699998646975","","","","deviant","",""
"","null","html-keyboard-response","29","123620","0.0-14.0-0.7","SS1604513347125","","null","","","","","","","","","","","","<img src=images/blank.png width =""500"" height = ""500"" style=""border:5px solid black"">","","",""
"","470.960000064224","stimulus-presentation","30","124293","0.0-14.0-1.7","SS1604513347125","<img src='images/complex/6.png' width ='500' height = '500' style='border:5px solid black'>","40","mixed_simple_deviant","images/complex/13.png","images/complex/6.png","images/simple/14.png,images/simple/18.png,images/simple/7.png,images/simple/17.png,images/simple/12.png,images/simple/11.png,images/simple/9.png","0","null","","200","670.960000064224","","","","background","",""
"","null","html-keyboard-response","31","125294","0.0-14.0-0.8","SS1604513347125","","null","","","","","","","","","","","","<img src=images/blank.png width =""500"" height = ""500"" style=""border:5px solid black"">","","",""
"","334.1399999335408","stimulus-presentation","32","125830","0.0-14.0-1.8","SS1604513347125","<img src='images/complex/6.png' width ='500' height = '500' style='border:5px solid black'>","40","mixed_simple_deviant","images/complex/13.png","images/complex/6.png","images/simple/14.png,images/simple/18.png,images/simple/7.png,images/simple/17.png,images/simple/12.png,images/simple/11.png,images/simple/9.png","0","null","","200","534.1399999335408","","","","background","",""
"","null","html-keyboard-response","33","126826","0.0-14.0-0.9","SS1604513347125","","null","","","","","","","","","","","","<img src=images/blank.png width =""500"" height = ""500"" style=""border:5px solid black"">","","",""
"","1552.0550000946969","stimulus-presentation","34","128580","0.0-14.0-1.9","SS1604513347125","<img src='images/complex/13.png' width ='500' height = '500' style='border:5px solid black'>","40","mixed_simple_deviant","images/complex/13.png","images/complex/6.png","images/simple/14.png,images/simple/18.png,images/simple/7.png,images/simple/17.png,images/simple/12.png,images/simple/11.png,images/simple/9.png","0","null","","200","1752.0550000946969","yes","400.4399999976158","","target","",""
"","null","html-keyboard-response","35","129732","0.0-14.0-0.10","SS1604513347125","","null","","","","","","","","","","","","<img src=images/blank.png width =""500"" height = ""500"" style=""border:5px solid black"">","","",""
"","358.5300000850111","stimulus-presentation","36","130293","0.0-14.0-1.10","SS1604513347125","<img src='images/complex/6.png' width ='500' height = '500' style='border:5px solid black'>","40","mixed_simple_deviant","images/complex/13.png","images/complex/6.png","images/simple/14.png,images/simple/18.png,images/simple/7.png,images/simple/17.png,images/simple/12.png,images/simple/11.png,images/simple/9.png","0","null","","200","558.5300000850111","","","","background","",""
"","null","html-keyboard-response","37","131495","0.0-14.0-0.11","SS1604513347125","","null","","","","","","","","","","","","<img src=images/blank.png width =""500"" height = ""500"" style=""border:5px solid black"">","","",""
"","562.8649999853224","stimulus-presentation","38","132260","0.0-14.0-1.11","SS1604513347125","<img src='images/complex/6.png' width ='500' height = '500' style='border:5px solid black'>","40","mixed_simple_deviant","images/complex/13.png","images/complex/6.png","images/simple/14.png,images/simple/18.png,images/simple/7.png,images/simple/17.png,images/simple/12.png,images/simple/11.png,images/simple/9.png","0","null","","200","762.8649999853224","","","","background","",""
"","null","html-keyboard-response","39","133264","0.0-14.0-0.12","SS1604513347125","","null","","","","","","","","","","","","<img src=images/blank.png width =""500"" height = ""500"" style=""border:5px solid black"">","","",""
"","522.8999999817461","stimulus-presentation","40","133989","0.0-14.0-1.12","SS1604513347125","<img src='images/simple/9.png' width ='500' height = '500' style='border:5px solid black'>","40","mixed_simple_deviant","images/complex/13.png","images/complex/6.png","images/simple/14.png,images/simple/18.png,images/simple/7.png,images/simple/17.png,images/simple/12.png,images/simple/11.png,images/simple/9.png","0","null","","200","722.8999999817461","","","","deviant","",""
"","null","html-keyboard-response","41","134854","0.0-14.0-0.13","SS1604513347125","","null","","","","","","","","","","","","<img src=images/blank.png width =""500"" height = ""500"" style=""border:5px solid black"">","","",""
"","420.2499999664724","stimulus-presentation","42","135476","0.0-14.0-1.13","SS1604513347125","<img src='images/complex/6.png' width ='500' height = '500' style='border:5px solid black'>","40","mixed_simple_deviant","images/complex/13.png","images/complex/6.png","images/simple/14.png,images/simple/18.png,images/simple/7.png,images/simple/17.png,images/simple/12.png,images/simple/11.png,images/simple/9.png","0","null","","200","620.2499999664724","","","","background","",""
"","null","html-keyboard-response","43","136684","0.0-14.0-0.14","SS1604513347125","","null","","","","","","","","","","","","<img src=images/blank.png width =""500"" height = ""500"" style=""border:5px solid black"">","","",""
"","1054.1900000534952","stimulus-presentation","44","137941","0.0-14.0-1.14","SS1604513347125","<img src='images/complex/6.png' width ='500' height = '500' style='border:5px solid black'>","40","mixed_simple_deviant","images/complex/13.png","images/complex/6.png","images/simple/14.png,images/simple/18.png,images/simple/7.png,images/simple/17.png,images/simple/12.png,images/simple/11.png,images/simple/9.png","0","null","","200","1254.1900000534952","","","","background","",""
"","null","html-keyboard-response","45","138768","0.0-14.0-0.15","SS1604513347125","","null","","","","","","","","","","","","<img src=images/blank.png width =""500"" height = ""500"" style=""border:5px solid black"">","","",""
"","442.1899998560548","stimulus-presentation","46","139413","0.0-14.0-1.15","SS1604513347125","<img src='images/complex/6.png' width ='500' height = '500' style='border:5px solid black'>","40","mixed_simple_deviant","images/complex/13.png","images/complex/6.png","images/simple/14.png,images/simple/18.png,images/simple/7.png,images/simple/17.png,images/simple/12.png,images/simple/11.png,images/simple/9.png","0","null","","200","642.1899998560548","","","","background","",""
"","null","html-keyboard-response","47","140606","0.0-14.0-0.16","SS1604513347125","","null","","","","","","","","","","","","<img src=images/blank.png width =""500"" height = ""500"" style=""border:5px solid black"">","","",""
"","540.1650001294911","stimulus-presentation","48","141348","0.0-14.0-1.16","SS1604513347125","<img src='images/complex/6.png' width ='500' height = '500' style='border:5px solid black'>","40","mixed_simple_deviant","images/complex/13.png","images/complex/6.png","images/simple/14.png,images/simple/18.png,images/simple/7.png,images/simple/17.png,images/simple/12.png,images/simple/11.png,images/simple/9.png","0","null","","200","740.1650001294911","","","","background","",""
"","null","html-keyboard-response","49","142263","0.0-14.0-0.17","SS1604513347125","","null","","","","","","","","","","","","<img src=images/blank.png width =""500"" height = ""500"" style=""border:5px solid black"">","","",""
"","771.7049999628216","stimulus-presentation","50","143236","0.0-14.0-1.17","SS1604513347125","<img src='images/simple/12.png' width ='500' height = '500' style='border:5px solid black'>","40","mixed_simple_deviant","images/complex/13.png","images/complex/6.png","images/simple/14.png,images/simple/18.png,images/simple/7.png,images/simple/17.png,images/simple/12.png,images/simple/11.png,images/simple/9.png","0","null","","200","971.7049999628216","","","","deviant","",""
"","null","html-keyboard-response","51","144354","0.0-14.0-0.18","SS1604513347125","","null","","","","","","","","","","","","<img src=images/blank.png width =""500"" height = ""500"" style=""border:5px solid black"">","","",""
"","1479.8200000077486","stimulus-presentation","52","146037","0.0-14.0-1.18","SS1604513347125","<img src='images/complex/13.png' width ='500' height = '500' style='border:5px solid black'>","40","mixed_simple_deviant","images/complex/13.png","images/complex/6.png","images/simple/14.png,images/simple/18.png,images/simple/7.png,images/simple/17.png,images/simple/12.png,images/simple/11.png,images/simple/9.png","0","null","","200","1679.8200000077486","yes","536.2549999263138","","target","",""
"","null","html-keyboard-response","53","147249","0.0-14.0-0.19","SS1604513347125","","null","","","","","","","","","","","","<img src=images/blank.png width =""500"" height = ""500"" style=""border:5px solid black"">","","",""
"","457.24500017240644","stimulus-presentation","54","147909","0.0-14.0-1.19","SS1604513347125","<img src='images/complex/6.png' width ='500' height = '500' style='border:5px solid black'>","40","mixed_simple_deviant","images/complex/13.png","images/complex/6.png","images/simple/14.png,images/simple/18.png,images/simple/7.png,images/simple/17.png,images/simple/12.png,images/simple/11.png,images/simple/9.png","0","null","","200","657.2450001724064","","","","background","",""
"","null","html-keyboard-response","55","148757","0.0-14.0-0.20","SS1604513347125","","null","","","","","","","","","","","","<img src=images/blank.png width =""500"" height = ""500"" style=""border:5px solid black"">","","",""
"","565.5999998562038","stimulus-presentation","56","149525","0.0-14.0-1.20","SS1604513347125","<img src='images/complex/6.png' width ='500' height = '500' style='border:5px solid black'>","40","mixed_simple_deviant","images/complex/13.png","images/complex/6.png","images/simple/14.png,images/simple/18.png,images/simple/7.png,images/simple/17.png,images/simple/12.png,images/simple/11.png,images/simple/9.png","0","null","","200","765.5999998562038","","","","background","",""
"","null","html-keyboard-response","57","150450","0.0-14.0-0.21","SS1604513347125","","null","","","","","","","","","","","","<img src=images/blank.png width =""500"" height = ""500"" style=""border:5px solid black"">","","",""
"","200.60500013642013","stimulus-presentation","58","150853","0.0-14.0-1.21","SS1604513347125","<img src='images/complex/6.png' width ='500' height = '500' style='border:5px solid black'>","40","mixed_simple_deviant","images/complex/13.png","images/complex/6.png","images/simple/14.png,images/simple/18.png,images/simple/7.png,images/simple/17.png,images/simple/12.png,images/simple/11.png,images/simple/9.png","0","null","","200","400.60500013642013","","","","background","",""
"","null","html-keyboard-response","59","151833","0.0-14.0-0.22","SS1604513347125","","null","","","","","","","","","","","","<img src=images/blank.png width =""500"" height = ""500"" style=""border:5px solid black"">","","",""
"","225.36999988369644","stimulus-presentation","60","152261","0.0-14.0-1.22","SS1604513347125","<img src='images/complex/6.png' width ='500' height = '500' style='border:5px solid black'>","40","mixed_simple_deviant","images/complex/13.png","images/complex/6.png","images/simple/14.png,images/simple/18.png,images/simple/7.png,images/simple/17.png,images/simple/12.png,images/simple/11.png,images/simple/9.png","0","null","","200","425.36999988369644","","","","background","",""
"","null","html-keyboard-response","61","153387","0.0-14.0-0.23","SS1604513347125","","null","","","","","","","","","","","","<img src=images/blank.png width =""500"" height = ""500"" style=""border:5px solid black"">","","",""
"","1246.904999949038","stimulus-presentation","62","154837","0.0-14.0-1.23","SS1604513347125","<img src='images/complex/13.png' width ='500' height = '500' style='border:5px solid black'>","40","mixed_simple_deviant","images/complex/13.png","images/complex/6.png","images/simple/14.png,images/simple/18.png,images/simple/7.png,images/simple/17.png,images/simple/12.png,images/simple/11.png,images/simple/9.png","0","null","","200","1446.904999949038","yes","383.18499992601573","","target","",""
"","null","html-keyboard-response","63","155674","0.0-14.0-0.24","SS1604513347125","","null","","","","","","","","","","","","<img src=images/blank.png width =""500"" height = ""500"" style=""border:5px solid black"">","","",""
"","1151.7250000033528","stimulus-presentation","64","157028","0.0-14.0-1.24","SS1604513347125","<img src='images/complex/13.png' width ='500' height = '500' style='border:5px solid black'>","40","mixed_simple_deviant","images/complex/13.png","images/complex/6.png","images/simple/14.png,images/simple/18.png,images/simple/7.png,images/simple/17.png,images/simple/12.png,images/simple/11.png,images/simple/9.png","0","null","","200","1351.7250000033528","yes","544.145000167191","","target","",""
"","null","html-keyboard-response","65","157883","0.0-14.0-0.25","SS1604513347125","","null","","","","","","","","","","","","<img src=images/blank.png width =""500"" height = ""500"" style=""border:5px solid black"">","","",""
"","447.4699997808784","stimulus-presentation","66","158533","0.0-14.0-1.25","SS1604513347125","<img src='images/complex/6.png' width ='500' height = '500' style='border:5px solid black'>","40","mixed_simple_deviant","images/complex/13.png","images/complex/6.png","images/simple/14.png,images/simple/18.png,images/simple/7.png,images/simple/17.png,images/simple/12.png,images/simple/11.png,images/simple/9.png","0","null","","200","647.4699997808784","","","","background","",""
"","null","html-keyboard-response","67","159402","0.0-14.0-0.26","SS1604513347125","","null","","","","","","","","","","","","<img src=images/blank.png width =""500"" height = ""500"" style=""border:5px solid black"">","","",""
"","943.7899999320507","stimulus-presentation","68","160548","0.0-14.0-1.26","SS1604513347125","<img src='images/simple/11.png' width ='500' height = '500' style='border:5px solid black'>","40","mixed_simple_deviant","images/complex/13.png","images/complex/6.png","images/simple/14.png,images/simple/18.png,images/simple/7.png,images/simple/17.png,images/simple/12.png,images/simple/11.png,images/simple/9.png","0","null","","200","1143.7899999320507","","","","deviant","",""
"","null","html-keyboard-response","69","161695","0.0-14.0-0.27","SS1604513347125","","null","","","","","","","","","","","","<img src=images/blank.png width =""500"" height = ""500"" style=""border:5px solid black"">","","",""
"","1034.779999870807","stimulus-presentation","70","162933","0.0-14.0-1.27","SS1604513347125","<img src='images/complex/13.png' width ='500' height = '500' style='border:5px solid black'>","40","mixed_simple_deviant","images/complex/13.png","images/complex/6.png","images/simple/14.png,images/simple/18.png,images/simple/7.png,images/simple/17.png,images/simple/12.png,images/simple/11.png,images/simple/9.png","0","null","","200","1234.779999870807","yes","430.47000002115965","","target","",""
"","null","html-keyboard-response","71","163762","0.0-14.0-0.28","SS1604513347125","","null","","","","","","","","","","","","<img src=images/blank.png width =""500"" height = ""500"" style=""border:5px solid black"">","","",""
"","1159.9200000055134","stimulus-presentation","72","165125","0.0-14.0-1.28","SS1604513347125","<img src='images/complex/6.png' width ='500' height = '500' style='border:5px solid black'>","40","mixed_simple_deviant","images/complex/13.png","images/complex/6.png","images/simple/14.png,images/simple/18.png,images/simple/7.png,images/simple/17.png,images/simple/12.png,images/simple/11.png,images/simple/9.png","0","null","","200","1359.9200000055134","","","","background","",""
"","null","html-keyboard-response","73","166081","0.0-14.0-0.29","SS1604513347125","","null","","","","","","","","","","","","<img src=images/blank.png width =""500"" height = ""500"" style=""border:5px solid black"">","","",""
"","536.7950000800192","stimulus-presentation","74","166821","0.0-14.0-1.29","SS1604513347125","<img src='images/complex/6.png' width ='500' height = '500' style='border:5px solid black'>","40","mixed_simple_deviant","images/complex/13.png","images/complex/6.png","images/simple/14.png,images/simple/18.png,images/simple/7.png,images/simple/17.png,images/simple/12.png,images/simple/11.png,images/simple/9.png","0","null","","200","736.7950000800192","","","","background","",""
"","null","html-keyboard-response","75","167725","0.0-14.0-0.30","SS1604513347125","","null","","","","","","","","","","","","<img src=images/blank.png width =""500"" height = ""500"" style=""border:5px solid black"">","","",""
"","535.3200000245124","stimulus-presentation","76","168463","0.0-14.0-1.30","SS1604513347125","<img src='images/complex/6.png' width ='500' height = '500' style='border:5px solid black'>","40","mixed_simple_deviant","images/complex/13.png","images/complex/6.png","images/simple/14.png,images/simple/18.png,images/simple/7.png,images/simple/17.png,images/simple/12.png,images/simple/11.png,images/simple/9.png","0","null","","200","735.3200000245124","","","","background","",""
"","null","html-keyboard-response","77","169455","0.0-14.0-0.31","SS1604513347125","","null","","","","","","","","","","","","<img src=images/blank.png width =""500"" height = ""500"" style=""border:5px solid black"">","","",""
"","1595.1000000350177","stimulus-presentation","78","171253","0.0-14.0-1.31","SS1604513347125","<img src='images/complex/6.png' width ='500' height = '500' style='border:5px solid black'>","40","mixed_simple_deviant","images/complex/13.png","images/complex/6.png","images/simple/14.png,images/simple/18.png,images/simple/7.png,images/simple/17.png,images/simple/12.png,images/simple/11.png,images/simple/9.png","0","null","","200","1795.1000000350177","","","","background","",""
"","null","html-keyboard-response","79","172409","0.0-14.0-0.32","SS1604513347125","","null","","","","","","","","","","","","<img src=images/blank.png width =""500"" height = ""500"" style=""border:5px solid black"">","","",""
"","370.29999983496964","stimulus-presentation","80","172983","0.0-14.0-1.32","SS1604513347125","<img src='images/complex/6.png' width ='500' height = '500' style='border:5px solid black'>","40","mixed_simple_deviant","images/complex/13.png","images/complex/6.png","images/simple/14.png,images/simple/18.png,images/simple/7.png,images/simple/17.png,images/simple/12.png,images/simple/11.png,images/simple/9.png","0","null","","200","570.2999998349696","","","","background","",""
"","null","html-keyboard-response","81","174221","0.0-14.0-0.33","SS1604513347125","","null","","","","","","","","","","","","<img src=images/blank.png width =""500"" height = ""500"" style=""border:5px solid black"">","","",""
"","269.86500015482306","stimulus-presentation","82","174693","0.0-14.0-1.33","SS1604513347125","<img src='images/complex/6.png' width ='500' height = '500' style='border:5px solid black'>","40","mixed_simple_deviant","images/complex/13.png","images/complex/6.png","images/simple/14.png,images/simple/18.png,images/simple/7.png,images/simple/17.png,images/simple/12.png,images/simple/11.png,images/simple/9.png","0","null","","200","469.86500015482306","","","","background","",""
"","null","html-keyboard-response","83","175798","0.0-14.0-0.34","SS1604513347125","","null","","","","","","","","","","","","<img src=images/blank.png width =""500"" height = ""500"" style=""border:5px solid black"">","","",""
"","343.8249998725951","stimulus-presentation","84","176344","0.0-14.0-1.34","SS1604513347125","<img src='images/complex/6.png' width ='500' height = '500' style='border:5px solid black'>","40","mixed_simple_deviant","images/complex/13.png","images/complex/6.png","images/simple/14.png,images/simple/18.png,images/simple/7.png,images/simple/17.png,images/simple/12.png,images/simple/11.png,images/simple/9.png","0","null","","200","543.8249998725951","","","","background","",""
"","null","html-keyboard-response","85","177393","0.0-14.0-0.35","SS1604513347125","","null","","","","","","","","","","","","<img src=images/blank.png width =""500"" height = ""500"" style=""border:5px solid black"">","","",""
"","264.3699999898672","stimulus-presentation","86","177860","0.0-14.0-1.35","SS1604513347125","<img src='images/complex/6.png' width ='500' height = '500' style='border:5px solid black'>","40","mixed_simple_deviant","images/complex/13.png","images/complex/6.png","images/simple/14.png,images/simple/18.png,images/simple/7.png,images/simple/17.png,images/simple/12.png,images/simple/11.png,images/simple/9.png","0","null","","200","464.3699999898672","","","","background","",""
"","null","html-keyboard-response","87","179050","0.0-14.0-0.36","SS1604513347125","","null","","","","","","","","","","","","<img src=images/blank.png width =""500"" height = ""500"" style=""border:5px solid black"">","","",""
"","160.26500007137656","stimulus-presentation","88","179413","0.0-14.0-1.36","SS1604513347125","<img src='images/complex/6.png' width ='500' height = '500' style='border:5px solid black'>","40","mixed_simple_deviant","images/complex/13.png","images/complex/6.png","images/simple/14.png,images/simple/18.png,images/simple/7.png,images/simple/17.png,images/simple/12.png,images/simple/11.png,images/simple/9.png","0","null","","200","360.26500007137656","","","","background","",""
"","null","html-keyboard-response","89","180476","0.0-14.0-0.37","SS1604513347125","","null","","","","","","","","","","","","<img src=images/blank.png width =""500"" height = ""500"" style=""border:5px solid black"">","","",""
"","206.8699998781085","stimulus-presentation","90","180885","0.0-14.0-1.37","SS1604513347125","<img src='images/complex/6.png' width ='500' height = '500' style='border:5px solid black'>","40","mixed_simple_deviant","images/complex/13.png","images/complex/6.png","images/simple/14.png,images/simple/18.png,images/simple/7.png,images/simple/17.png,images/simple/12.png,images/simple/11.png,images/simple/9.png","0","null","","200","406.8699998781085","","","","background","",""
"","null","html-keyboard-response","91","181878","0.0-14.0-0.38","SS1604513347125","","null","","","","","","","","","","","","<img src=images/blank.png width =""500"" height = ""500"" style=""border:5px solid black"">","","",""
"","579.3399999383837","stimulus-presentation","92","182661","0.0-14.0-1.38","SS1604513347125","<img src='images/simple/18.png' width ='500' height = '500' style='border:5px solid black'>","40","mixed_simple_deviant","images/complex/13.png","images/complex/6.png","images/simple/14.png,images/simple/18.png,images/simple/7.png,images/simple/17.png,images/simple/12.png,images/simple/11.png,images/simple/9.png","0","null","","200","779.3399999383837","","","","deviant","",""
"","null","html-keyboard-response","93","183910","0.0-14.0-0.39","SS1604513347125","","null","","","","","","","","","","","","<img src=images/blank.png width =""500"" height = ""500"" style=""border:5px solid black"">","","",""
"","269.95500014163554","stimulus-presentation","94","184383","0.0-14.0-1.39","SS1604513347125","<img src='images/complex/6.png' width ='500' height = '500' style='border:5px solid black'>","40","mixed_simple_deviant","images/complex/13.png","images/complex/6.png","images/simple/14.png,images/simple/18.png,images/simple/7.png,images/simple/17.png,images/simple/12.png,images/simple/11.png,images/simple/9.png","0","null","","200","469.95500014163554","","","","background","",""
"","null","html-keyboard-response","95","185573","0.0-14.0-0.40","SS1604513347125","","null","","","","","","","","","","","","<img src=images/blank.png width =""500"" height = ""500"" style=""border:5px solid black"">","","",""
"","580.9849998913705","stimulus-presentation","96","186357","0.0-14.0-1.40","SS1604513347125","<img src='images/complex/6.png' width ='500' height = '500' style='border:5px solid black'>","40","mixed_simple_deviant","images/complex/13.png","images/complex/6.png","images/simple/14.png,images/simple/18.png,images/simple/7.png,images/simple/17.png,images/simple/12.png,images/simple/11.png,images/simple/9.png","0","null","","200","780.9849998913705","","","","background","",""
"","null","html-keyboard-response","97","187625","0.0-14.0-0.41","SS1604513347125","","null","","","","","","","","","","","","<img src=images/blank.png width =""500"" height = ""500"" style=""border:5px solid black"">","","",""
"","209.15500004775822","stimulus-presentation","98","188037","0.0-14.0-1.41","SS1604513347125","<img src='images/complex/6.png' width ='500' height = '500' style='border:5px solid black'>","40","mixed_simple_deviant","images/complex/13.png","images/complex/6.png","images/simple/14.png,images/simple/18.png,images/simple/7.png,images/simple/17.png,images/simple/12.png,images/simple/11.png,images/simple/9.png","0","null","","200","409.1550000477582","","","","background","",""
"","null","html-keyboard-response","99","189182","0.0-14.0-0.42","SS1604513347125","","null","","","","","","","","","","","","<img src=images/blank.png width =""500"" height = ""500"" style=""border:5px solid black"">","","",""
"","1067.429999820888","stimulus-presentation","100","190453","0.0-14.0-1.42","SS1604513347125","<img src='images/simple/17.png' width ='500' height = '500' style='border:5px solid black'>","40","mixed_simple_deviant","images/complex/13.png","images/complex/6.png","images/simple/14.png,images/simple/18.png,images/simple/7.png,images/simple/17.png,images/simple/12.png,images/simple/11.png,images/simple/9.png","0","null","","200","1267.429999820888","","","","deviant","",""
"","null","html-keyboard-response","101","191566","0.0-14.0-0.43","SS1604513347125","","null","","","","","","","","","","","","<img src=images/blank.png width =""500"" height = ""500"" style=""border:5px solid black"">","","",""
"","299.16499997489154","stimulus-presentation","102","192069","0.0-14.0-1.43","SS1604513347125","<img src='images/complex/6.png' width ='500' height = '500' style='border:5px solid black'>","40","mixed_simple_deviant","images/complex/13.png","images/complex/6.png","images/simple/14.png,images/simple/18.png,images/simple/7.png,images/simple/17.png,images/simple/12.png,images/simple/11.png,images/simple/9.png","0","null","","200","499.16499997489154","","","","background","",""
"","null","html-keyboard-response","103","193362","0.0-14.0-0.44","SS1604513347125","","null","","","","","","","","","","","","<img src=images/blank.png width =""500"" height = ""500"" style=""border:5px solid black"">","","",""
"","183.75000008381903","stimulus-presentation","104","193749","0.0-14.0-1.44","SS1604513347125","<img src='images/complex/6.png' width ='500' height = '500' style='border:5px solid black'>","40","mixed_simple_deviant","images/complex/13.png","images/complex/6.png","images/simple/14.png,images/simple/18.png,images/simple/7.png,images/simple/17.png,images/simple/12.png,images/simple/11.png,images/simple/9.png","0","null","","200","383.75000008381903","","","","background","",""
"","null","html-keyboard-response","105","194890","0.0-14.0-0.45","SS1604513347125","","null","","","","","","","","","","","","<img src=images/blank.png width =""500"" height = ""500"" style=""border:5px solid black"">","","",""
"","991.4049999788404","stimulus-presentation","106","196085","0.0-14.0-1.45","SS1604513347125","<img src='images/complex/13.png' width ='500' height = '500' style='border:5px solid black'>","40","mixed_simple_deviant","images/complex/13.png","images/complex/6.png","images/simple/14.png,images/simple/18.png,images/simple/7.png,images/simple/17.png,images/simple/12.png,images/simple/11.png,images/simple/9.png","0","null","","200","1191.4049999788404","yes","399.7599999420345","","target","",""
"","null","html-keyboard-response","107","197182","0.0-14.0-0.46","SS1604513347125","","null","","","","","","","","","","","","<img src=images/blank.png width =""500"" height = ""500"" style=""border:5px solid black"">","","",""
"","490.35999993793666","stimulus-presentation","108","197877","0.0-14.0-1.46","SS1604513347125","<img src='images/complex/6.png' width ='500' height = '500' style='border:5px solid black'>","40","mixed_simple_deviant","images/complex/13.png","images/complex/6.png","images/simple/14.png,images/simple/18.png,images/simple/7.png,images/simple/17.png,images/simple/12.png,images/simple/11.png,images/simple/9.png","0","null","","200","690.3599999379367","","","","background","",""
"","null","html-keyboard-response","109","198789","0.0-14.0-0.47","SS1604513347125","","null","","","","","","","","","","","","<img src=images/blank.png width =""500"" height = ""500"" style=""border:5px solid black"">","","",""
"","196.62499986588955","stimulus-presentation","110","199189","0.0-14.0-1.47","SS1604513347125","<img src='images/complex/6.png' width ='500' height = '500' style='border:5px solid black'>","40","mixed_simple_deviant","images/complex/13.png","images/complex/6.png","images/simple/14.png,images/simple/18.png,images/simple/7.png,images/simple/17.png,images/simple/12.png,images/simple/11.png,images/simple/9.png","0","null","","200","396.62499986588955","","","","background","",""
"","null","html-keyboard-response","111","200189","0.0-14.0-0.48","SS1604513347125","","null","","","","","","","","","","","","<img src=images/blank.png width =""500"" height = ""500"" style=""border:5px solid black"">","","",""
"","204.69500008039176","stimulus-presentation","112","200597","0.0-14.0-1.48","SS1604513347125","<img src='images/complex/6.png' width ='500' height = '500' style='border:5px solid black'>","40","mixed_simple_deviant","images/complex/13.png","images/complex/6.png","images/simple/14.png,images/simple/18.png,images/simple/7.png,images/simple/17.png,images/simple/12.png,images/simple/11.png,images/simple/9.png","0","null","","200","404.69500008039176","","","","background","",""
"[{""page_index"":0,""viewing_time"":389450}]","389450","task-instructions","113","590048","0.0-15.0","SS1604513347125","","","","","","","","","","","","","","","","",""
"[{""page_index"":0,""viewing_time"":1237.7200000919402},{""page_index"":1,""viewing_time"":2115.064999787137},{""page_index"":2,""viewing_time"":2100.9450000710785}]","5453.960000071675","instructions","114","595504","0.0-16.0","SS1604513347125","","","","","","","","","","","","","","","","",""
"","null","html-keyboard-response","115","596360","0.0-17.0-0.0","SS1604513347125","","null","","","","","","","","","","","","<img src=images/blank.png width =""500"" height = ""500"" style=""border:5px solid black"">","","",""
"","1137.3999998904765","stimulus-presentation","116","597701","0.0-17.0-1.0","SS1604513347125","<img src='images/complex/7.png' width ='500' height = '500' style='border:5px solid black'>","40","all_complex","images/complex/1.png","images/complex/4.png","images/complex/5.png,images/complex/9.png,images/complex/18.png,images/complex/3.png,images/complex/7.png,images/complex/15.png,images/complex/14.png","1","null","","200","1337.3999998904765","","","","deviant","",""
"","null","html-keyboard-response","117","598611","0.0-17.0-0.1","SS1604513347125","","null","","","","","","","","","","","","<img src=images/blank.png width =""500"" height = ""500"" style=""border:5px solid black"">","","",""
"","918.4499999973923","stimulus-presentation","118","599733","0.0-17.0-1.1","SS1604513347125","<img src='images/complex/4.png' width ='500' height = '500' style='border:5px solid black'>","40","all_complex","images/complex/1.png","images/complex/4.png","images/complex/5.png,images/complex/9.png,images/complex/18.png,images/complex/3.png,images/complex/7.png,images/complex/15.png,images/complex/14.png","1","null","","200","1118.4499999973923","","","","background","",""
"","null","html-keyboard-response","119","601034","0.0-17.0-0.2","SS1604513347125","","null","","","","","","","","","","","","<img src=images/blank.png width =""500"" height = ""500"" style=""border:5px solid black"">","","",""
"","1199.239999987185","stimulus-presentation","120","602437","0.0-17.0-1.2","SS1604513347125","<img src='images/complex/1.png' width ='500' height = '500' style='border:5px solid black'>","40","all_complex","images/complex/1.png","images/complex/4.png","images/complex/5.png,images/complex/9.png,images/complex/18.png,images/complex/3.png,images/complex/7.png,images/complex/15.png,images/complex/14.png","1","null","","200","1399.239999987185","yes","460.09499998763204","","target","",""
"","null","html-keyboard-response","121","603312","0.0-17.0-0.3","SS1604513347125","","null","","","","","","","","","","","","<img src=images/blank.png width =""500"" height = ""500"" style=""border:5px solid black"">","","",""
"","394.28999996744096","stimulus-presentation","122","603909","0.0-17.0-1.3","SS1604513347125","<img src='images/complex/4.png' width ='500' height = '500' style='border:5px solid black'>","40","all_complex","images/complex/1.png","images/complex/4.png","images/complex/5.png,images/complex/9.png,images/complex/18.png,images/complex/3.png,images/complex/7.png,images/complex/15.png,images/complex/14.png","1","null","","200","594.289999967441","","","","background","",""
"","null","html-keyboard-response","123","605009","0.0-17.0-0.4","SS1604513347125","","null","","","","","","","","","","","","<img src=images/blank.png width =""500"" height = ""500"" style=""border:5px solid black"">","","",""
"","361.1149999778718","stimulus-presentation","124","605573","0.0-17.0-1.4","SS1604513347125","<img src='images/complex/4.png' width ='500' height = '500' style='border:5px solid black'>","40","all_complex","images/complex/1.png","images/complex/4.png","images/complex/5.png,images/complex/9.png,images/complex/18.png,images/complex/3.png,images/complex/7.png,images/complex/15.png,images/complex/14.png","1","null","","200","561.1149999778718","","","","background","",""
"","null","html-keyboard-response","125","606577","0.0-17.0-0.5","SS1604513347125","","null","","","","","","","","","","","","<img src=images/blank.png width =""500"" height = ""500"" style=""border:5px solid black"">","","",""
"","1816.690000006929","stimulus-presentation","126","608597","0.0-17.0-1.5","SS1604513347125","<img src='images/complex/1.png' width ='500' height = '500' style='border:5px solid black'>","40","all_complex","images/complex/1.png","images/complex/4.png","images/complex/5.png,images/complex/9.png,images/complex/18.png,images/complex/3.png,images/complex/7.png,images/complex/15.png,images/complex/14.png","1","null","","200","2016.690000006929","yes","424.91000005975366","","target","",""
"","null","html-keyboard-response","127","609531","0.0-17.0-0.6","SS1604513347125","","null","","","","","","","","","","","","<img src=images/blank.png width =""500"" height = ""500"" style=""border:5px solid black"">","","",""
"","449.7350000310689","stimulus-presentation","128","610184","0.0-17.0-1.6","SS1604513347125","<img src='images/complex/5.png' width ='500' height = '500' style='border:5px solid black'>","40","all_complex","images/complex/1.png","images/complex/4.png","images/complex/5.png,images/complex/9.png,images/complex/18.png,images/complex/3.png,images/complex/7.png,images/complex/15.png,images/complex/14.png","1","null","","200","649.7350000310689","","","","deviant","",""
"","null","html-keyboard-response","129","611196","0.0-17.0-0.7","SS1604513347125","","null","","","","","","","","","","","","<img src=images/blank.png width =""500"" height = ""500"" style=""border:5px solid black"">","","",""
"","301.549999974668","stimulus-presentation","130","611701","0.0-17.0-1.7","SS1604513347125","<img src='images/complex/4.png' width ='500' height = '500' style='border:5px solid black'>","40","all_complex","images/complex/1.png","images/complex/4.png","images/complex/5.png,images/complex/9.png,images/complex/18.png,images/complex/3.png,images/complex/7.png,images/complex/15.png,images/complex/14.png","1","null","","200","501.549999974668","","","","background","",""
"","null","html-keyboard-response","131","612888","0.0-17.0-0.8","SS1604513347125","","null","","","","","","","","","","","","<img src=images/blank.png width =""500"" height = ""500"" style=""border:5px solid black"">","","",""
"","258.220000192523","stimulus-presentation","132","613349","0.0-17.0-1.8","SS1604513347125","<img src='images/complex/4.png' width ='500' height = '500' style='border:5px solid black'>","40","all_complex","images/complex/1.png","images/complex/4.png","images/complex/5.png,images/complex/9.png,images/complex/18.png,images/complex/3.png,images/complex/7.png,images/complex/15.png,images/complex/14.png","1","null","","200","458.220000192523","","","","background","",""
"","null","html-keyboard-response","133","614162","0.0-17.0-0.9","SS1604513347125","","null","","","","","","","","","","","","<img src=images/blank.png width =""500"" height = ""500"" style=""border:5px solid black"">","","",""
"","231.86499997973442","stimulus-presentation","134","614597","0.0-17.0-1.9","SS1604513347125","<img src='images/complex/4.png' width ='500' height = '500' style='border:5px solid black'>","40","all_complex","images/complex/1.png","images/complex/4.png","images/complex/5.png,images/complex/9.png,images/complex/18.png,images/complex/3.png,images/complex/7.png,images/complex/15.png,images/complex/14.png","1","null","","200","431.8649999797344","","","","background","",""
"","null","html-keyboard-response","135","615416","0.0-17.0-0.10","SS1604513347125","","null","","","","","","","","","","","","<img src=images/blank.png width =""500"" height = ""500"" style=""border:5px solid black"">","","",""
"","193.5799999628216","stimulus-presentation","136","615813","0.0-17.0-1.10","SS1604513347125","<img src='images/complex/4.png' width ='500' height = '500' style='border:5px solid black'>","40","all_complex","images/complex/1.png","images/complex/4.png","images/complex/5.png,images/complex/9.png,images/complex/18.png,images/complex/3.png,images/complex/7.png,images/complex/15.png,images/complex/14.png","1","null","","200","393.5799999628216","","","","background","",""
"","null","html-keyboard-response","137","616803","0.0-17.0-0.11","SS1604513347125","","null","","","","","","","","","","","","<img src=images/blank.png width =""500"" height = ""500"" style=""border:5px solid black"">","","",""
"","230.38499988615513","stimulus-presentation","138","617237","0.0-17.0-1.11","SS1604513347125","<img src='images/complex/4.png' width ='500' height = '500' style='border:5px solid black'>","40","all_complex","images/complex/1.png","images/complex/4.png","images/complex/5.png,images/complex/9.png,images/complex/18.png,images/complex/3.png,images/complex/7.png,images/complex/15.png,images/complex/14.png","1","null","","200","430.38499988615513","","","","background","",""
"","null","html-keyboard-response","139","618058","0.0-17.0-0.12","SS1604513347125","","null","","","","","","","","","","","","<img src=images/blank.png width =""500"" height = ""500"" style=""border:5px solid black"">","","",""
"","175.18999986350536","stimulus-presentation","140","618437","0.0-17.0-1.12","SS1604513347125","<img src='images/complex/4.png' width ='500' height = '500' style='border:5px solid black'>","40","all_complex","images/complex/1.png","images/complex/4.png","images/complex/5.png,images/complex/9.png,images/complex/18.png,images/complex/3.png,images/complex/7.png,images/complex/15.png,images/complex/14.png","1","null","","200","375.18999986350536","","","","background","",""
"","null","html-keyboard-response","141","619347","0.0-17.0-0.13","SS1604513347125","","null","","","","","","","","","","","","<img src=images/blank.png width =""500"" height = ""500"" style=""border:5px solid black"">","","",""
"","232.30999987572432","stimulus-presentation","142","619782","0.0-17.0-1.13","SS1604513347125","<img src='images/complex/4.png' width ='500' height = '500' style='border:5px solid black'>","40","all_complex","images/complex/1.png","images/complex/4.png","images/complex/5.png,images/complex/9.png,images/complex/18.png,images/complex/3.png,images/complex/7.png,images/complex/15.png,images/complex/14.png","1","null","","200","432.3099998757243","","","","background","",""
"","null","html-keyboard-response","143","620947","0.0-17.0-0.14","SS1604513347125","","null","","","","","","","","","","","","<img src=images/blank.png width =""500"" height = ""500"" style=""border:5px solid black"">","","",""
"","165.56499991565943","stimulus-presentation","144","621317","0.0-17.0-1.14","SS1604513347125","<img src='images/complex/4.png' width ='500' height = '500' style='border:5px solid black'>","40","all_complex","images/complex/1.png","images/complex/4.png","images/complex/5.png,images/complex/9.png,images/complex/18.png,images/complex/3.png,images/complex/7.png,images/complex/15.png,images/complex/14.png","1","null","","200","365.5649999156594","","","","background","",""
"","null","html-keyboard-response","145","622251","0.0-17.0-0.15","SS1604513347125","","null","","","","","","","","","","","","<img src=images/blank.png width =""500"" height = ""500"" style=""border:5px solid black"">","","",""
"","126.37499999254942","stimulus-presentation","146","622581","0.0-17.0-1.15","SS1604513347125","<img src='images/complex/4.png' width ='500' height = '500' style='border:5px solid black'>","40","all_complex","images/complex/1.png","images/complex/4.png","images/complex/5.png,images/complex/9.png,images/complex/18.png,images/complex/3.png,images/complex/7.png,images/complex/15.png,images/complex/14.png","1","null","","200","326.3749999925494","","","","background","",""
"","null","html-keyboard-response","147","623606","0.0-17.0-0.16","SS1604513347125","","null","","","","","","","","","","","","<img src=images/blank.png width =""500"" height = ""500"" style=""border:5px solid black"">","","",""
"","1603.2950000371784","stimulus-presentation","148","625413","0.0-17.0-1.16","SS1604513347125","<img src='images/complex/1.png' width ='500' height = '500' style='border:5px solid black'>","40","all_complex","images/complex/1.png","images/complex/4.png","images/complex/5.png,images/complex/9.png,images/complex/18.png,images/complex/3.png,images/complex/7.png,images/complex/15.png,images/complex/14.png","1","null","","200","1803.2950000371784","yes","275.5399998277426","","target","",""
"","null","html-keyboard-response","149","626274","0.0-17.0-0.17","SS1604513347125","","null","","","","","","","","","","","","<img src=images/blank.png width =""500"" height = ""500"" style=""border:5px solid black"">","","",""
"","360.05500005558133","stimulus-presentation","150","626837","0.0-17.0-1.17","SS1604513347125","<img src='images/complex/4.png' width ='500' height = '500' style='border:5px solid black'>","40","all_complex","images/complex/1.png","images/complex/4.png","images/complex/5.png,images/complex/9.png,images/complex/18.png,images/complex/3.png,images/complex/7.png,images/complex/15.png,images/complex/14.png","1","null","","200","560.0550000555813","","","","background","",""
"","null","html-keyboard-response","151","627974","0.0-17.0-0.18","SS1604513347125","","null","","","","","","","","","","","","<img src=images/blank.png width =""500"" height = ""500"" style=""border:5px solid black"">","","",""
"","1379.4599999673665","stimulus-presentation","152","629557","0.0-17.0-1.18","SS1604513347125","<img src='images/complex/9.png' width ='500' height = '500' style='border:5px solid black'>","40","all_complex","images/complex/1.png","images/complex/4.png","images/complex/5.png,images/complex/9.png,images/complex/18.png,images/complex/3.png,images/complex/7.png,images/complex/15.png,images/complex/14.png","1","null","","200","1579.4599999673665","","","","deviant","",""
"","null","html-keyboard-response","153","630502","0.0-17.0-0.19","SS1604513347125","","null","","","","","","","","","","","","<img src=images/blank.png width =""500"" height = ""500"" style=""border:5px solid black"">","","",""
"","243.2599999010563","stimulus-presentation","154","630949","0.0-17.0-1.19","SS1604513347125","<img src='images/complex/4.png' width ='500' height = '500' style='border:5px solid black'>","40","all_complex","images/complex/1.png","images/complex/4.png","images/complex/5.png,images/complex/9.png,images/complex/18.png,images/complex/3.png,images/complex/7.png,images/complex/15.png,images/complex/14.png","1","null","","200","443.2599999010563","","","","background","",""
"","null","html-keyboard-response","155","631781","0.0-17.0-0.20","SS1604513347125","","null","","","","","","","","","","","","<img src=images/blank.png width =""500"" height = ""500"" style=""border:5px solid black"">","","",""
"","1702.8799999970943","stimulus-presentation","156","633687","0.0-17.0-1.20","SS1604513347125","<img src='images/complex/1.png' width ='500' height = '500' style='border:5px solid black'>","40","all_complex","images/complex/1.png","images/complex/4.png","images/complex/5.png,images/complex/9.png,images/complex/18.png,images/complex/3.png,images/complex/7.png,images/complex/15.png,images/complex/14.png","1","null","","200","1902.8799999970943","yes","453.36499996483326","","target","",""
"","null","html-keyboard-response","157","634640","0.0-17.0-0.21","SS1604513347125","","null","","","","","","","","","","","","<img src=images/blank.png width =""500"" height = ""500"" style=""border:5px solid black"">","","",""
"","1481.7999999504536","stimulus-presentation","158","636325","0.0-17.0-1.21","SS1604513347125","<img src='images/complex/1.png' width ='500' height = '500' style='border:5px solid black'>","40","all_complex","images/complex/1.png","images/complex/4.png","images/complex/5.png,images/complex/9.png,images/complex/18.png,images/complex/3.png,images/complex/7.png,images/complex/15.png,images/complex/14.png","1","null","","200","1681.7999999504536","yes","890.1150000747293","","target","",""
"","null","html-keyboard-response","159","637382","0.0-17.0-0.22","SS1604513347125","","null","","","","","","","","","","","","<img src=images/blank.png width =""500"" height = ""500"" style=""border:5px solid black"">","","",""
"","466.9849998317659","stimulus-presentation","160","638053","0.0-17.0-1.22","SS1604513347125","<img src='images/complex/4.png' width ='500' height = '500' style='border:5px solid black'>","40","all_complex","images/complex/1.png","images/complex/4.png","images/complex/5.png,images/complex/9.png,images/complex/18.png,images/complex/3.png,images/complex/7.png,images/complex/15.png,images/complex/14.png","1","null","","200","666.9849998317659","","","","background","",""
"","null","html-keyboard-response","161","639256","0.0-17.0-0.23","SS1604513347125","","null","","","","","","","","","","","","<img src=images/blank.png width =""500"" height = ""500"" style=""border:5px solid black"">","","",""
"","241.18500016629696","stimulus-presentation","162","639701","0.0-17.0-1.23","SS1604513347125","<img src='images/complex/4.png' width ='500' height = '500' style='border:5px solid black'>","40","all_complex","images/complex/1.png","images/complex/4.png","images/complex/5.png,images/complex/9.png,images/complex/18.png,images/complex/3.png,images/complex/7.png,images/complex/15.png,images/complex/14.png","1","null","","200","441.18500016629696","","","","background","",""
"","null","html-keyboard-response","163","640553","0.0-17.0-0.24","SS1604513347125","","null","","","","","","","","","","","","<img src=images/blank.png width =""500"" height = ""500"" style=""border:5px solid black"">","","",""
"","257.13000004179776","stimulus-presentation","164","641013","0.0-17.0-1.24","SS1604513347125","<img src='images/complex/4.png' width ='500' height = '500' style='border:5px solid black'>","40","all_complex","images/complex/1.png","images/complex/4.png","images/complex/5.png,images/complex/9.png,images/complex/18.png,images/complex/3.png,images/complex/7.png,images/complex/15.png,images/complex/14.png","1","null","","200","457.13000004179776","","","","background","",""
"","null","html-keyboard-response","165","642006","0.0-17.0-0.25","SS1604513347125","","null","","","","","","","","","","","","<img src=images/blank.png width =""500"" height = ""500"" style=""border:5px solid black"">","","",""
"","1091.7849999386817","stimulus-presentation","166","643301","0.0-17.0-1.25","SS1604513347125","<img src='images/complex/1.png' width ='500' height = '500' style='border:5px solid black'>","40","all_complex","images/complex/1.png","images/complex/4.png","images/complex/5.png,images/complex/9.png,images/complex/18.png,images/complex/3.png,images/complex/7.png,images/complex/15.png,images/complex/14.png","1","null","","200","1291.7849999386817","yes","404.02500005438924","","target","",""
"","null","html-keyboard-response","167","644412","0.0-17.0-0.26","SS1604513347125","","null","","","","","","","","","","","","<img src=images/blank.png width =""500"" height = ""500"" style=""border:5px solid black"">","","",""
"","300.98499986343086","stimulus-presentation","168","644917","0.0-17.0-1.26","SS1604513347125","<img src='images/complex/4.png' width ='500' height = '500' style='border:5px solid black'>","40","all_complex","images/complex/1.png","images/complex/4.png","images/complex/5.png,images/complex/9.png,images/complex/18.png,images/complex/3.png,images/complex/7.png,images/complex/15.png,images/complex/14.png","1","null","","200","500.98499986343086","","","","background","",""
"","null","html-keyboard-response","169","646102","0.0-17.0-0.27","SS1604513347125","","null","","","","","","","","","","","","<img src=images/blank.png width =""500"" height = ""500"" style=""border:5px solid black"">","","",""
"","490.42499996721745","stimulus-presentation","170","646795","0.0-17.0-1.27","SS1604513347125","<img src='images/complex/4.png' width ='500' height = '500' style='border:5px solid black'>","40","all_complex","images/complex/1.png","images/complex/4.png","images/complex/5.png,images/complex/9.png,images/complex/18.png,images/complex/3.png,images/complex/7.png,images/complex/15.png,images/complex/14.png","1","null","","200","690.4249999672174","","","","background","",""
"","null","html-keyboard-response","171","647980","0.0-17.0-0.28","SS1604513347125","","null","","","","","","","","","","","","<img src=images/blank.png width =""500"" height = ""500"" style=""border:5px solid black"">","","",""
"","669.6150000207126","stimulus-presentation","172","648853","0.0-17.0-1.28","SS1604513347125","<img src='images/complex/15.png' width ='500' height = '500' style='border:5px solid black'>","40","all_complex","images/complex/1.png","images/complex/4.png","images/complex/5.png,images/complex/9.png,images/complex/18.png,images/complex/3.png,images/complex/7.png,images/complex/15.png,images/complex/14.png","1","null","","200","869.6150000207126","","","","deviant","",""
"","null","html-keyboard-response","173","649732","0.0-17.0-0.29","SS1604513347125","","null","","","","","","","","","","","","<img src=images/blank.png width =""500"" height = ""500"" style=""border:5px solid black"">","","",""
"","326.2150001246482","stimulus-presentation","174","650261","0.0-17.0-1.29","SS1604513347125","<img src='images/complex/4.png' width ='500' height = '500' style='border:5px solid black'>","40","all_complex","images/complex/1.png","images/complex/4.png","images/complex/5.png,images/complex/9.png,images/complex/18.png,images/complex/3.png,images/complex/7.png,images/complex/15.png,images/complex/14.png","1","null","","200","526.2150001246482","","","","background","",""
"","null","html-keyboard-response","175","651325","0.0-17.0-0.30","SS1604513347125","","null","","","","","","","","","","","","<img src=images/blank.png width =""500"" height = ""500"" style=""border:5px solid black"">","","",""
"","219.49999989010394","stimulus-presentation","176","651749","0.0-17.0-1.30","SS1604513347125","<img src='images/complex/4.png' width ='500' height = '500' style='border:5px solid black'>","40","all_complex","images/complex/1.png","images/complex/4.png","images/complex/5.png,images/complex/9.png,images/complex/18.png,images/complex/3.png,images/complex/7.png,images/complex/15.png,images/complex/14.png","1","null","","200","419.49999989010394","","","","background","",""
"","null","html-keyboard-response","177","652559","0.0-17.0-0.31","SS1604513347125","","null","","","","","","","","","","","","<img src=images/blank.png width =""500"" height = ""500"" style=""border:5px solid black"">","","",""
"","217.48499991372228","stimulus-presentation","178","652980","0.0-17.0-1.31","SS1604513347125","<img src='images/complex/4.png' width ='500' height = '500' style='border:5px solid black'>","40","all_complex","images/complex/1.png","images/complex/4.png","images/complex/5.png,images/complex/9.png,images/complex/18.png,images/complex/3.png,images/complex/7.png,images/complex/15.png,images/complex/14.png","1","null","","200","417.4849999137223","","","","background","",""
"","null","html-keyboard-response","179","653990","0.0-17.0-0.32","SS1604513347125","","null","","","","","","","","","","","","<img src=images/blank.png width =""500"" height = ""500"" style=""border:5px solid black"">","","",""
"","198.45000002533197","stimulus-presentation","180","654391","0.0-17.0-1.32","SS1604513347125","<img src='images/complex/4.png' width ='500' height = '500' style='border:5px solid black'>","40","all_complex","images/complex/1.png","images/complex/4.png","images/complex/5.png,images/complex/9.png,images/complex/18.png,images/complex/3.png,images/complex/7.png,images/complex/15.png,images/complex/14.png","1","null","","200","398.450000025332","","","","background","",""
"","null","html-keyboard-response","181","655483","0.0-17.0-0.33","SS1604513347125","","null","","","","","","","","","","","","<img src=images/blank.png width =""500"" height = ""500"" style=""border:5px solid black"">","","",""
"","399.32000008411705","stimulus-presentation","182","656085","0.0-17.0-1.33","SS1604513347125","<img src='images/complex/14.png' width ='500' height = '500' style='border:5px solid black'>","40","all_complex","images/complex/1.png","images/complex/4.png","images/complex/5.png,images/complex/9.png,images/complex/18.png,images/complex/3.png,images/complex/7.png,images/complex/15.png,images/complex/14.png","1","null","","200","599.320000084117","","","","deviant","",""
"","null","html-keyboard-response","183","656991","0.0-17.0-0.34","SS1604513347125","","null","","","","","","","","","","","","<img src=images/blank.png width =""500"" height = ""500"" style=""border:5px solid black"">","","",""
"","251.11000007018447","stimulus-presentation","184","657445","0.0-17.0-1.34","SS1604513347125","<img src='images/complex/4.png' width ='500' height = '500' style='border:5px solid black'>","40","all_complex","images/complex/1.png","images/complex/4.png","images/complex/5.png,images/complex/9.png,images/complex/18.png,images/complex/3.png,images/complex/7.png,images/complex/15.png,images/complex/14.png","1","null","","200","451.11000007018447","","","","background","",""
"","null","html-keyboard-response","185","658703","0.0-17.0-0.35","SS1604513347125","","null","","","","","","","","","","","","<img src=images/blank.png width =""500"" height = ""500"" style=""border:5px solid black"">","","",""
"","334.874999942258","stimulus-presentation","186","659241","0.0-17.0-1.35","SS1604513347125","<img src='images/complex/4.png' width ='500' height = '500' style='border:5px solid black'>","40","all_complex","images/complex/1.png","images/complex/4.png","images/complex/5.png,images/complex/9.png,images/complex/18.png,images/complex/3.png,images/complex/7.png,images/complex/15.png,images/complex/14.png","1","null","","200","534.874999942258","","","","background","",""
"","null","html-keyboard-response","187","660252","0.0-17.0-0.36","SS1604513347125","","null","","","","","","","","","","","","<img src=images/blank.png width =""500"" height = ""500"" style=""border:5px solid black"">","","",""
"","206.1149999499321","stimulus-presentation","188","660661","0.0-17.0-1.36","SS1604513347125","<img src='images/complex/4.png' width ='500' height = '500' style='border:5px solid black'>","40","all_complex","images/complex/1.png","images/complex/4.png","images/complex/5.png,images/complex/9.png,images/complex/18.png,images/complex/3.png,images/complex/7.png,images/complex/15.png,images/complex/14.png","1","null","","200","406.1149999499321","","","","background","",""
"","null","html-keyboard-response","189","661489","0.0-17.0-0.37","SS1604513347125","","null","","","","","","","","","","","","<img src=images/blank.png width =""500"" height = ""500"" style=""border:5px solid black"">","","",""
"","491.6650000959635","stimulus-presentation","190","662184","0.0-17.0-1.37","SS1604513347125","<img src='images/complex/3.png' width ='500' height = '500' style='border:5px solid black'>","40","all_complex","images/complex/1.png","images/complex/4.png","images/complex/5.png,images/complex/9.png,images/complex/18.png,images/complex/3.png,images/complex/7.png,images/complex/15.png,images/complex/14.png","1","null","","200","691.6650000959635","","","","deviant","",""
"","null","html-keyboard-response","191","663021","0.0-17.0-0.38","SS1604513347125","","null","","","","","","","","","","","","<img src=images/blank.png width =""500"" height = ""500"" style=""border:5px solid black"">","","",""
"","268.70999997481704","stimulus-presentation","192","663493","0.0-17.0-1.38","SS1604513347125","<img src='images/complex/4.png' width ='500' height = '500' style='border:5px solid black'>","40","all_complex","images/complex/1.png","images/complex/4.png","images/complex/5.png,images/complex/9.png,images/complex/18.png,images/complex/3.png,images/complex/7.png,images/complex/15.png,images/complex/14.png","1","null","","200","468.70999997481704","","","","background","",""
"","null","html-keyboard-response","193","664424","0.0-17.0-0.39","SS1604513347125","","null","","","","","","","","","","","","<img src=images/blank.png width =""500"" height = ""500"" style=""border:5px solid black"">","","",""
"","225.74500017799437","stimulus-presentation","194","664853","0.0-17.0-1.39","SS1604513347125","<img src='images/complex/4.png' width ='500' height = '500' style='border:5px solid black'>","40","all_complex","images/complex/1.png","images/complex/4.png","images/complex/5.png,images/complex/9.png,images/complex/18.png,images/complex/3.png,images/complex/7.png,images/complex/15.png,images/complex/14.png","1","null","","200","425.74500017799437","","","","background","",""
"","null","html-keyboard-response","195","665684","0.0-17.0-0.40","SS1604513347125","","null","","","","","","","","","","","","<img src=images/blank.png width =""500"" height = ""500"" style=""border:5px solid black"">","","",""
"","358.1100001465529","stimulus-presentation","196","666245","0.0-17.0-1.40","SS1604513347125","<img src='images/complex/4.png' width ='500' height = '500' style='border:5px solid black'>","40","all_complex","images/complex/1.png","images/complex/4.png","images/complex/5.png,images/complex/9.png,images/complex/18.png,images/complex/3.png,images/complex/7.png,images/complex/15.png,images/complex/14.png","1","null","","200","558.1100001465529","","","","background","",""
"","null","html-keyboard-response","197","667050","0.0-17.0-0.41","SS1604513347125","","null","","","","","","","","","","","","<img src=images/blank.png width =""500"" height = ""500"" style=""border:5px solid black"">","","",""
"","240.22500007413328","stimulus-presentation","198","667493","0.0-17.0-1.41","SS1604513347125","<img src='images/complex/4.png' width ='500' height = '500' style='border:5px solid black'>","40","all_complex","images/complex/1.png","images/complex/4.png","images/complex/5.png,images/complex/9.png,images/complex/18.png,images/complex/3.png,images/complex/7.png,images/complex/15.png,images/complex/14.png","1","null","","200","440.2250000741333","","","","background","",""
"","null","html-keyboard-response","199","668349","0.0-17.0-0.42","SS1604513347125","","null","","","","","","","","","","","","<img src=images/blank.png width =""500"" height = ""500"" style=""border:5px solid black"">","","",""
"","444.8549998924136","stimulus-presentation","200","668997","0.0-17.0-1.42","SS1604513347125","<img src='images/complex/18.png' width ='500' height = '500' style='border:5px solid black'>","40","all_complex","images/complex/1.png","images/complex/4.png","images/complex/5.png,images/complex/9.png,images/complex/18.png,images/complex/3.png,images/complex/7.png,images/complex/15.png,images/complex/14.png","1","null","","200","644.8549998924136","","","","deviant","",""
"","null","html-keyboard-response","201","669833","0.0-17.0-0.43","SS1604513347125","","null","","","","","","","","","","","","<img src=images/blank.png width =""500"" height = ""500"" style=""border:5px solid black"">","","",""
"","240.50500011071563","stimulus-presentation","202","670277","0.0-17.0-1.43","SS1604513347125","<img src='images/complex/4.png' width ='500' height = '500' style='border:5px solid black'>","40","all_complex","images/complex/1.png","images/complex/4.png","images/complex/5.png,images/complex/9.png,images/complex/18.png,images/complex/3.png,images/complex/7.png,images/complex/15.png,images/complex/14.png","1","null","","200","440.5050001107156","","","","background","",""
"","null","html-keyboard-response","203","671279","0.0-17.0-0.44","SS1604513347125","","null","","","","","","","","","","","","<img src=images/blank.png width =""500"" height = ""500"" style=""border:5px solid black"">","","",""
"","171.22499994002283","stimulus-presentation","204","671653","0.0-17.0-1.44","SS1604513347125","<img src='images/complex/4.png' width ='500' height = '500' style='border:5px solid black'>","40","all_complex","images/complex/1.png","images/complex/4.png","images/complex/5.png,images/complex/9.png,images/complex/18.png,images/complex/3.png,images/complex/7.png,images/complex/15.png,images/complex/14.png","1","null","","200","371.2249999400228","","","","background","",""
"","null","html-keyboard-response","205","672733","0.0-17.0-0.45","SS1604513347125","","null","","","","","","","","","","","","<img src=images/blank.png width =""500"" height = ""500"" style=""border:5px solid black"">","","",""
"","1020.9199998062104","stimulus-presentation","206","673957","0.0-17.0-1.45","SS1604513347125","<img src='images/complex/1.png' width ='500' height = '500' style='border:5px solid black'>","40","all_complex","images/complex/1.png","images/complex/4.png","images/complex/5.png,images/complex/9.png,images/complex/18.png,images/complex/3.png,images/complex/7.png,images/complex/15.png,images/complex/14.png","1","null","","200","1220.9199998062104","yes","301.4899999834597","","target","",""
"","null","html-keyboard-response","207","674894","0.0-17.0-0.46","SS1604513347125","","null","","","","","","","","","","","","<img src=images/blank.png width =""500"" height = ""500"" style=""border:5px solid black"">","","",""
"","219.48500000871718","stimulus-presentation","208","675317","0.0-17.0-1.46","SS1604513347125","<img src='images/complex/4.png' width ='500' height = '500' style='border:5px solid black'>","40","all_complex","images/complex/1.png","images/complex/4.png","images/complex/5.png,images/complex/9.png,images/complex/18.png,images/complex/3.png,images/complex/7.png,images/complex/15.png,images/complex/14.png","1","null","","200","419.4850000087172","","","","background","",""
"","null","html-keyboard-response","209","676151","0.0-17.0-0.47","SS1604513347125","","null","","","","","","","","","","","","<img src=images/blank.png width =""500"" height = ""500"" style=""border:5px solid black"">","","",""
"","163.15499995835125","stimulus-presentation","210","676517","0.0-17.0-1.47","SS1604513347125","<img src='images/complex/4.png' width ='500' height = '500' style='border:5px solid black'>","40","all_complex","images/complex/1.png","images/complex/4.png","images/complex/5.png,images/complex/9.png,images/complex/18.png,images/complex/3.png,images/complex/7.png,images/complex/15.png,images/complex/14.png","1","null","","200","363.15499995835125","","","","background","",""
"","null","html-keyboard-response","211","677394","0.0-17.0-0.48","SS1604513347125","","null","","","","","","","","","","","","<img src=images/blank.png width =""500"" height = ""500"" style=""border:5px solid black"">","","",""
"","152.2150000091642","stimulus-presentation","212","677749","0.0-17.0-1.48","SS1604513347125","<img src='images/complex/4.png' width ='500' height = '500' style='border:5px solid black'>","40","all_complex","images/complex/1.png","images/complex/4.png","images/complex/5.png,images/complex/9.png,images/complex/18.png,images/complex/3.png,images/complex/7.png,images/complex/15.png,images/complex/14.png","1","null","","200","352.2150000091642","","","","background","",""
"[{""page_index"":0,""viewing_time"":2121}]","2121","task-instructions","213","679872","0.0-18.0","SS1604513347125","","","","","","","","","","","","","","","","",""
"[{""page_index"":0,""viewing_time"":556.9800001103431},{""page_index"":1,""viewing_time"":4010.0799999199808},{""page_index"":2,""viewing_time"":1093.000000109896}]","5660.295000066981","instructions","214","685535","0.0-19.0","SS1604513347125","","","","","","","","","","","","","","","","",""
"","null","html-keyboard-response","215","686730","0.0-20.0-0.0","SS1604513347125","","null","","","","","","","","","","","","<img src=images/blank.png width =""500"" height = ""500"" style=""border:5px solid black"">","","",""
"","911.5949999541044","stimulus-presentation","216","687845","0.0-20.0-1.0","SS1604513347125","<img src='images/simple/2.png' width ='500' height = '500' style='border:5px solid black'>","40","all_simple","images/simple/6.png","images/simple/2.png","images/simple/1.png,images/simple/13.png,images/simple/10.png,images/simple/16.png,images/simple/3.png,images/simple/15.png,images/simple/8.png","2","null","","200","1111.5949999541044","","","","background","",""
"","null","html-keyboard-response","217","688944","0.0-20.0-0.1","SS1604513347125","","null","","","","","","","","","","","","<img src=images/blank.png width =""500"" height = ""500"" style=""border:5px solid black"">","","",""
"","105.05500016734004","stimulus-presentation","218","689253","0.0-20.0-1.1","SS1604513347125","<img src='images/simple/2.png' width ='500' height = '500' style='border:5px solid black'>","40","all_simple","images/simple/6.png","images/simple/2.png","images/simple/1.png,images/simple/13.png,images/simple/10.png,images/simple/16.png,images/simple/3.png,images/simple/15.png,images/simple/8.png","2","null","","200","305.05500016734004","","","","background","",""
"","null","html-keyboard-response","219","690399","0.0-20.0-0.2","SS1604513347125","","null","","","","","","","","","","","","<img src=images/blank.png width =""500"" height = ""500"" style=""border:5px solid black"">","","",""
"","281.36000013910234","stimulus-presentation","220","690885","0.0-20.0-1.2","SS1604513347125","<img src='images/simple/16.png' width ='500' height = '500' style='border:5px solid black'>","40","all_simple","images/simple/6.png","images/simple/2.png","images/simple/1.png,images/simple/13.png,images/simple/10.png,images/simple/16.png,images/simple/3.png,images/simple/15.png,images/simple/8.png","2","null","","200","481.36000013910234","","","","deviant","",""
"","null","html-keyboard-response","221","691932","0.0-20.0-0.3","SS1604513347125","","null","","","","","","","","","","","","<img src=images/blank.png width =""500"" height = ""500"" style=""border:5px solid black"">","","",""
"","1484.9300000350922","stimulus-presentation","222","693621","0.0-20.0-1.3","SS1604513347125","<img src='images/simple/6.png' width ='500' height = '500' style='border:5px solid black'>","40","all_simple","images/simple/6.png","images/simple/2.png","images/simple/1.png,images/simple/13.png,images/simple/10.png,images/simple/16.png,images/simple/3.png,images/simple/15.png,images/simple/8.png","2","null","","200","1684.9300000350922","yes","669.2250000778586","","target","",""
"","null","html-keyboard-response","223","694725","0.0-20.0-0.4","SS1604513347125","","null","","","","","","","","","","","","<img src=images/blank.png width =""500"" height = ""500"" style=""border:5px solid black"">","","",""
"","324.04000009410083","stimulus-presentation","224","695253","0.0-20.0-1.4","SS1604513347125","<img src='images/simple/2.png' width ='500' height = '500' style='border:5px solid black'>","40","all_simple","images/simple/6.png","images/simple/2.png","images/simple/1.png,images/simple/13.png,images/simple/10.png,images/simple/16.png,images/simple/3.png,images/simple/15.png,images/simple/8.png","2","null","","200","524.0400000941008","","","","background","",""
"","null","html-keyboard-response","225","696345","0.0-20.0-0.5","SS1604513347125","","null","","","","","","","","","","","","<img src=images/blank.png width =""500"" height = ""500"" style=""border:5px solid black"">","","",""
"","1007.8150001354516","stimulus-presentation","226","697557","0.0-20.0-1.5","SS1604513347125","<img src='images/simple/6.png' width ='500' height = '500' style='border:5px solid black'>","40","all_simple","images/simple/6.png","images/simple/2.png","images/simple/1.png,images/simple/13.png,images/simple/10.png,images/simple/16.png,images/simple/3.png,images/simple/15.png,images/simple/8.png","2","null","","200","1207.8150001354516","yes","512.055000057444","","target","",""
"","null","html-keyboard-response","227","698363","0.0-20.0-0.6","SS1604513347125","","null","","","","","","","","","","","","<img src=images/blank.png width =""500"" height = ""500"" style=""border:5px solid black"">","","",""
"","1102.0549999084324","stimulus-presentation","228","699669","0.0-20.0-1.6","SS1604513347125","<img src='images/simple/2.png' width ='500' height = '500' style='border:5px solid black'>","40","all_simple","images/simple/6.png","images/simple/2.png","images/simple/1.png,images/simple/13.png,images/simple/10.png,images/simple/16.png,images/simple/3.png,images/simple/15.png,images/simple/8.png","2","null","","200","1302.0549999084324","","","","background","",""
"","null","html-keyboard-response","229","700505","0.0-20.0-0.7","SS1604513347125","","null","","","","","","","","","","","","<img src=images/blank.png width =""500"" height = ""500"" style=""border:5px solid black"">","","",""
"","288.1449998822063","stimulus-presentation","230","700997","0.0-20.0-1.7","SS1604513347125","<img src='images/simple/8.png' width ='500' height = '500' style='border:5px solid black'>","40","all_simple","images/simple/6.png","images/simple/2.png","images/simple/1.png,images/simple/13.png,images/simple/10.png,images/simple/16.png,images/simple/3.png,images/simple/15.png,images/simple/8.png","2","null","","200","488.1449998822063","","","","deviant","",""
"","null","html-keyboard-response","231","702151","0.0-20.0-0.8","SS1604513347125","","null","","","","","","","","","","","","<img src=images/blank.png width =""500"" height = ""500"" style=""border:5px solid black"">","","",""
"","194.1150000784546","stimulus-presentation","232","702549","0.0-20.0-1.8","SS1604513347125","<img src='images/simple/2.png' width ='500' height = '500' style='border:5px solid black'>","40","all_simple","images/simple/6.png","images/simple/2.png","images/simple/1.png,images/simple/13.png,images/simple/10.png,images/simple/16.png,images/simple/3.png,images/simple/15.png,images/simple/8.png","2","null","","200","394.1150000784546","","","","background","",""
"","null","html-keyboard-response","233","703692","0.0-20.0-0.9","SS1604513347125","","null","","","","","","","","","","","","<img src=images/blank.png width =""500"" height = ""500"" style=""border:5px solid black"">","","",""
"","525.6250000093132","stimulus-presentation","234","704421","0.0-20.0-1.9","SS1604513347125","<img src='images/simple/2.png' width ='500' height = '500' style='border:5px solid black'>","40","all_simple","images/simple/6.png","images/simple/2.png","images/simple/1.png,images/simple/13.png,images/simple/10.png,images/simple/16.png,images/simple/3.png,images/simple/15.png,images/simple/8.png","2","null","","200","725.6250000093132","","","","background","",""
"","null","html-keyboard-response","235","705581","0.0-20.0-0.10","SS1604513347125","","null","","","","","","","","","","","","<img src=images/blank.png width =""500"" height = ""500"" style=""border:5px solid black"">","","",""
"","428.1300001312047","stimulus-presentation","236","706213","0.0-20.0-1.10","SS1604513347125","<img src='images/simple/2.png' width ='500' height = '500' style='border:5px solid black'>","40","all_simple","images/simple/6.png","images/simple/2.png","images/simple/1.png,images/simple/13.png,images/simple/10.png,images/simple/16.png,images/simple/3.png,images/simple/15.png,images/simple/8.png","2","null","","200","628.1300001312047","","","","background","",""
"","null","html-keyboard-response","237","707053","0.0-20.0-0.11","SS1604513347125","","null","","","","","","","","","","","","<img src=images/blank.png width =""500"" height = ""500"" style=""border:5px solid black"">","","",""
"","267.7599999587983","stimulus-presentation","238","707525","0.0-20.0-1.11","SS1604513347125","<img src='images/simple/2.png' width ='500' height = '500' style='border:5px solid black'>","40","all_simple","images/simple/6.png","images/simple/2.png","images/simple/1.png,images/simple/13.png,images/simple/10.png,images/simple/16.png,images/simple/3.png,images/simple/15.png,images/simple/8.png","2","null","","200","467.7599999587983","","","","background","",""
"","null","html-keyboard-response","239","708714","0.0-20.0-0.12","SS1604513347125","","null","","","","","","","","","","","","<img src=images/blank.png width =""500"" height = ""500"" style=""border:5px solid black"">","","",""
"","1982.2350000031292","stimulus-presentation","240","710901","0.0-20.0-1.12","SS1604513347125","<img src='images/simple/2.png' width ='500' height = '500' style='border:5px solid black'>","40","all_simple","images/simple/6.png","images/simple/2.png","images/simple/1.png,images/simple/13.png,images/simple/10.png,images/simple/16.png,images/simple/3.png,images/simple/15.png,images/simple/8.png","2","null","","200","2182.2350000031292","","","","background","",""
"","null","html-keyboard-response","241","711996","0.0-20.0-0.13","SS1604513347125","","null","","","","","","","","","","","","<img src=images/blank.png width =""500"" height = ""500"" style=""border:5px solid black"">","","",""
"","203.2599998638034","stimulus-presentation","242","712405","0.0-20.0-1.13","SS1604513347125","<img src='images/simple/2.png' width ='500' height = '500' style='border:5px solid black'>","40","all_simple","images/simple/6.png","images/simple/2.png","images/simple/1.png,images/simple/13.png,images/simple/10.png,images/simple/16.png,images/simple/3.png,images/simple/15.png,images/simple/8.png","2","null","","200","403.2599998638034","","","","background","",""
"","null","html-keyboard-response","243","713388","0.0-20.0-0.14","SS1604513347125","","null","","","","","","","","","","","","<img src=images/blank.png width =""500"" height = ""500"" style=""border:5px solid black"">","","",""
"","428.7749999202788","stimulus-presentation","244","714021","0.0-20.0-1.14","SS1604513347125","<img src='images/simple/2.png' width ='500' height = '500' style='border:5px solid black'>","40","all_simple","images/simple/6.png","images/simple/2.png","images/simple/1.png,images/simple/13.png,images/simple/10.png,images/simple/16.png,images/simple/3.png,images/simple/15.png,images/simple/8.png","2","null","","200","628.7749999202788","","","","background","",""
"","null","html-keyboard-response","245","715140","0.0-20.0-0.15","SS1604513347125","","null","","","","","","","","","","","","<img src=images/blank.png width =""500"" height = ""500"" style=""border:5px solid black"">","","",""
"","308.3899999037385","stimulus-presentation","246","715653","0.0-20.0-1.15","SS1604513347125","<img src='images/simple/2.png' width ='500' height = '500' style='border:5px solid black'>","40","all_simple","images/simple/6.png","images/simple/2.png","images/simple/1.png,images/simple/13.png,images/simple/10.png,images/simple/16.png,images/simple/3.png,images/simple/15.png,images/simple/8.png","2","null","","200","508.3899999037385","","","","background","",""
"","null","html-keyboard-response","247","716944","0.0-20.0-0.16","SS1604513347125","","null","","","","","","","","","","","","<img src=images/blank.png width =""500"" height = ""500"" style=""border:5px solid black"">","","",""
"","152.74999989196658","stimulus-presentation","248","717301","0.0-20.0-1.16","SS1604513347125","<img src='images/simple/2.png' width ='500' height = '500' style='border:5px solid black'>","40","all_simple","images/simple/6.png","images/simple/2.png","images/simple/1.png,images/simple/13.png,images/simple/10.png,images/simple/16.png,images/simple/3.png,images/simple/15.png,images/simple/8.png","2","null","","200","352.7499998919666","","","","background","",""
"","null","html-keyboard-response","249","718551","0.0-20.0-0.17","SS1604513347125","","null","","","","","","","","","","","","<img src=images/blank.png width =""500"" height = ""500"" style=""border:5px solid black"">","","",""
"","162.35000011511147","stimulus-presentation","250","718917","0.0-20.0-1.17","SS1604513347125","<img src='images/simple/2.png' width ='500' height = '500' style='border:5px solid black'>","40","all_simple","images/simple/6.png","images/simple/2.png","images/simple/1.png,images/simple/13.png,images/simple/10.png,images/simple/16.png,images/simple/3.png,images/simple/15.png,images/simple/8.png","2","null","","200","362.35000011511147","","","","background","",""
"","null","html-keyboard-response","251","719902","0.0-20.0-0.18","SS1604513347125","","null","","","","","","","","","","","","<img src=images/blank.png width =""500"" height = ""500"" style=""border:5px solid black"">","","",""
"","1132.1950000710785","stimulus-presentation","252","721237","0.0-20.0-1.18","SS1604513347125","<img src='images/simple/6.png' width ='500' height = '500' style='border:5px solid black'>","40","all_simple","images/simple/6.png","images/simple/2.png","images/simple/1.png,images/simple/13.png,images/simple/10.png,images/simple/16.png,images/simple/3.png,images/simple/15.png,images/simple/8.png","2","null","","200","1332.1950000710785","yes","380.35500003024936","","target","",""
"","null","html-keyboard-response","253","722271","0.0-20.0-0.19","SS1604513347125","","null","","","","","","","","","","","","<img src=images/blank.png width =""500"" height = ""500"" style=""border:5px solid black"">","","",""
"","250.32499991357327","stimulus-presentation","254","722725","0.0-20.0-1.19","SS1604513347125","<img src='images/simple/2.png' width ='500' height = '500' style='border:5px solid black'>","40","all_simple","images/simple/6.png","images/simple/2.png","images/simple/1.png,images/simple/13.png,images/simple/10.png,images/simple/16.png,images/simple/3.png,images/simple/15.png,images/simple/8.png","2","null","","200","450.32499991357327","","","","background","",""
"","null","html-keyboard-response","255","723908","0.0-20.0-0.20","SS1604513347125","","null","","","","","","","","","","","","<img src=images/blank.png width =""500"" height = ""500"" style=""border:5px solid black"">","","",""
"","852.7249998878688","stimulus-presentation","256","724965","0.0-20.0-1.20","SS1604513347125","<img src='images/simple/15.png' width ='500' height = '500' style='border:5px solid black'>","40","all_simple","images/simple/6.png","images/simple/2.png","images/simple/1.png,images/simple/13.png,images/simple/10.png,images/simple/16.png,images/simple/3.png,images/simple/15.png,images/simple/8.png","2","null","","200","1052.7249998878688","","","","deviant","",""
"","null","html-keyboard-response","257","726147","0.0-20.0-0.21","SS1604513347125","","null","","","","","","","","","","","","<img src=images/blank.png width =""500"" height = ""500"" style=""border:5px solid black"">","","",""
"","214.01500003412366","stimulus-presentation","258","726565","0.0-20.0-1.21","SS1604513347125","<img src='images/simple/2.png' width ='500' height = '500' style='border:5px solid black'>","40","all_simple","images/simple/6.png","images/simple/2.png","images/simple/1.png,images/simple/13.png,images/simple/10.png,images/simple/16.png,images/simple/3.png,images/simple/15.png,images/simple/8.png","2","null","","200","414.01500003412366","","","","background","",""
"","null","html-keyboard-response","259","727595","0.0-20.0-0.22","SS1604513347125","","null","","","","","","","","","","","","<img src=images/blank.png width =""500"" height = ""500"" style=""border:5px solid black"">","","",""
"","222.2599999513477","stimulus-presentation","260","728021","0.0-20.0-1.22","SS1604513347125","<img src='images/simple/2.png' width ='500' height = '500' style='border:5px solid black'>","40","all_simple","images/simple/6.png","images/simple/2.png","images/simple/1.png,images/simple/13.png,images/simple/10.png,images/simple/16.png,images/simple/3.png,images/simple/15.png,images/simple/8.png","2","null","","200","422.2599999513477","","","","background","",""
"","null","html-keyboard-response","261","729250","0.0-20.0-0.23","SS1604513347125","","null","","","","","","","","","","","","<img src=images/blank.png width =""500"" height = ""500"" style=""border:5px solid black"">","","",""
"","150.69500007666647","stimulus-presentation","262","729605","0.0-20.0-1.23","SS1604513347125","<img src='images/simple/2.png' width ='500' height = '500' style='border:5px solid black'>","40","all_simple","images/simple/6.png","images/simple/2.png","images/simple/1.png,images/simple/13.png,images/simple/10.png,images/simple/16.png,images/simple/3.png,images/simple/15.png,images/simple/8.png","2","null","","200","350.6950000766665","","","","background","",""
"","null","html-keyboard-response","263","730840","0.0-20.0-0.24","SS1604513347125","","null","","","","","","","","","","","","<img src=images/blank.png width =""500"" height = ""500"" style=""border:5px solid black"">","","",""
"","133.1450000870973","stimulus-presentation","264","731176","0.0-20.0-1.24","SS1604513347125","<img src='images/simple/2.png' width ='500' height = '500' style='border:5px solid black'>","40","all_simple","images/simple/6.png","images/simple/2.png","images/simple/1.png,images/simple/13.png,images/simple/10.png,images/simple/16.png,images/simple/3.png,images/simple/15.png,images/simple/8.png","2","null","","200","333.1450000870973","","","","background","",""
"","null","html-keyboard-response","265","732059","0.0-20.0-0.25","SS1604513347125","","null","","","","","","","","","","","","<img src=images/blank.png width =""500"" height = ""500"" style=""border:5px solid black"">","","",""
"","520.249999826774","stimulus-presentation","266","732782","0.0-20.0-1.25","SS1604513347125","<img src='images/simple/13.png' width ='500' height = '500' style='border:5px solid black'>","40","all_simple","images/simple/6.png","images/simple/2.png","images/simple/1.png,images/simple/13.png,images/simple/10.png,images/simple/16.png,images/simple/3.png,images/simple/15.png,images/simple/8.png","2","null","","200","720.249999826774","","","","deviant","",""
"","null","html-keyboard-response","267","733639","0.0-20.0-0.26","SS1604513347125","","null","","","","","","","","","","","","<img src=images/blank.png width =""500"" height = ""500"" style=""border:5px solid black"">","","",""
"","210.0849999114871","stimulus-presentation","268","734053","0.0-20.0-1.26","SS1604513347125","<img src='images/simple/2.png' width ='500' height = '500' style='border:5px solid black'>","40","all_simple","images/simple/6.png","images/simple/2.png","images/simple/1.png,images/simple/13.png,images/simple/10.png,images/simple/16.png,images/simple/3.png,images/simple/15.png,images/simple/8.png","2","null","","200","410.0849999114871","","","","background","",""
"","null","html-keyboard-response","269","735210","0.0-20.0-0.27","SS1604513347125","","null","","","","","","","","","","","","<img src=images/blank.png width =""500"" height = ""500"" style=""border:5px solid black"">","","",""
"","152.26999996230006","stimulus-presentation","270","735565","0.0-20.0-1.27","SS1604513347125","<img src='images/simple/2.png' width ='500' height = '500' style='border:5px solid black'>","40","all_simple","images/simple/6.png","images/simple/2.png","images/simple/1.png,images/simple/13.png,images/simple/10.png,images/simple/16.png,images/simple/3.png,images/simple/15.png,images/simple/8.png","2","null","","200","352.26999996230006","","","","background","",""
"","null","html-keyboard-response","271","736701","0.0-20.0-0.28","SS1604513347125","","null","","","","","","","","","","","","<img src=images/blank.png width =""500"" height = ""500"" style=""border:5px solid black"">","","",""
"","540.5199998058379","stimulus-presentation","272","737445","0.0-20.0-1.28","SS1604513347125","<img src='images/simple/10.png' width ='500' height = '500' style='border:5px solid black'>","40","all_simple","images/simple/6.png","images/simple/2.png","images/simple/1.png,images/simple/13.png,images/simple/10.png,images/simple/16.png,images/simple/3.png,images/simple/15.png,images/simple/8.png","2","null","","200","740.5199998058379","","","","deviant","",""
"","null","html-keyboard-response","273","738498","0.0-20.0-0.29","SS1604513347125","","null","","","","","","","","","","","","<img src=images/blank.png width =""500"" height = ""500"" style=""border:5px solid black"">","","",""
"","196.43999985419214","stimulus-presentation","274","738899","0.0-20.0-1.29","SS1604513347125","<img src='images/simple/2.png' width ='500' height = '500' style='border:5px solid black'>","40","all_simple","images/simple/6.png","images/simple/2.png","images/simple/1.png,images/simple/13.png,images/simple/10.png,images/simple/16.png,images/simple/3.png,images/simple/15.png,images/simple/8.png","2","null","","200","396.43999985419214","","","","background","",""
"","null","html-keyboard-response","275","739707","0.0-20.0-0.30","SS1604513347125","","null","","","","","","","","","","","","<img src=images/blank.png width =""500"" height = ""500"" style=""border:5px solid black"">","","",""
"","221.58000012859702","stimulus-presentation","276","740133","0.0-20.0-1.30","SS1604513347125","<img src='images/simple/2.png' width ='500' height = '500' style='border:5px solid black'>","40","all_simple","images/simple/6.png","images/simple/2.png","images/simple/1.png,images/simple/13.png,images/simple/10.png,images/simple/16.png,images/simple/3.png,images/simple/15.png,images/simple/8.png","2","null","","200","421.580000128597","","","","background","",""
"","null","html-keyboard-response","277","741390","0.0-20.0-0.31","SS1604513347125","","null","","","","","","","","","","","","<img src=images/blank.png width =""500"" height = ""500"" style=""border:5px solid black"">","","",""
"","714.7750000003725","stimulus-presentation","278","742309","0.0-20.0-1.31","SS1604513347125","<img src='images/simple/6.png' width ='500' height = '500' style='border:5px solid black'>","40","all_simple","images/simple/6.png","images/simple/2.png","images/simple/1.png,images/simple/13.png,images/simple/10.png,images/simple/16.png,images/simple/3.png,images/simple/15.png,images/simple/8.png","2","null","","200","914.7750000003725","yes","250.86999987252057","","target","",""
"","null","html-keyboard-response","279","743498","0.0-20.0-0.32","SS1604513347125","","null","","","","","","","","","","","","<img src=images/blank.png width =""500"" height = ""500"" style=""border:5px solid black"">","","",""
"","255.54000004194677","stimulus-presentation","280","743957","0.0-20.0-1.32","SS1604513347125","<img src='images/simple/2.png' width ='500' height = '500' style='border:5px solid black'>","40","all_simple","images/simple/6.png","images/simple/2.png","images/simple/1.png,images/simple/13.png,images/simple/10.png,images/simple/16.png,images/simple/3.png,images/simple/15.png,images/simple/8.png","2","null","","200","455.54000004194677","","","","background","",""
"","null","html-keyboard-response","281","745175","0.0-20.0-0.33","SS1604513347125","","null","","","","","","","","","","","","<img src=images/blank.png width =""500"" height = ""500"" style=""border:5px solid black"">","","",""
"","736.2499998416752","stimulus-presentation","282","746117","0.0-20.0-1.33","SS1604513347125","<img src='images/simple/6.png' width ='500' height = '500' style='border:5px solid black'>","40","all_simple","images/simple/6.png","images/simple/2.png","images/simple/1.png,images/simple/13.png,images/simple/10.png,images/simple/16.png,images/simple/3.png,images/simple/15.png,images/simple/8.png","2","null","","200","936.2499998416752","yes","384.55999991856515","","target","",""
"","null","html-keyboard-response","283","747172","0.0-20.0-0.34","SS1604513347125","","null","","","","","","","","","","","","<img src=images/blank.png width =""500"" height = ""500"" style=""border:5px solid black"">","","",""
"","420.90000002644956","stimulus-presentation","284","747797","0.0-20.0-1.34","SS1604513347125","<img src='images/simple/2.png' width ='500' height = '500' style='border:5px solid black'>","40","all_simple","images/simple/6.png","images/simple/2.png","images/simple/1.png,images/simple/13.png,images/simple/10.png,images/simple/16.png,images/simple/3.png,images/simple/15.png,images/simple/8.png","2","null","","200","620.9000000264496","","","","background","",""
