view_history,rt,trial_type,trial_index,time_elapsed,internal_node_id,subject,trial_stimulus,key_press,task_type,task_target_stimulus,task_background_stimulus,task_deviant_stimuli,task_order_number,block_order_number,trial_order_number,minimum_viewing_duration,trial_looking_time,trial_pressed_space_bar,trial_space_bar_rt,stimulus,trial_stimulus_type,responses,question_order
"[{""page_index"":0,""viewing_time"":37130.18999999622},{""page_index"":1,""viewing_time"":991.965000052005},{""page_index"":2,""viewing_time"":479.55499996896833},{""page_index"":3,""viewing_time"":1040.8550000283867},{""page_index"":4,""viewing_time"":431.8349999957718},{""page_index"":5,""viewing_time"":2616.3999999989755},{""page_index"":6,""viewing_time"":407.9749999800697},{""page_index"":7,""viewing_time"":311.6649999865331}]",43411.585,instructions,0,43414,0.0-0.0,SS1602730104581,,,,,,,,,,,,,,,,,
"[{""page_index"":0,""viewing_time"":907.4900000123307},{""page_index"":1,""viewing_time"":968.1700000073761},{""page_index"":2,""viewing_time"":959.7349999821745}]",2835.865,instructions,1,46253,0.0-1.0,SS1602730104581,,,,,,,,,,,,,,,,,
,1885.2,practice-block,2,48743,0.0-2.0,SS1602730104581,<img src='images/practice/practice_background.jpeg' width ='500' height = '500' style='border:5px solid black'>,40,null,images/practice/practice_target.jpg,null,null,null,null,,600,2485.2,,,,,,
,null,html-keyboard-response,3,49662,0.0-3.0,SS1602730104581,,null,,,,,,,,,,,,"<img src=images/blank.png width =""500"" height = ""500"" style=""border:5px solid black"">",,,
,179.205,practice-block,4,50449,0.0-4.0,SS1602730104581,<img src='images/practice/practice_background.jpeg' width ='500' height = '500' style='border:5px solid black'>,40,null,images/practice/practice_target.jpg,null,null,null,null,,600,779.205,,,,,,
,null,html-keyboard-response,5,51720,0.0-5.0,SS1602730104581,,null,,,,,,,,,,,,"<img src=images/blank.png width =""500"" height = ""500"" style=""border:5px solid black"">",,,
,120.82,practice-block,6,52449,0.0-6.0,SS1602730104581,<img src='images/practice/practice_deviant.jpeg' width ='500' height = '500' style='border:5px solid black'>,40,null,images/practice/practice_target.jpg,null,null,null,null,,600,720.82,,,,,,
,null,html-keyboard-response,7,53489,0.0-7.0,SS1602730104581,,null,,,,,,,,,,,,"<img src=images/blank.png width =""500"" height = ""500"" style=""border:5px solid black"">",,,
,226.575,practice-block,8,56439,0.0-8.0-0.0,SS1602730104581,<img src='images/practice/practice_target.jpg' width ='500' height = '500' style='border:5px solid black'>,40,null,images/practice/practice_target.jpg,null,null,null,null,,600,826.575,,,,,,
,3169.22,practice-block,9,60214,0.0-8.1-0.1,SS1602730104581,<img src='images/practice/practice_target.jpg' width ='500' height = '500' style='border:5px solid black'>,40,null,images/practice/practice_target.jpg,null,null,null,null,,600,3769.22,yes,160.735,,,,
,null,html-keyboard-response,10,61321,0.0-9.0,SS1602730104581,,null,,,,,,,,,,,,"<img src=images/blank.png width =""500"" height = ""500"" style=""border:5px solid black"">",,,
,807.445,practice-block,11,62736,0.0-10.0,SS1602730104581,<img src='images/practice/practice_background.jpeg' width ='500' height = '500' style='border:5px solid black'>,40,null,images/practice/practice_target.jpg,null,null,null,null,,600,1407.445,,,,,,
"[{""page_index"":0,""viewing_time"":1874}]",1875,task-instructions,12,64614,0.0-11.0,SS1602730104581,,,,,,,,,,,,,,,,,
"[{""page_index"":0,""viewing_time"":2931.825000036042},{""page_index"":1,""viewing_time"":1560.1000000024214},{""page_index"":2,""viewing_time"":864.000000001397}]",5356.415,instructions,13,69974,0.0-12.0,SS1602730104581,,,,,,,,,,,,,,,,,
,null,html-keyboard-response,14,71209,0.0-13.0-0.0,SS1602730104581,,null,,,,,,,,,,,,"<img src=images/blank.png width =""500"" height = ""500"" style=""border:5px solid black"">",,,
,168.73,stimulus-presentation,15,71988,0.0-13.0-1.0,SS1602730104581,<img src='images/complex/111.png' width ='500' height = '500' style='border:5px solid black'>,40,all_complex,images/complex/13.png,images/complex/111.png,"images/complex/62.png,images/complex/30.png,images/complex/5.png,images/complex/68.png,images/complex/99.png,images/complex/98.png,images/complex/53.png,images/complex/9.png,images/complex/27.png",0,null,,600,768.73,,,,background,,
,null,html-keyboard-response,16,72990,0.0-13.0-0.1,SS1602730104581,,null,,,,,,,,,,,,"<img src=images/blank.png width =""500"" height = ""500"" style=""border:5px solid black"">",,,
,289.44,stimulus-presentation,17,73887,0.0-13.0-1.1,SS1602730104581,<img src='images/complex/27.png' width ='500' height = '500' style='border:5px solid black'>,40,all_complex,images/complex/13.png,images/complex/111.png,"images/complex/62.png,images/complex/30.png,images/complex/5.png,images/complex/68.png,images/complex/99.png,images/complex/98.png,images/complex/53.png,images/complex/9.png,images/complex/27.png",0,null,,600,889.44,,,,deviant,,
,null,html-keyboard-response,18,75096,0.0-13.0-0.2,SS1602730104581,,null,,,,,,,,,,,,"<img src=images/blank.png width =""500"" height = ""500"" style=""border:5px solid black"">",,,
,3369.2,stimulus-presentation,19,79073,0.0-13.0-1.2,SS1602730104581,<img src='images/complex/111.png' width ='500' height = '500' style='border:5px solid black'>,40,all_complex,images/complex/13.png,images/complex/111.png,"images/complex/62.png,images/complex/30.png,images/complex/5.png,images/complex/68.png,images/complex/99.png,images/complex/98.png,images/complex/53.png,images/complex/9.png,images/complex/27.png",0,null,,600,3969.2,yes,785.73,,background,,
,null,html-keyboard-response,20,79952,0.0-13.0-0.3,SS1602730104581,,null,,,,,,,,,,,,"<img src=images/blank.png width =""500"" height = ""500"" style=""border:5px solid black"">",,,
,307.7,stimulus-presentation,21,80869,0.0-13.0-1.3,SS1602730104581,<img src='images/complex/111.png' width ='500' height = '500' style='border:5px solid black'>,40,all_complex,images/complex/13.png,images/complex/111.png,"images/complex/62.png,images/complex/30.png,images/complex/5.png,images/complex/68.png,images/complex/99.png,images/complex/98.png,images/complex/53.png,images/complex/9.png,images/complex/27.png",0,null,,600,907.7,,,,background,,
,null,html-keyboard-response,22,82004,0.0-13.0-0.4,SS1602730104581,,null,,,,,,,,,,,,"<img src=images/blank.png width =""500"" height = ""500"" style=""border:5px solid black"">",,,
,252.685,stimulus-presentation,23,82865,0.0-13.0-1.4,SS1602730104581,<img src='images/complex/5.png' width ='500' height = '500' style='border:5px solid black'>,40,all_complex,images/complex/13.png,images/complex/111.png,"images/complex/62.png,images/complex/30.png,images/complex/5.png,images/complex/68.png,images/complex/99.png,images/complex/98.png,images/complex/53.png,images/complex/9.png,images/complex/27.png",0,null,,600,852.685,,,,deviant,,
,null,html-keyboard-response,24,83892,0.0-13.0-0.5,SS1602730104581,,null,,,,,,,,,,,,"<img src=images/blank.png width =""500"" height = ""500"" style=""border:5px solid black"">",,,
,107.385,stimulus-presentation,25,84608,0.0-13.0-1.5,SS1602730104581,<img src='images/complex/111.png' width ='500' height = '500' style='border:5px solid black'>,40,all_complex,images/complex/13.png,images/complex/111.png,"images/complex/62.png,images/complex/30.png,images/complex/5.png,images/complex/68.png,images/complex/99.png,images/complex/98.png,images/complex/53.png,images/complex/9.png,images/complex/27.png",0,null,,600,707.385,,,,background,,
,null,html-keyboard-response,26,85414,0.0-13.0-0.6,SS1602730104581,,null,,,,,,,,,,,,"<img src=images/blank.png width =""500"" height = ""500"" style=""border:5px solid black"">",,,
,62.15000001,stimulus-presentation,27,86088,0.0-13.0-1.6,SS1602730104581,<img src='images/complex/111.png' width ='500' height = '500' style='border:5px solid black'>,40,all_complex,images/complex/13.png,images/complex/111.png,"images/complex/62.png,images/complex/30.png,images/complex/5.png,images/complex/68.png,images/complex/99.png,images/complex/98.png,images/complex/53.png,images/complex/9.png,images/complex/27.png",0,null,,600,662.15,,,,background,,
,null,html-keyboard-response,28,87202,0.0-13.0-0.7,SS1602730104581,,null,,,,,,,,,,,,"<img src=images/blank.png width =""500"" height = ""500"" style=""border:5px solid black"">",,,
,89.44499999,stimulus-presentation,29,87896,0.0-13.0-1.7,SS1602730104581,<img src='images/complex/111.png' width ='500' height = '500' style='border:5px solid black'>,40,all_complex,images/complex/13.png,images/complex/111.png,"images/complex/62.png,images/complex/30.png,images/complex/5.png,images/complex/68.png,images/complex/99.png,images/complex/98.png,images/complex/53.png,images/complex/9.png,images/complex/27.png",0,null,,600,689.445,,,,background,,
,null,html-keyboard-response,30,88850,0.0-13.0-0.8,SS1602730104581,,null,,,,,,,,,,,,"<img src=images/blank.png width =""500"" height = ""500"" style=""border:5px solid black"">",,,
,13.17500003,stimulus-presentation,31,89474,0.0-13.0-1.8,SS1602730104581,<img src='images/complex/111.png' width ='500' height = '500' style='border:5px solid black'>,40,all_complex,images/complex/13.png,images/complex/111.png,"images/complex/62.png,images/complex/30.png,images/complex/5.png,images/complex/68.png,images/complex/99.png,images/complex/98.png,images/complex/53.png,images/complex/9.png,images/complex/27.png",0,null,,600,613.175,,,,background,,
,null,html-keyboard-response,32,90652,0.0-13.0-0.9,SS1602730104581,,null,,,,,,,,,,,,"<img src=images/blank.png width =""500"" height = ""500"" style=""border:5px solid black"">",,,
,18.56,stimulus-presentation,33,91279,0.0-13.0-1.9,SS1602730104581,<img src='images/complex/68.png' width ='500' height = '500' style='border:5px solid black'>,40,all_complex,images/complex/13.png,images/complex/111.png,"images/complex/62.png,images/complex/30.png,images/complex/5.png,images/complex/68.png,images/complex/99.png,images/complex/98.png,images/complex/53.png,images/complex/9.png,images/complex/27.png",0,null,,600,618.56,,,,deviant,,
,null,html-keyboard-response,34,92459,0.0-13.0-0.10,SS1602730104581,,null,,,,,,,,,,,,"<img src=images/blank.png width =""500"" height = ""500"" style=""border:5px solid black"">",,,
,40.99499999,stimulus-presentation,35,93107,0.0-13.0-1.10,SS1602730104581,<img src='images/complex/111.png' width ='500' height = '500' style='border:5px solid black'>,40,all_complex,images/complex/13.png,images/complex/111.png,"images/complex/62.png,images/complex/30.png,images/complex/5.png,images/complex/68.png,images/complex/99.png,images/complex/98.png,images/complex/53.png,images/complex/9.png,images/complex/27.png",0,null,,600,640.995,,,,background,,
,null,html-keyboard-response,36,93919,0.0-13.0-0.11,SS1602730104581,,null,,,,,,,,,,,,"<img src=images/blank.png width =""500"" height = ""500"" style=""border:5px solid black"">",,,
,801.83,stimulus-presentation,37,95329,0.0-13.0-1.11,SS1602730104581,<img src='images/complex/13.png' width ='500' height = '500' style='border:5px solid black'>,40,all_complex,images/complex/13.png,images/complex/111.png,"images/complex/62.png,images/complex/30.png,images/complex/5.png,images/complex/68.png,images/complex/99.png,images/complex/98.png,images/complex/53.png,images/complex/9.png,images/complex/27.png",0,null,,600,1401.83,yes,58.71999997,,target,,
,null,html-keyboard-response,38,96494,0.0-13.0-0.12,SS1602730104581,,null,,,,,,,,,,,,"<img src=images/blank.png width =""500"" height = ""500"" style=""border:5px solid black"">",,,
,65.61500003,stimulus-presentation,39,97169,0.0-13.0-1.12,SS1602730104581,<img src='images/complex/111.png' width ='500' height = '500' style='border:5px solid black'>,40,all_complex,images/complex/13.png,images/complex/111.png,"images/complex/62.png,images/complex/30.png,images/complex/5.png,images/complex/68.png,images/complex/99.png,images/complex/98.png,images/complex/53.png,images/complex/9.png,images/complex/27.png",0,null,,600,665.615,,,,background,,
,null,html-keyboard-response,40,98316,0.0-13.0-0.13,SS1602730104581,,null,,,,,,,,,,,,"<img src=images/blank.png width =""500"" height = ""500"" style=""border:5px solid black"">",,,
,310.32,stimulus-presentation,41,99232,0.0-13.0-1.13,SS1602730104581,<img src='images/complex/111.png' width ='500' height = '500' style='border:5px solid black'>,40,all_complex,images/complex/13.png,images/complex/111.png,"images/complex/62.png,images/complex/30.png,images/complex/5.png,images/complex/68.png,images/complex/99.png,images/complex/98.png,images/complex/53.png,images/complex/9.png,images/complex/27.png",0,null,,600,910.32,,,,background,,
,null,html-keyboard-response,42,100323,0.0-13.0-0.14,SS1602730104581,,null,,,,,,,,,,,,"<img src=images/blank.png width =""500"" height = ""500"" style=""border:5px solid black"">",,,
,1100.595,stimulus-presentation,43,102034,0.0-13.0-1.14,SS1602730104581,<img src='images/complex/13.png' width ='500' height = '500' style='border:5px solid black'>,40,all_complex,images/complex/13.png,images/complex/111.png,"images/complex/62.png,images/complex/30.png,images/complex/5.png,images/complex/68.png,images/complex/99.png,images/complex/98.png,images/complex/53.png,images/complex/9.png,images/complex/27.png",0,null,,600,1700.595,yes,148.98,,target,,
,null,html-keyboard-response,44,103039,0.0-13.0-0.15,SS1602730104581,,null,,,,,,,,,,,,"<img src=images/blank.png width =""500"" height = ""500"" style=""border:5px solid black"">",,,
,248.465,stimulus-presentation,45,103896,0.0-13.0-1.15,SS1602730104581,<img src='images/complex/111.png' width ='500' height = '500' style='border:5px solid black'>,40,all_complex,images/complex/13.png,images/complex/111.png,"images/complex/62.png,images/complex/30.png,images/complex/5.png,images/complex/68.png,images/complex/99.png,images/complex/98.png,images/complex/53.png,images/complex/9.png,images/complex/27.png",0,null,,600,848.465,,,,background,,
,null,html-keyboard-response,46,105043,0.0-13.0-0.16,SS1602730104581,,null,,,,,,,,,,,,"<img src=images/blank.png width =""500"" height = ""500"" style=""border:5px solid black"">",,,
,259.45,stimulus-presentation,47,105913,0.0-13.0-1.16,SS1602730104581,<img src='images/complex/99.png' width ='500' height = '500' style='border:5px solid black'>,40,all_complex,images/complex/13.png,images/complex/111.png,"images/complex/62.png,images/complex/30.png,images/complex/5.png,images/complex/68.png,images/complex/99.png,images/complex/98.png,images/complex/53.png,images/complex/9.png,images/complex/27.png",0,null,,600,859.45,,,,deviant,,
,null,html-keyboard-response,48,107203,0.0-13.0-0.17,SS1602730104581,,null,,,,,,,,,,,,"<img src=images/blank.png width =""500"" height = ""500"" style=""border:5px solid black"">",,,
,181.99,stimulus-presentation,49,107995,0.0-13.0-1.17,SS1602730104581,<img src='images/complex/111.png' width ='500' height = '500' style='border:5px solid black'>,40,all_complex,images/complex/13.png,images/complex/111.png,"images/complex/62.png,images/complex/30.png,images/complex/5.png,images/complex/68.png,images/complex/99.png,images/complex/98.png,images/complex/53.png,images/complex/9.png,images/complex/27.png",0,null,,600,781.99,,,,background,,
,null,html-keyboard-response,50,109240,0.0-13.0-0.18,SS1602730104581,,null,,,,,,,,,,,,"<img src=images/blank.png width =""500"" height = ""500"" style=""border:5px solid black"">",,,
,1305.175,stimulus-presentation,51,111150,0.0-13.0-1.18,SS1602730104581,<img src='images/complex/13.png' width ='500' height = '500' style='border:5px solid black'>,40,all_complex,images/complex/13.png,images/complex/111.png,"images/complex/62.png,images/complex/30.png,images/complex/5.png,images/complex/68.png,images/complex/99.png,images/complex/98.png,images/complex/53.png,images/complex/9.png,images/complex/27.png",0,null,,600,1905.175,yes,187.555,,target,,
,null,html-keyboard-response,52,112106,0.0-13.0-0.19,SS1602730104581,,null,,,,,,,,,,,,"<img src=images/blank.png width =""500"" height = ""500"" style=""border:5px solid black"">",,,
,233.215,stimulus-presentation,53,112948,0.0-13.0-1.19,SS1602730104581,<img src='images/complex/111.png' width ='500' height = '500' style='border:5px solid black'>,40,all_complex,images/complex/13.png,images/complex/111.png,"images/complex/62.png,images/complex/30.png,images/complex/5.png,images/complex/68.png,images/complex/99.png,images/complex/98.png,images/complex/53.png,images/complex/9.png,images/complex/27.png",0,null,,600,833.215,,,,background,,
,null,html-keyboard-response,54,114111,0.0-13.0-0.20,SS1602730104581,,null,,,,,,,,,,,,"<img src=images/blank.png width =""500"" height = ""500"" style=""border:5px solid black"">",,,
,60.72000001,stimulus-presentation,55,114780,0.0-13.0-1.20,SS1602730104581,<img src='images/complex/111.png' width ='500' height = '500' style='border:5px solid black'>,40,all_complex,images/complex/13.png,images/complex/111.png,"images/complex/62.png,images/complex/30.png,images/complex/5.png,images/complex/68.png,images/complex/99.png,images/complex/98.png,images/complex/53.png,images/complex/9.png,images/complex/27.png",0,null,,600,660.72,,,,background,,
,null,html-keyboard-response,56,115793,0.0-13.0-0.21,SS1602730104581,,null,,,,,,,,,,,,"<img src=images/blank.png width =""500"" height = ""500"" style=""border:5px solid black"">",,,
,138.9,stimulus-presentation,57,116540,0.0-13.0-1.21,SS1602730104581,<img src='images/complex/30.png' width ='500' height = '500' style='border:5px solid black'>,40,all_complex,images/complex/13.png,images/complex/111.png,"images/complex/62.png,images/complex/30.png,images/complex/5.png,images/complex/68.png,images/complex/99.png,images/complex/98.png,images/complex/53.png,images/complex/9.png,images/complex/27.png",0,null,,600,738.9,,,,deviant,,
,null,html-keyboard-response,58,117350,0.0-13.0-0.22,SS1602730104581,,null,,,,,,,,,,,,"<img src=images/blank.png width =""500"" height = ""500"" style=""border:5px solid black"">",,,
,50.185,stimulus-presentation,59,118010,0.0-13.0-1.22,SS1602730104581,<img src='images/complex/111.png' width ='500' height = '500' style='border:5px solid black'>,40,all_complex,images/complex/13.png,images/complex/111.png,"images/complex/62.png,images/complex/30.png,images/complex/5.png,images/complex/68.png,images/complex/99.png,images/complex/98.png,images/complex/53.png,images/complex/9.png,images/complex/27.png",0,null,,600,650.185,,,,background,,
,null,html-keyboard-response,60,119146,0.0-13.0-0.23,SS1602730104581,,null,,,,,,,,,,,,"<img src=images/blank.png width =""500"" height = ""500"" style=""border:5px solid black"">",,,
,46.15000001,stimulus-presentation,61,119801,0.0-13.0-1.23,SS1602730104581,<img src='images/complex/53.png' width ='500' height = '500' style='border:5px solid black'>,40,all_complex,images/complex/13.png,images/complex/111.png,"images/complex/62.png,images/complex/30.png,images/complex/5.png,images/complex/68.png,images/complex/99.png,images/complex/98.png,images/complex/53.png,images/complex/9.png,images/complex/27.png",0,null,,600,646.15,,,,deviant,,
,null,html-keyboard-response,62,120746,0.0-13.0-0.24,SS1602730104581,,null,,,,,,,,,,,,"<img src=images/blank.png width =""500"" height = ""500"" style=""border:5px solid black"">",,,
,191.56,stimulus-presentation,63,121547,0.0-13.0-1.24,SS1602730104581,<img src='images/complex/111.png' width ='500' height = '500' style='border:5px solid black'>,40,all_complex,images/complex/13.png,images/complex/111.png,"images/complex/62.png,images/complex/30.png,images/complex/5.png,images/complex/68.png,images/complex/99.png,images/complex/98.png,images/complex/53.png,images/complex/9.png,images/complex/27.png",0,null,,600,791.56,,,,background,,
,null,html-keyboard-response,64,122438,0.0-13.0-0.25,SS1602730104581,,null,,,,,,,,,,,,"<img src=images/blank.png width =""500"" height = ""500"" style=""border:5px solid black"">",,,
,1300.925,stimulus-presentation,65,124346,0.0-13.0-1.25,SS1602730104581,<img src='images/complex/13.png' width ='500' height = '500' style='border:5px solid black'>,40,all_complex,images/complex/13.png,images/complex/111.png,"images/complex/62.png,images/complex/30.png,images/complex/5.png,images/complex/68.png,images/complex/99.png,images/complex/98.png,images/complex/53.png,images/complex/9.png,images/complex/27.png",0,null,,600,1900.925,yes,443.16,,target,,
,null,html-keyboard-response,66,125478,0.0-13.0-0.26,SS1602730104581,,null,,,,,,,,,,,,"<img src=images/blank.png width =""500"" height = ""500"" style=""border:5px solid black"">",,,
,1021.665,stimulus-presentation,67,127110,0.0-13.0-1.26,SS1602730104581,<img src='images/complex/13.png' width ='500' height = '500' style='border:5px solid black'>,40,all_complex,images/complex/13.png,images/complex/111.png,"images/complex/62.png,images/complex/30.png,images/complex/5.png,images/complex/68.png,images/complex/99.png,images/complex/98.png,images/complex/53.png,images/complex/9.png,images/complex/27.png",0,null,,600,1621.665,yes,203.31,,target,,
,null,html-keyboard-response,68,128351,0.0-13.0-0.27,SS1602730104581,,null,,,,,,,,,,,,"<img src=images/blank.png width =""500"" height = ""500"" style=""border:5px solid black"">",,,
,249.17,stimulus-presentation,69,129210,0.0-13.0-1.27,SS1602730104581,<img src='images/complex/111.png' width ='500' height = '500' style='border:5px solid black'>,40,all_complex,images/complex/13.png,images/complex/111.png,"images/complex/62.png,images/complex/30.png,images/complex/5.png,images/complex/68.png,images/complex/99.png,images/complex/98.png,images/complex/53.png,images/complex/9.png,images/complex/27.png",0,null,,600,849.17,,,,background,,
,null,html-keyboard-response,70,130464,0.0-13.0-0.28,SS1602730104581,,null,,,,,,,,,,,,"<img src=images/blank.png width =""500"" height = ""500"" style=""border:5px solid black"">",,,
,1066.205,stimulus-presentation,71,132139,0.0-13.0-1.28,SS1602730104581,<img src='images/complex/13.png' width ='500' height = '500' style='border:5px solid black'>,40,all_complex,images/complex/13.png,images/complex/111.png,"images/complex/62.png,images/complex/30.png,images/complex/5.png,images/complex/68.png,images/complex/99.png,images/complex/98.png,images/complex/53.png,images/complex/9.png,images/complex/27.png",0,null,,600,1666.205,yes,177.4249999,,target,,
,null,html-keyboard-response,72,133104,0.0-13.0-0.29,SS1602730104581,,null,,,,,,,,,,,,"<img src=images/blank.png width =""500"" height = ""500"" style=""border:5px solid black"">",,,
,41.86,stimulus-presentation,73,133753,0.0-13.0-1.29,SS1602730104581,<img src='images/complex/111.png' width ='500' height = '500' style='border:5px solid black'>,40,all_complex,images/complex/13.png,images/complex/111.png,"images/complex/62.png,images/complex/30.png,images/complex/5.png,images/complex/68.png,images/complex/99.png,images/complex/98.png,images/complex/53.png,images/complex/9.png,images/complex/27.png",0,null,,600,641.86,,,,background,,
,null,html-keyboard-response,74,134602,0.0-13.0-0.30,SS1602730104581,,null,,,,,,,,,,,,"<img src=images/blank.png width =""500"" height = ""500"" style=""border:5px solid black"">",,,
,297.135,stimulus-presentation,75,135508,0.0-13.0-1.30,SS1602730104581,<img src='images/complex/111.png' width ='500' height = '500' style='border:5px solid black'>,40,all_complex,images/complex/13.png,images/complex/111.png,"images/complex/62.png,images/complex/30.png,images/complex/5.png,images/complex/68.png,images/complex/99.png,images/complex/98.png,images/complex/53.png,images/complex/9.png,images/complex/27.png",0,null,,600,897.135,,,,background,,
,null,html-keyboard-response,76,136604,0.0-13.0-0.31,SS1602730104581,,null,,,,,,,,,,,,"<img src=images/blank.png width =""500"" height = ""500"" style=""border:5px solid black"">",,,
,137.935,stimulus-presentation,77,137348,0.0-13.0-1.31,SS1602730104581,<img src='images/complex/111.png' width ='500' height = '500' style='border:5px solid black'>,40,all_complex,images/complex/13.png,images/complex/111.png,"images/complex/62.png,images/complex/30.png,images/complex/5.png,images/complex/68.png,images/complex/99.png,images/complex/98.png,images/complex/53.png,images/complex/9.png,images/complex/27.png",0,null,,600,737.935,,,,background,,
,null,html-keyboard-response,78,138426,0.0-13.0-0.32,SS1602730104581,,null,,,,,,,,,,,,"<img src=images/blank.png width =""500"" height = ""500"" style=""border:5px solid black"">",,,
,145.045,stimulus-presentation,79,139178,0.0-13.0-1.32,SS1602730104581,<img src='images/complex/111.png' width ='500' height = '500' style='border:5px solid black'>,40,all_complex,images/complex/13.png,images/complex/111.png,"images/complex/62.png,images/complex/30.png,images/complex/5.png,images/complex/68.png,images/complex/99.png,images/complex/98.png,images/complex/53.png,images/complex/9.png,images/complex/27.png",0,null,,600,745.045,,,,background,,
,null,html-keyboard-response,80,140138,0.0-13.0-0.33,SS1602730104581,,null,,,,,,,,,,,,"<img src=images/blank.png width =""500"" height = ""500"" style=""border:5px solid black"">",,,
,150.34,stimulus-presentation,81,140899,0.0-13.0-1.33,SS1602730104581,<img src='images/complex/111.png' width ='500' height = '500' style='border:5px solid black'>,40,all_complex,images/complex/13.png,images/complex/111.png,"images/complex/62.png,images/complex/30.png,images/complex/5.png,images/complex/68.png,images/complex/99.png,images/complex/98.png,images/complex/53.png,images/complex/9.png,images/complex/27.png",0,null,,600,750.34,,,,background,,
,null,html-keyboard-response,82,142164,0.0-13.0-0.34,SS1602730104581,,null,,,,,,,,,,,,"<img src=images/blank.png width =""500"" height = ""500"" style=""border:5px solid black"">",,,
,350.885,stimulus-presentation,83,143122,0.0-13.0-1.34,SS1602730104581,<img src='images/complex/111.png' width ='500' height = '500' style='border:5px solid black'>,40,all_complex,images/complex/13.png,images/complex/111.png,"images/complex/62.png,images/complex/30.png,images/complex/5.png,images/complex/68.png,images/complex/99.png,images/complex/98.png,images/complex/53.png,images/complex/9.png,images/complex/27.png",0,null,,600,950.885,,,,background,,
,null,html-keyboard-response,84,144371,0.0-13.0-0.35,SS1602730104581,,null,,,,,,,,,,,,"<img src=images/blank.png width =""500"" height = ""500"" style=""border:5px solid black"">",,,
,226.305,stimulus-presentation,85,145202,0.0-13.0-1.35,SS1602730104581,<img src='images/complex/111.png' width ='500' height = '500' style='border:5px solid black'>,40,all_complex,images/complex/13.png,images/complex/111.png,"images/complex/62.png,images/complex/30.png,images/complex/5.png,images/complex/68.png,images/complex/99.png,images/complex/98.png,images/complex/53.png,images/complex/9.png,images/complex/27.png",0,null,,600,826.305,,,,background,,
,null,html-keyboard-response,86,146187,0.0-13.0-0.36,SS1602730104581,,null,,,,,,,,,,,,"<img src=images/blank.png width =""500"" height = ""500"" style=""border:5px solid black"">",,,
,391.985,stimulus-presentation,87,147186,0.0-13.0-1.36,SS1602730104581,<img src='images/complex/111.png' width ='500' height = '500' style='border:5px solid black'>,40,all_complex,images/complex/13.png,images/complex/111.png,"images/complex/62.png,images/complex/30.png,images/complex/5.png,images/complex/68.png,images/complex/99.png,images/complex/98.png,images/complex/53.png,images/complex/9.png,images/complex/27.png",0,null,,600,991.985,,,,background,,
,null,html-keyboard-response,88,148232,0.0-13.0-0.37,SS1602730104581,,null,,,,,,,,,,,,"<img src=images/blank.png width =""500"" height = ""500"" style=""border:5px solid black"">",,,
,1034.28,stimulus-presentation,89,149874,0.0-13.0-1.37,SS1602730104581,<img src='images/complex/98.png' width ='500' height = '500' style='border:5px solid black'>,40,all_complex,images/complex/13.png,images/complex/111.png,"images/complex/62.png,images/complex/30.png,images/complex/5.png,images/complex/68.png,images/complex/99.png,images/complex/98.png,images/complex/53.png,images/complex/9.png,images/complex/27.png",0,null,,600,1634.28,,,,deviant,,
,null,html-keyboard-response,90,150833,0.0-13.0-0.38,SS1602730104581,,null,,,,,,,,,,,,"<img src=images/blank.png width =""500"" height = ""500"" style=""border:5px solid black"">",,,
,392.575,stimulus-presentation,91,151833,0.0-13.0-1.38,SS1602730104581,<img src='images/complex/111.png' width ='500' height = '500' style='border:5px solid black'>,40,all_complex,images/complex/13.png,images/complex/111.png,"images/complex/62.png,images/complex/30.png,images/complex/5.png,images/complex/68.png,images/complex/99.png,images/complex/98.png,images/complex/53.png,images/complex/9.png,images/complex/27.png",0,null,,600,992.575,,,,background,,
,null,html-keyboard-response,92,152940,0.0-13.0-0.39,SS1602730104581,,null,,,,,,,,,,,,"<img src=images/blank.png width =""500"" height = ""500"" style=""border:5px solid black"">",,,
,279.635,stimulus-presentation,93,153826,0.0-13.0-1.39,SS1602730104581,<img src='images/complex/111.png' width ='500' height = '500' style='border:5px solid black'>,40,all_complex,images/complex/13.png,images/complex/111.png,"images/complex/62.png,images/complex/30.png,images/complex/5.png,images/complex/68.png,images/complex/99.png,images/complex/98.png,images/complex/53.png,images/complex/9.png,images/complex/27.png",0,null,,600,879.635,,,,background,,
,null,html-keyboard-response,94,154859,0.0-13.0-0.40,SS1602730104581,,null,,,,,,,,,,,,"<img src=images/blank.png width =""500"" height = ""500"" style=""border:5px solid black"">",,,
,166.525,stimulus-presentation,95,155634,0.0-13.0-1.40,SS1602730104581,<img src='images/complex/111.png' width ='500' height = '500' style='border:5px solid black'>,40,all_complex,images/complex/13.png,images/complex/111.png,"images/complex/62.png,images/complex/30.png,images/complex/5.png,images/complex/68.png,images/complex/99.png,images/complex/98.png,images/complex/53.png,images/complex/9.png,images/complex/27.png",0,null,,600,766.525,,,,background,,
,null,html-keyboard-response,96,156593,0.0-13.0-0.41,SS1602730104581,,null,,,,,,,,,,,,"<img src=images/blank.png width =""500"" height = ""500"" style=""border:5px solid black"">",,,
,1269.505,stimulus-presentation,97,158472,0.0-13.0-1.41,SS1602730104581,<img src='images/complex/13.png' width ='500' height = '500' style='border:5px solid black'>,40,all_complex,images/complex/13.png,images/complex/111.png,"images/complex/62.png,images/complex/30.png,images/complex/5.png,images/complex/68.png,images/complex/99.png,images/complex/98.png,images/complex/53.png,images/complex/9.png,images/complex/27.png",0,null,,600,1869.505,yes,471.265,,target,,
,null,html-keyboard-response,98,159305,0.0-13.0-0.42,SS1602730104581,,null,,,,,,,,,,,,"<img src=images/blank.png width =""500"" height = ""500"" style=""border:5px solid black"">",,,
,69.09999996,stimulus-presentation,99,159980,0.0-13.0-1.42,SS1602730104581,<img src='images/complex/111.png' width ='500' height = '500' style='border:5px solid black'>,40,all_complex,images/complex/13.png,images/complex/111.png,"images/complex/62.png,images/complex/30.png,images/complex/5.png,images/complex/68.png,images/complex/99.png,images/complex/98.png,images/complex/53.png,images/complex/9.png,images/complex/27.png",0,null,,600,669.1,,,,background,,
,null,html-keyboard-response,100,161003,0.0-13.0-0.43,SS1602730104581,,null,,,,,,,,,,,,"<img src=images/blank.png width =""500"" height = ""500"" style=""border:5px solid black"">",,,
,93.75,stimulus-presentation,101,161706,0.0-13.0-1.43,SS1602730104581,<img src='images/complex/111.png' width ='500' height = '500' style='border:5px solid black'>,40,all_complex,images/complex/13.png,images/complex/111.png,"images/complex/62.png,images/complex/30.png,images/complex/5.png,images/complex/68.png,images/complex/99.png,images/complex/98.png,images/complex/53.png,images/complex/9.png,images/complex/27.png",0,null,,600,693.75,,,,background,,
,null,html-keyboard-response,102,162838,0.0-13.0-0.44,SS1602730104581,,null,,,,,,,,,,,,"<img src=images/blank.png width =""500"" height = ""500"" style=""border:5px solid black"">",,,
,92.46999997,stimulus-presentation,103,163539,0.0-13.0-1.44,SS1602730104581,<img src='images/complex/111.png' width ='500' height = '500' style='border:5px solid black'>,40,all_complex,images/complex/13.png,images/complex/111.png,"images/complex/62.png,images/complex/30.png,images/complex/5.png,images/complex/68.png,images/complex/99.png,images/complex/98.png,images/complex/53.png,images/complex/9.png,images/complex/27.png",0,null,,600,692.47,,,,background,,
,null,html-keyboard-response,104,164581,0.0-13.0-0.45,SS1602730104581,,null,,,,,,,,,,,,"<img src=images/blank.png width =""500"" height = ""500"" style=""border:5px solid black"">",,,
,89.21000001,stimulus-presentation,105,165282,0.0-13.0-1.45,SS1602730104581,<img src='images/complex/111.png' width ='500' height = '500' style='border:5px solid black'>,40,all_complex,images/complex/13.png,images/complex/111.png,"images/complex/62.png,images/complex/30.png,images/complex/5.png,images/complex/68.png,images/complex/99.png,images/complex/98.png,images/complex/53.png,images/complex/9.png,images/complex/27.png",0,null,,600,689.21,,,,background,,
,null,html-keyboard-response,106,166264,0.0-13.0-0.46,SS1602730104581,,null,,,,,,,,,,,,"<img src=images/blank.png width =""500"" height = ""500"" style=""border:5px solid black"">",,,
,58.00999998,stimulus-presentation,107,166931,0.0-13.0-1.46,SS1602730104581,<img src='images/complex/111.png' width ='500' height = '500' style='border:5px solid black'>,40,all_complex,images/complex/13.png,images/complex/111.png,"images/complex/62.png,images/complex/30.png,images/complex/5.png,images/complex/68.png,images/complex/99.png,images/complex/98.png,images/complex/53.png,images/complex/9.png,images/complex/27.png",0,null,,600,658.01,,,,background,,
,null,html-keyboard-response,108,167871,0.0-13.0-0.47,SS1602730104581,,null,,,,,,,,,,,,"<img src=images/blank.png width =""500"" height = ""500"" style=""border:5px solid black"">",,,
,1615.84,stimulus-presentation,109,170099,0.0-13.0-1.47,SS1602730104581,<img src='images/complex/13.png' width ='500' height = '500' style='border:5px solid black'>,40,all_complex,images/complex/13.png,images/complex/111.png,"images/complex/62.png,images/complex/30.png,images/complex/5.png,images/complex/68.png,images/complex/99.png,images/complex/98.png,images/complex/53.png,images/complex/9.png,images/complex/27.png",0,null,,600,2215.84,yes,597.955,,target,,
,null,html-keyboard-response,110,171203,0.0-13.0-0.48,SS1602730104581,,null,,,,,,,,,,,,"<img src=images/blank.png width =""500"" height = ""500"" style=""border:5px solid black"">",,,
,842.485,stimulus-presentation,111,172658,0.0-13.0-1.48,SS1602730104581,<img src='images/complex/62.png' width ='500' height = '500' style='border:5px solid black'>,40,all_complex,images/complex/13.png,images/complex/111.png,"images/complex/62.png,images/complex/30.png,images/complex/5.png,images/complex/68.png,images/complex/99.png,images/complex/98.png,images/complex/53.png,images/complex/9.png,images/complex/27.png",0,null,,600,1442.485,,,,deviant,,
,null,html-keyboard-response,112,173878,0.0-13.0-0.49,SS1602730104581,,null,,,,,,,,,,,,"<img src=images/blank.png width =""500"" height = ""500"" style=""border:5px solid black"">",,,
,219.735,stimulus-presentation,113,174707,0.0-13.0-1.49,SS1602730104581,<img src='images/complex/111.png' width ='500' height = '500' style='border:5px solid black'>,40,all_complex,images/complex/13.png,images/complex/111.png,"images/complex/62.png,images/complex/30.png,images/complex/5.png,images/complex/68.png,images/complex/99.png,images/complex/98.png,images/complex/53.png,images/complex/9.png,images/complex/27.png",0,null,,600,819.735,,,,background,,
,null,html-keyboard-response,114,175953,0.0-13.0-0.50,SS1602730104581,,null,,,,,,,,,,,,"<img src=images/blank.png width =""500"" height = ""500"" style=""border:5px solid black"">",,,
,1445.135,stimulus-presentation,115,178010,0.0-13.0-1.50,SS1602730104581,<img src='images/complex/13.png' width ='500' height = '500' style='border:5px solid black'>,40,all_complex,images/complex/13.png,images/complex/111.png,"images/complex/62.png,images/complex/30.png,images/complex/5.png,images/complex/68.png,images/complex/99.png,images/complex/98.png,images/complex/53.png,images/complex/9.png,images/complex/27.png",0,null,,600,2045.135,yes,582.195,,target,,
,null,html-keyboard-response,116,178937,0.0-13.0-0.51,SS1602730104581,,null,,,,,,,,,,,,"<img src=images/blank.png width =""500"" height = ""500"" style=""border:5px solid black"">",,,
,846.15,stimulus-presentation,117,180392,0.0-13.0-1.51,SS1602730104581,<img src='images/complex/111.png' width ='500' height = '500' style='border:5px solid black'>,40,all_complex,images/complex/13.png,images/complex/111.png,"images/complex/62.png,images/complex/30.png,images/complex/5.png,images/complex/68.png,images/complex/99.png,images/complex/98.png,images/complex/53.png,images/complex/9.png,images/complex/27.png",0,null,,600,1446.15,,,,background,,
,null,html-keyboard-response,118,181594,0.0-13.0-0.52,SS1602730104581,,null,,,,,,,,,,,,"<img src=images/blank.png width =""500"" height = ""500"" style=""border:5px solid black"">",,,
,188.485,stimulus-presentation,119,182395,0.0-13.0-1.52,SS1602730104581,<img src='images/complex/111.png' width ='500' height = '500' style='border:5px solid black'>,40,all_complex,images/complex/13.png,images/complex/111.png,"images/complex/62.png,images/complex/30.png,images/complex/5.png,images/complex/68.png,images/complex/99.png,images/complex/98.png,images/complex/53.png,images/complex/9.png,images/complex/27.png",0,null,,600,788.485,,,,background,,
,null,html-keyboard-response,120,183575,0.0-13.0-0.53,SS1602730104581,,null,,,,,,,,,,,,"<img src=images/blank.png width =""500"" height = ""500"" style=""border:5px solid black"">",,,
,669.135,stimulus-presentation,121,184851,0.0-13.0-1.53,SS1602730104581,<img src='images/complex/111.png' width ='500' height = '500' style='border:5px solid black'>,40,all_complex,images/complex/13.png,images/complex/111.png,"images/complex/62.png,images/complex/30.png,images/complex/5.png,images/complex/68.png,images/complex/99.png,images/complex/98.png,images/complex/53.png,images/complex/9.png,images/complex/27.png",0,null,,600,1269.135,,,,background,,
,null,html-keyboard-response,122,186005,0.0-13.0-0.54,SS1602730104581,,null,,,,,,,,,,,,"<img src=images/blank.png width =""500"" height = ""500"" style=""border:5px solid black"">",,,
,1125.295,stimulus-presentation,123,187739,0.0-13.0-1.54,SS1602730104581,<img src='images/complex/9.png' width ='500' height = '500' style='border:5px solid black'>,40,all_complex,images/complex/13.png,images/complex/111.png,"images/complex/62.png,images/complex/30.png,images/complex/5.png,images/complex/68.png,images/complex/99.png,images/complex/98.png,images/complex/53.png,images/complex/9.png,images/complex/27.png",0,null,,600,1725.295,,,,deviant,,
,null,html-keyboard-response,124,188651,0.0-13.0-0.55,SS1602730104581,,null,,,,,,,,,,,,"<img src=images/blank.png width =""500"" height = ""500"" style=""border:5px solid black"">",,,
,76.47000003,stimulus-presentation,125,189337,0.0-13.0-1.55,SS1602730104581,<img src='images/complex/111.png' width ='500' height = '500' style='border:5px solid black'>,40,all_complex,images/complex/13.png,images/complex/111.png,"images/complex/62.png,images/complex/30.png,images/complex/5.png,images/complex/68.png,images/complex/99.png,images/complex/98.png,images/complex/53.png,images/complex/9.png,images/complex/27.png",0,null,,600,676.47,,,,background,,
,null,html-keyboard-response,126,190644,0.0-13.0-0.56,SS1602730104581,,null,,,,,,,,,,,,"<img src=images/blank.png width =""500"" height = ""500"" style=""border:5px solid black"">",,,
,60.66000002,stimulus-presentation,127,191316,0.0-13.0-1.56,SS1602730104581,<img src='images/complex/111.png' width ='500' height = '500' style='border:5px solid black'>,40,all_complex,images/complex/13.png,images/complex/111.png,"images/complex/62.png,images/complex/30.png,images/complex/5.png,images/complex/68.png,images/complex/99.png,images/complex/98.png,images/complex/53.png,images/complex/9.png,images/complex/27.png",0,null,,600,660.66,,,,background,,
,null,html-keyboard-response,128,192329,0.0-13.0-0.57,SS1602730104581,,null,,,,,,,,,,,,"<img src=images/blank.png width =""500"" height = ""500"" style=""border:5px solid black"">",,,
,394.095,stimulus-presentation,129,193331,0.0-13.0-1.57,SS1602730104581,<img src='images/complex/111.png' width ='500' height = '500' style='border:5px solid black'>,40,all_complex,images/complex/13.png,images/complex/111.png,"images/complex/62.png,images/complex/30.png,images/complex/5.png,images/complex/68.png,images/complex/99.png,images/complex/98.png,images/complex/53.png,images/complex/9.png,images/complex/27.png",0,null,,600,994.095,,,,background,,
,null,html-keyboard-response,130,194169,0.0-13.0-0.58,SS1602730104581,,null,,,,,,,,,,,,"<img src=images/blank.png width =""500"" height = ""500"" style=""border:5px solid black"">",,,
,379.245,stimulus-presentation,131,195155,0.0-13.0-1.58,SS1602730104581,<img src='images/complex/111.png' width ='500' height = '500' style='border:5px solid black'>,40,all_complex,images/complex/13.png,images/complex/111.png,"images/complex/62.png,images/complex/30.png,images/complex/5.png,images/complex/68.png,images/complex/99.png,images/complex/98.png,images/complex/53.png,images/complex/9.png,images/complex/27.png",0,null,,600,979.245,,,,background,,
,null,html-keyboard-response,132,196115,0.0-13.0-0.59,SS1602730104581,,null,,,,,,,,,,,,"<img src=images/blank.png width =""500"" height = ""500"" style=""border:5px solid black"">",,,
,228.115,stimulus-presentation,133,196955,0.0-13.0-1.59,SS1602730104581,<img src='images/complex/111.png' width ='500' height = '500' style='border:5px solid black'>,40,all_complex,images/complex/13.png,images/complex/111.png,"images/complex/62.png,images/complex/30.png,images/complex/5.png,images/complex/68.png,images/complex/99.png,images/complex/98.png,images/complex/53.png,images/complex/9.png,images/complex/27.png",0,null,,600,828.115,,,,background,,
,null,html-keyboard-response,134,198253,0.0-13.0-0.60,SS1602730104581,,null,,,,,,,,,,,,"<img src=images/blank.png width =""500"" height = ""500"" style=""border:5px solid black"">",,,
,125.86,stimulus-presentation,135,198989,0.0-13.0-1.60,SS1602730104581,<img src='images/complex/111.png' width ='500' height = '500' style='border:5px solid black'>,40,all_complex,images/complex/13.png,images/complex/111.png,"images/complex/62.png,images/complex/30.png,images/complex/5.png,images/complex/68.png,images/complex/99.png,images/complex/98.png,images/complex/53.png,images/complex/9.png,images/complex/27.png",0,null,,600,725.86,,,,background,,
"[{""page_index"":0,""viewing_time"":5339}]",5339,task-instructions,136,204332,0.0-14.0,SS1602730104581,,,,,,,,,,,,,,,,,
"[{""page_index"":0,""viewing_time"":2046.7200000421144},{""page_index"":1,""viewing_time"":3951.795000000857},{""page_index"":2,""viewing_time"":2503.6899999831803}]",8502.625,instructions,137,212838,0.0-15.0,SS1602730104581,,,,,,,,,,,,,,,,,
,null,html-keyboard-response,138,213896,0.0-16.0-0.0,SS1602730104581,,null,,,,,,,,,,,,"<img src=images/blank.png width =""500"" height = ""500"" style=""border:5px solid black"">",,,
,435.3,stimulus-presentation,139,214940,0.0-16.0-1.0,SS1602730104581,<img src='images/simple/70.png' width ='500' height = '500' style='border:5px solid black'>,40,mixed_complex_deviant,images/simple/68.png,images/simple/70.png,"images/complex/72.png,images/complex/8.png,images/complex/42.png,images/complex/19.png,images/complex/112.png,images/complex/77.png,images/complex/63.png,images/complex/87.png,images/complex/85.png",1,null,,600,1035.3,,,,background,,
,null,html-keyboard-response,140,215748,0.0-16.0-0.1,SS1602730104581,,null,,,,,,,,,,,,"<img src=images/blank.png width =""500"" height = ""500"" style=""border:5px solid black"">",,,
,327.655,stimulus-presentation,141,216685,0.0-16.0-1.1,SS1602730104581,<img src='images/simple/70.png' width ='500' height = '500' style='border:5px solid black'>,40,mixed_complex_deviant,images/simple/68.png,images/simple/70.png,"images/complex/72.png,images/complex/8.png,images/complex/42.png,images/complex/19.png,images/complex/112.png,images/complex/77.png,images/complex/63.png,images/complex/87.png,images/complex/85.png",1,null,,600,927.655,,,,background,,
,null,html-keyboard-response,142,217650,0.0-16.0-0.2,SS1602730104581,,null,,,,,,,,,,,,"<img src=images/blank.png width =""500"" height = ""500"" style=""border:5px solid black"">",,,
,611.37,stimulus-presentation,143,218875,0.0-16.0-1.2,SS1602730104581,<img src='images/complex/8.png' width ='500' height = '500' style='border:5px solid black'>,40,mixed_complex_deviant,images/simple/68.png,images/simple/70.png,"images/complex/72.png,images/complex/8.png,images/complex/42.png,images/complex/19.png,images/complex/112.png,images/complex/77.png,images/complex/63.png,images/complex/87.png,images/complex/85.png",1,null,,600,1211.37,yes,67.83000001,,deviant,,
,null,html-keyboard-response,144,219789,0.0-16.0-0.3,SS1602730104581,,null,,,,,,,,,,,,"<img src=images/blank.png width =""500"" height = ""500"" style=""border:5px solid black"">",,,
,324.7150001,stimulus-presentation,145,220722,0.0-16.0-1.3,SS1602730104581,<img src='images/simple/70.png' width ='500' height = '500' style='border:5px solid black'>,40,mixed_complex_deviant,images/simple/68.png,images/simple/70.png,"images/complex/72.png,images/complex/8.png,images/complex/42.png,images/complex/19.png,images/complex/112.png,images/complex/77.png,images/complex/63.png,images/complex/87.png,images/complex/85.png",1,null,,600,924.7150001,,,,background,,
,null,html-keyboard-response,146,221997,0.0-16.0-0.4,SS1602730104581,,null,,,,,,,,,,,,"<img src=images/blank.png width =""500"" height = ""500"" style=""border:5px solid black"">",,,
,61.34999997,stimulus-presentation,147,222669,0.0-16.0-1.4,SS1602730104581,<img src='images/simple/70.png' width ='500' height = '500' style='border:5px solid black'>,40,mixed_complex_deviant,images/simple/68.png,images/simple/70.png,"images/complex/72.png,images/complex/8.png,images/complex/42.png,images/complex/19.png,images/complex/112.png,images/complex/77.png,images/complex/63.png,images/complex/87.png,images/complex/85.png",1,null,,600,661.35,,,,background,,
,null,html-keyboard-response,148,223692,0.0-16.0-0.5,SS1602730104581,,null,,,,,,,,,,,,"<img src=images/blank.png width =""500"" height = ""500"" style=""border:5px solid black"">",,,
,99.88499997,stimulus-presentation,149,224403,0.0-16.0-1.5,SS1602730104581,<img src='images/simple/70.png' width ='500' height = '500' style='border:5px solid black'>,40,mixed_complex_deviant,images/simple/68.png,images/simple/70.png,"images/complex/72.png,images/complex/8.png,images/complex/42.png,images/complex/19.png,images/complex/112.png,images/complex/77.png,images/complex/63.png,images/complex/87.png,images/complex/85.png",1,null,,600,699.885,,,,background,,
,null,html-keyboard-response,150,225319,0.0-16.0-0.6,SS1602730104581,,null,,,,,,,,,,,,"<img src=images/blank.png width =""500"" height = ""500"" style=""border:5px solid black"">",,,
,189.76,stimulus-presentation,151,226116,0.0-16.0-1.6,SS1602730104581,<img src='images/simple/68.png' width ='500' height = '500' style='border:5px solid black'>,40,mixed_complex_deviant,images/simple/68.png,images/simple/70.png,"images/complex/72.png,images/complex/8.png,images/complex/42.png,images/complex/19.png,images/complex/112.png,images/complex/77.png,images/complex/63.png,images/complex/87.png,images/complex/85.png",1,null,,600,789.76,,,,target,,
,null,html-keyboard-response,152,226989,0.0-16.0-0.7,SS1602730104581,,null,,,,,,,,,,,,"<img src=images/blank.png width =""500"" height = ""500"" style=""border:5px solid black"">",,,
,91.915,stimulus-presentation,153,227690,0.0-16.0-1.7,SS1602730104581,<img src='images/simple/68.png' width ='500' height = '500' style='border:5px solid black'>,40,mixed_complex_deviant,images/simple/68.png,images/simple/70.png,"images/complex/72.png,images/complex/8.png,images/complex/42.png,images/complex/19.png,images/complex/112.png,images/complex/77.png,images/complex/63.png,images/complex/87.png,images/complex/85.png",1,null,,600,691.915,,,,target,,
,null,html-keyboard-response,154,228941,0.0-16.0-0.8,SS1602730104581,,null,,,,,,,,,,,,"<img src=images/blank.png width =""500"" height = ""500"" style=""border:5px solid black"">",,,
,100.925,stimulus-presentation,155,229650,0.0-16.0-1.8,SS1602730104581,<img src='images/complex/42.png' width ='500' height = '500' style='border:5px solid black'>,40,mixed_complex_deviant,images/simple/68.png,images/simple/70.png,"images/complex/72.png,images/complex/8.png,images/complex/42.png,images/complex/19.png,images/complex/112.png,images/complex/77.png,images/complex/63.png,images/complex/87.png,images/complex/85.png",1,null,,600,700.925,,,,deviant,,
,null,html-keyboard-response,156,230844,0.0-16.0-0.9,SS1602730104581,,null,,,,,,,,,,,,"<img src=images/blank.png width =""500"" height = ""500"" style=""border:5px solid black"">",,,
,35.94000003,stimulus-presentation,157,231492,0.0-16.0-1.9,SS1602730104581,<img src='images/simple/70.png' width ='500' height = '500' style='border:5px solid black'>,40,mixed_complex_deviant,images/simple/68.png,images/simple/70.png,"images/complex/72.png,images/complex/8.png,images/complex/42.png,images/complex/19.png,images/complex/112.png,images/complex/77.png,images/complex/63.png,images/complex/87.png,images/complex/85.png",1,null,,600,635.94,,,,background,,
,null,html-keyboard-response,158,232516,0.0-16.0-0.10,SS1602730104581,,null,,,,,,,,,,,,"<img src=images/blank.png width =""500"" height = ""500"" style=""border:5px solid black"">",,,
,8.695000026,stimulus-presentation,159,233133,0.0-16.0-1.10,SS1602730104581,<img src='images/simple/70.png' width ='500' height = '500' style='border:5px solid black'>,40,mixed_complex_deviant,images/simple/68.png,images/simple/70.png,"images/complex/72.png,images/complex/8.png,images/complex/42.png,images/complex/19.png,images/complex/112.png,images/complex/77.png,images/complex/63.png,images/complex/87.png,images/complex/85.png",1,null,,600,608.695,,,,background,,
,null,html-keyboard-response,160,234277,0.0-16.0-0.11,SS1602730104581,,null,,,,,,,,,,,,"<img src=images/blank.png width =""500"" height = ""500"" style=""border:5px solid black"">",,,
,233.825,stimulus-presentation,161,235119,0.0-16.0-1.11,SS1602730104581,<img src='images/complex/77.png' width ='500' height = '500' style='border:5px solid black'>,40,mixed_complex_deviant,images/simple/68.png,images/simple/70.png,"images/complex/72.png,images/complex/8.png,images/complex/42.png,images/complex/19.png,images/complex/112.png,images/complex/77.png,images/complex/63.png,images/complex/87.png,images/complex/85.png",1,null,,600,833.825,,,,deviant,,
,null,html-keyboard-response,162,236282,0.0-16.0-0.12,SS1602730104581,,null,,,,,,,,,,,,"<img src=images/blank.png width =""500"" height = ""500"" style=""border:5px solid black"">",,,
,167.19,stimulus-presentation,163,237061,0.0-16.0-1.12,SS1602730104581,<img src='images/simple/70.png' width ='500' height = '500' style='border:5px solid black'>,40,mixed_complex_deviant,images/simple/68.png,images/simple/70.png,"images/complex/72.png,images/complex/8.png,images/complex/42.png,images/complex/19.png,images/complex/112.png,images/complex/77.png,images/complex/63.png,images/complex/87.png,images/complex/85.png",1,null,,600,767.19,,,,background,,
,null,html-keyboard-response,164,237969,0.0-16.0-0.13,SS1602730104581,,null,,,,,,,,,,,,"<img src=images/blank.png width =""500"" height = ""500"" style=""border:5px solid black"">",,,
,623.13,stimulus-presentation,165,239199,0.0-16.0-1.13,SS1602730104581,<img src='images/simple/70.png' width ='500' height = '500' style='border:5px solid black'>,40,mixed_complex_deviant,images/simple/68.png,images/simple/70.png,"images/complex/72.png,images/complex/8.png,images/complex/42.png,images/complex/19.png,images/complex/112.png,images/complex/77.png,images/complex/63.png,images/complex/87.png,images/complex/85.png",1,null,,600,1223.13,yes,80.79000004,,background,,
,null,html-keyboard-response,166,240087,0.0-16.0-0.14,SS1602730104581,,null,,,,,,,,,,,,"<img src=images/blank.png width =""500"" height = ""500"" style=""border:5px solid black"">",,,
,697.715,stimulus-presentation,167,241394,0.0-16.0-1.14,SS1602730104581,<img src='images/simple/70.png' width ='500' height = '500' style='border:5px solid black'>,40,mixed_complex_deviant,images/simple/68.png,images/simple/70.png,"images/complex/72.png,images/complex/8.png,images/complex/42.png,images/complex/19.png,images/complex/112.png,images/complex/77.png,images/complex/63.png,images/complex/87.png,images/complex/85.png",1,null,,600,1297.715,yes,169.52,,background,,
,null,html-keyboard-response,168,242518,0.0-16.0-0.15,SS1602730104581,,null,,,,,,,,,,,,"<img src=images/blank.png width =""500"" height = ""500"" style=""border:5px solid black"">",,,
,42.58999997,stimulus-presentation,169,243172,0.0-16.0-1.15,SS1602730104581,<img src='images/simple/70.png' width ='500' height = '500' style='border:5px solid black'>,40,mixed_complex_deviant,images/simple/68.png,images/simple/70.png,"images/complex/72.png,images/complex/8.png,images/complex/42.png,images/complex/19.png,images/complex/112.png,images/complex/77.png,images/complex/63.png,images/complex/87.png,images/complex/85.png",1,null,,600,642.59,,,,background,,
,null,html-keyboard-response,170,244004,0.0-16.0-0.16,SS1602730104581,,null,,,,,,,,,,,,"<img src=images/blank.png width =""500"" height = ""500"" style=""border:5px solid black"">",,,
,6.855000043,stimulus-presentation,171,244619,0.0-16.0-1.16,SS1602730104581,<img src='images/simple/70.png' width ='500' height = '500' style='border:5px solid black'>,40,mixed_complex_deviant,images/simple/68.png,images/simple/70.png,"images/complex/72.png,images/complex/8.png,images/complex/42.png,images/complex/19.png,images/complex/112.png,images/complex/77.png,images/complex/63.png,images/complex/87.png,images/complex/85.png",1,null,,600,606.855,,,,background,,
,null,html-keyboard-response,172,245854,0.0-16.0-0.17,SS1602730104581,,null,,,,,,,,,,,,"<img src=images/blank.png width =""500"" height = ""500"" style=""border:5px solid black"">",,,
,81.64499997,stimulus-presentation,173,246547,0.0-16.0-1.17,SS1602730104581,<img src='images/simple/70.png' width ='500' height = '500' style='border:5px solid black'>,40,mixed_complex_deviant,images/simple/68.png,images/simple/70.png,"images/complex/72.png,images/complex/8.png,images/complex/42.png,images/complex/19.png,images/complex/112.png,images/complex/77.png,images/complex/63.png,images/complex/87.png,images/complex/85.png",1,null,,600,681.645,,,,background,,
,null,html-keyboard-response,174,247395,0.0-16.0-0.18,SS1602730104581,,null,,,,,,,,,,,,"<img src=images/blank.png width =""500"" height = ""500"" style=""border:5px solid black"">",,,
,277.79,stimulus-presentation,175,248281,0.0-16.0-1.18,SS1602730104581,<img src='images/simple/70.png' width ='500' height = '500' style='border:5px solid black'>,40,mixed_complex_deviant,images/simple/68.png,images/simple/70.png,"images/complex/72.png,images/complex/8.png,images/complex/42.png,images/complex/19.png,images/complex/112.png,images/complex/77.png,images/complex/63.png,images/complex/87.png,images/complex/85.png",1,null,,600,877.79,,,,background,,
,null,html-keyboard-response,176,249144,0.0-16.0-0.19,SS1602730104581,,null,,,,,,,,,,,,"<img src=images/blank.png width =""500"" height = ""500"" style=""border:5px solid black"">",,,
,113.03,stimulus-presentation,177,249866,0.0-16.0-1.19,SS1602730104581,<img src='images/simple/70.png' width ='500' height = '500' style='border:5px solid black'>,40,mixed_complex_deviant,images/simple/68.png,images/simple/70.png,"images/complex/72.png,images/complex/8.png,images/complex/42.png,images/complex/19.png,images/complex/112.png,images/complex/77.png,images/complex/63.png,images/complex/87.png,images/complex/85.png",1,null,,600,713.03,,,,background,,
,null,html-keyboard-response,178,250898,0.0-16.0-0.20,SS1602730104581,,null,,,,,,,,,,,,"<img src=images/blank.png width =""500"" height = ""500"" style=""border:5px solid black"">",,,
,52.62999999,stimulus-presentation,179,251563,0.0-16.0-1.20,SS1602730104581,<img src='images/simple/70.png' width ='500' height = '500' style='border:5px solid black'>,40,mixed_complex_deviant,images/simple/68.png,images/simple/70.png,"images/complex/72.png,images/complex/8.png,images/complex/42.png,images/complex/19.png,images/complex/112.png,images/complex/77.png,images/complex/63.png,images/complex/87.png,images/complex/85.png",1,null,,600,652.63,,,,background,,
,null,html-keyboard-response,180,252483,0.0-16.0-0.21,SS1602730104581,,null,,,,,,,,,,,,"<img src=images/blank.png width =""500"" height = ""500"" style=""border:5px solid black"">",,,
,292.73,stimulus-presentation,181,253388,0.0-16.0-1.21,SS1602730104581,<img src='images/complex/85.png' width ='500' height = '500' style='border:5px solid black'>,40,mixed_complex_deviant,images/simple/68.png,images/simple/70.png,"images/complex/72.png,images/complex/8.png,images/complex/42.png,images/complex/19.png,images/complex/112.png,images/complex/77.png,images/complex/63.png,images/complex/87.png,images/complex/85.png",1,null,,600,892.73,,,,deviant,,
,null,html-keyboard-response,182,254206,0.0-16.0-0.22,SS1602730104581,,null,,,,,,,,,,,,"<img src=images/blank.png width =""500"" height = ""500"" style=""border:5px solid black"">",,,
,136.945,stimulus-presentation,183,254956,0.0-16.0-1.22,SS1602730104581,<img src='images/simple/70.png' width ='500' height = '500' style='border:5px solid black'>,40,mixed_complex_deviant,images/simple/68.png,images/simple/70.png,"images/complex/72.png,images/complex/8.png,images/complex/42.png,images/complex/19.png,images/complex/112.png,images/complex/77.png,images/complex/63.png,images/complex/87.png,images/complex/85.png",1,null,,600,736.945,,,,background,,
,null,html-keyboard-response,184,256217,0.0-16.0-0.23,SS1602730104581,,null,,,,,,,,,,,,"<img src=images/blank.png width =""500"" height = ""500"" style=""border:5px solid black"">",,,
,65.14000002,stimulus-presentation,185,256890,0.0-16.0-1.23,SS1602730104581,<img src='images/simple/70.png' width ='500' height = '500' style='border:5px solid black'>,40,mixed_complex_deviant,images/simple/68.png,images/simple/70.png,"images/complex/72.png,images/complex/8.png,images/complex/42.png,images/complex/19.png,images/complex/112.png,images/complex/77.png,images/complex/63.png,images/complex/87.png,images/complex/85.png",1,null,,600,665.14,,,,background,,
,null,html-keyboard-response,186,257810,0.0-16.0-0.24,SS1602730104581,,null,,,,,,,,,,,,"<img src=images/blank.png width =""500"" height = ""500"" style=""border:5px solid black"">",,,
,191.27,stimulus-presentation,187,258614,0.0-16.0-1.24,SS1602730104581,<img src='images/simple/70.png' width ='500' height = '500' style='border:5px solid black'>,40,mixed_complex_deviant,images/simple/68.png,images/simple/70.png,"images/complex/72.png,images/complex/8.png,images/complex/42.png,images/complex/19.png,images/complex/112.png,images/complex/77.png,images/complex/63.png,images/complex/87.png,images/complex/85.png",1,null,,600,791.27,,,,background,,
,null,html-keyboard-response,188,259662,0.0-16.0-0.25,SS1602730104581,,null,,,,,,,,,,,,"<img src=images/blank.png width =""500"" height = ""500"" style=""border:5px solid black"">",,,
,166.285,stimulus-presentation,189,260443,0.0-16.0-1.25,SS1602730104581,<img src='images/simple/68.png' width ='500' height = '500' style='border:5px solid black'>,40,mixed_complex_deviant,images/simple/68.png,images/simple/70.png,"images/complex/72.png,images/complex/8.png,images/complex/42.png,images/complex/19.png,images/complex/112.png,images/complex/77.png,images/complex/63.png,images/complex/87.png,images/complex/85.png",1,null,,600,766.285,,,,target,,
,null,html-keyboard-response,190,261654,0.0-16.0-0.26,SS1602730104581,,null,,,,,,,,,,,,"<img src=images/blank.png width =""500"" height = ""500"" style=""border:5px solid black"">",,,
,90.20999999,stimulus-presentation,191,262356,0.0-16.0-1.26,SS1602730104581,<img src='images/simple/70.png' width ='500' height = '500' style='border:5px solid black'>,40,mixed_complex_deviant,images/simple/68.png,images/simple/70.png,"images/complex/72.png,images/complex/8.png,images/complex/42.png,images/complex/19.png,images/complex/112.png,images/complex/77.png,images/complex/63.png,images/complex/87.png,images/complex/85.png",1,null,,600,690.21,,,,background,,
,null,html-keyboard-response,192,263213,0.0-16.0-0.27,SS1602730104581,,null,,,,,,,,,,,,"<img src=images/blank.png width =""500"" height = ""500"" style=""border:5px solid black"">",,,
,699.775,stimulus-presentation,193,264523,0.0-16.0-1.27,SS1602730104581,<img src='images/complex/63.png' width ='500' height = '500' style='border:5px solid black'>,40,mixed_complex_deviant,images/simple/68.png,images/simple/70.png,"images/complex/72.png,images/complex/8.png,images/complex/42.png,images/complex/19.png,images/complex/112.png,images/complex/77.png,images/complex/63.png,images/complex/87.png,images/complex/85.png",1,null,,600,1299.775,,,,deviant,,
,null,html-keyboard-response,194,265344,0.0-16.0-0.28,SS1602730104581,,null,,,,,,,,,,,,"<img src=images/blank.png width =""500"" height = ""500"" style=""border:5px solid black"">",,,
,11.77500002,stimulus-presentation,195,265967,0.0-16.0-1.28,SS1602730104581,<img src='images/simple/70.png' width ='500' height = '500' style='border:5px solid black'>,40,mixed_complex_deviant,images/simple/68.png,images/simple/70.png,"images/complex/72.png,images/complex/8.png,images/complex/42.png,images/complex/19.png,images/complex/112.png,images/complex/77.png,images/complex/63.png,images/complex/87.png,images/complex/85.png",1,null,,600,611.775,,,,background,,
,null,html-keyboard-response,196,267212,0.0-16.0-0.29,SS1602730104581,,null,,,,,,,,,,,,"<img src=images/blank.png width =""500"" height = ""500"" style=""border:5px solid black"">",,,
,305.99,stimulus-presentation,197,268132,0.0-16.0-1.29,SS1602730104581,<img src='images/simple/70.png' width ='500' height = '500' style='border:5px solid black'>,40,mixed_complex_deviant,images/simple/68.png,images/simple/70.png,"images/complex/72.png,images/complex/8.png,images/complex/42.png,images/complex/19.png,images/complex/112.png,images/complex/77.png,images/complex/63.png,images/complex/87.png,images/complex/85.png",1,null,,600,905.99,,,,background,,
,null,html-keyboard-response,198,269084,0.0-16.0-0.30,SS1602730104581,,null,,,,,,,,,,,,"<img src=images/blank.png width =""500"" height = ""500"" style=""border:5px solid black"">",,,
,16.90499997,stimulus-presentation,199,269709,0.0-16.0-1.30,SS1602730104581,<img src='images/simple/70.png' width ='500' height = '500' style='border:5px solid black'>,40,mixed_complex_deviant,images/simple/68.png,images/simple/70.png,"images/complex/72.png,images/complex/8.png,images/complex/42.png,images/complex/19.png,images/complex/112.png,images/complex/77.png,images/complex/63.png,images/complex/87.png,images/complex/85.png",1,null,,600,616.905,,,,background,,
,null,html-keyboard-response,200,270556,0.0-16.0-0.31,SS1602730104581,,null,,,,,,,,,,,,"<img src=images/blank.png width =""500"" height = ""500"" style=""border:5px solid black"">",,,
,535.01,stimulus-presentation,201,271700,0.0-16.0-1.31,SS1602730104581,<img src='images/complex/87.png' width ='500' height = '500' style='border:5px solid black'>,40,mixed_complex_deviant,images/simple/68.png,images/simple/70.png,"images/complex/72.png,images/complex/8.png,images/complex/42.png,images/complex/19.png,images/complex/112.png,images/complex/77.png,images/complex/63.png,images/complex/87.png,images/complex/85.png",1,null,,600,1135.01,,,,deviant,,
,null,html-keyboard-response,202,273001,0.0-16.0-0.32,SS1602730104581,,null,,,,,,,,,,,,"<img src=images/blank.png width =""500"" height = ""500"" style=""border:5px solid black"">",,,
,45.85500003,stimulus-presentation,203,273661,0.0-16.0-1.32,SS1602730104581,<img src='images/simple/70.png' width ='500' height = '500' style='border:5px solid black'>,40,mixed_complex_deviant,images/simple/68.png,images/simple/70.png,"images/complex/72.png,images/complex/8.png,images/complex/42.png,images/complex/19.png,images/complex/112.png,images/complex/77.png,images/complex/63.png,images/complex/87.png,images/complex/85.png",1,null,,600,645.855,,,,background,,
,null,html-keyboard-response,204,274937,0.0-16.0-0.33,SS1602730104581,,null,,,,,,,,,,,,"<img src=images/blank.png width =""500"" height = ""500"" style=""border:5px solid black"">",,,
,687.565,stimulus-presentation,205,276235,0.0-16.0-1.33,SS1602730104581,<img src='images/simple/70.png' width ='500' height = '500' style='border:5px solid black'>,40,mixed_complex_deviant,images/simple/68.png,images/simple/70.png,"images/complex/72.png,images/complex/8.png,images/complex/42.png,images/complex/19.png,images/complex/112.png,images/complex/77.png,images/complex/63.png,images/complex/87.png,images/complex/85.png",1,null,,600,1287.565,,,,background,,
,null,html-keyboard-response,206,277198,0.0-16.0-0.34,SS1602730104581,,null,,,,,,,,,,,,"<img src=images/blank.png width =""500"" height = ""500"" style=""border:5px solid black"">",,,
,171.43,stimulus-presentation,207,277979,0.0-16.0-1.34,SS1602730104581,<img src='images/simple/70.png' width ='500' height = '500' style='border:5px solid black'>,40,mixed_complex_deviant,images/simple/68.png,images/simple/70.png,"images/complex/72.png,images/complex/8.png,images/complex/42.png,images/complex/19.png,images/complex/112.png,images/complex/77.png,images/complex/63.png,images/complex/87.png,images/complex/85.png",1,null,,600,771.43,,,,background,,
,null,html-keyboard-response,208,279069,0.0-16.0-0.35,SS1602730104581,,null,,,,,,,,,,,,"<img src=images/blank.png width =""500"" height = ""500"" style=""border:5px solid black"">",,,
,880.275,stimulus-presentation,209,280557,0.0-16.0-1.35,SS1602730104581,<img src='images/complex/19.png' width ='500' height = '500' style='border:5px solid black'>,40,mixed_complex_deviant,images/simple/68.png,images/simple/70.png,"images/complex/72.png,images/complex/8.png,images/complex/42.png,images/complex/19.png,images/complex/112.png,images/complex/77.png,images/complex/63.png,images/complex/87.png,images/complex/85.png",1,null,,600,1480.275,,,,deviant,,
,null,html-keyboard-response,210,281668,0.0-16.0-0.36,SS1602730104581,,null,,,,,,,,,,,,"<img src=images/blank.png width =""500"" height = ""500"" style=""border:5px solid black"">",,,
,74.85500001,stimulus-presentation,211,282355,0.0-16.0-1.36,SS1602730104581,<img src='images/simple/68.png' width ='500' height = '500' style='border:5px solid black'>,40,mixed_complex_deviant,images/simple/68.png,images/simple/70.png,"images/complex/72.png,images/complex/8.png,images/complex/42.png,images/complex/19.png,images/complex/112.png,images/complex/77.png,images/complex/63.png,images/complex/87.png,images/complex/85.png",1,null,,600,674.855,,,,target,,
,null,html-keyboard-response,212,283209,0.0-16.0-0.37,SS1602730104581,,null,,,,,,,,,,,,"<img src=images/blank.png width =""500"" height = ""500"" style=""border:5px solid black"">",,,
,368.555,stimulus-presentation,213,284186,0.0-16.0-1.37,SS1602730104581,<img src='images/simple/70.png' width ='500' height = '500' style='border:5px solid black'>,40,mixed_complex_deviant,images/simple/68.png,images/simple/70.png,"images/complex/72.png,images/complex/8.png,images/complex/42.png,images/complex/19.png,images/complex/112.png,images/complex/77.png,images/complex/63.png,images/complex/87.png,images/complex/85.png",1,null,,600,968.555,,,,background,,
,null,html-keyboard-response,214,285198,0.0-16.0-0.38,SS1602730104581,,null,,,,,,,,,,,,"<img src=images/blank.png width =""500"" height = ""500"" style=""border:5px solid black"">",,,
,153.335,stimulus-presentation,215,285962,0.0-16.0-1.38,SS1602730104581,<img src='images/simple/70.png' width ='500' height = '500' style='border:5px solid black'>,40,mixed_complex_deviant,images/simple/68.png,images/simple/70.png,"images/complex/72.png,images/complex/8.png,images/complex/42.png,images/complex/19.png,images/complex/112.png,images/complex/77.png,images/complex/63.png,images/complex/87.png,images/complex/85.png",1,null,,600,753.335,,,,background,,
,null,html-keyboard-response,216,287246,0.0-16.0-0.39,SS1602730104581,,null,,,,,,,,,,,,"<img src=images/blank.png width =""500"" height = ""500"" style=""border:5px solid black"">",,,
,105.28,stimulus-presentation,217,287964,0.0-16.0-1.39,SS1602730104581,<img src='images/simple/70.png' width ='500' height = '500' style='border:5px solid black'>,40,mixed_complex_deviant,images/simple/68.png,images/simple/70.png,"images/complex/72.png,images/complex/8.png,images/complex/42.png,images/complex/19.png,images/complex/112.png,images/complex/77.png,images/complex/63.png,images/complex/87.png,images/complex/85.png",1,null,,600,705.28,,,,background,,
,null,html-keyboard-response,218,289177,0.0-16.0-0.40,SS1602730104581,,null,,,,,,,,,,,,"<img src=images/blank.png width =""500"" height = ""500"" style=""border:5px solid black"">",,,
,44.15500001,stimulus-presentation,219,289836,0.0-16.0-1.40,SS1602730104581,<img src='images/simple/70.png' width ='500' height = '500' style='border:5px solid black'>,40,mixed_complex_deviant,images/simple/68.png,images/simple/70.png,"images/complex/72.png,images/complex/8.png,images/complex/42.png,images/complex/19.png,images/complex/112.png,images/complex/77.png,images/complex/63.png,images/complex/87.png,images/complex/85.png",1,null,,600,644.155,,,,background,,
,null,html-keyboard-response,220,290926,0.0-16.0-0.41,SS1602730104581,,null,,,,,,,,,,,,"<img src=images/blank.png width =""500"" height = ""500"" style=""border:5px solid black"">",,,
,180.345,stimulus-presentation,221,291716,0.0-16.0-1.41,SS1602730104581,<img src='images/simple/70.png' width ='500' height = '500' style='border:5px solid black'>,40,mixed_complex_deviant,images/simple/68.png,images/simple/70.png,"images/complex/72.png,images/complex/8.png,images/complex/42.png,images/complex/19.png,images/complex/112.png,images/complex/77.png,images/complex/63.png,images/complex/87.png,images/complex/85.png",1,null,,600,780.345,,,,background,,
,null,html-keyboard-response,222,292962,0.0-16.0-0.42,SS1602730104581,,null,,,,,,,,,,,,"<img src=images/blank.png width =""500"" height = ""500"" style=""border:5px solid black"">",,,
,118.015,stimulus-presentation,223,293691,0.0-16.0-1.42,SS1602730104581,<img src='images/simple/70.png' width ='500' height = '500' style='border:5px solid black'>,40,mixed_complex_deviant,images/simple/68.png,images/simple/70.png,"images/complex/72.png,images/complex/8.png,images/complex/42.png,images/complex/19.png,images/complex/112.png,images/complex/77.png,images/complex/63.png,images/complex/87.png,images/complex/85.png",1,null,,600,718.015,,,,background,,
,null,html-keyboard-response,224,294916,0.0-16.0-0.43,SS1602730104581,,null,,,,,,,,,,,,"<img src=images/blank.png width =""500"" height = ""500"" style=""border:5px solid black"">",,,
,130.37,stimulus-presentation,225,295657,0.0-16.0-1.43,SS1602730104581,<img src='images/simple/70.png' width ='500' height = '500' style='border:5px solid black'>,40,mixed_complex_deviant,images/simple/68.png,images/simple/70.png,"images/complex/72.png,images/complex/8.png,images/complex/42.png,images/complex/19.png,images/complex/112.png,images/complex/77.png,images/complex/63.png,images/complex/87.png,images/complex/85.png",1,null,,600,730.37,,,,background,,
,null,html-keyboard-response,226,296804,0.0-16.0-0.44,SS1602730104581,,null,,,,,,,,,,,,"<img src=images/blank.png width =""500"" height = ""500"" style=""border:5px solid black"">",,,
,144.875,stimulus-presentation,227,297564,0.0-16.0-1.44,SS1602730104581,<img src='images/simple/70.png' width ='500' height = '500' style='border:5px solid black'>,40,mixed_complex_deviant,images/simple/68.png,images/simple/70.png,"images/complex/72.png,images/complex/8.png,images/complex/42.png,images/complex/19.png,images/complex/112.png,images/complex/77.png,images/complex/63.png,images/complex/87.png,images/complex/85.png",1,null,,600,744.875,,,,background,,
,null,html-keyboard-response,228,298430,0.0-16.0-0.45,SS1602730104581,,null,,,,,,,,,,,,"<img src=images/blank.png width =""500"" height = ""500"" style=""border:5px solid black"">",,,
,200.44,stimulus-presentation,229,299245,0.0-16.0-1.45,SS1602730104581,<img src='images/complex/112.png' width ='500' height = '500' style='border:5px solid black'>,40,mixed_complex_deviant,images/simple/68.png,images/simple/70.png,"images/complex/72.png,images/complex/8.png,images/complex/42.png,images/complex/19.png,images/complex/112.png,images/complex/77.png,images/complex/63.png,images/complex/87.png,images/complex/85.png",1,null,,600,800.44,,,,deviant,,
,null,html-keyboard-response,230,300492,0.0-16.0-0.46,SS1602730104581,,null,,,,,,,,,,,,"<img src=images/blank.png width =""500"" height = ""500"" style=""border:5px solid black"">",,,
,26.87,stimulus-presentation,231,301131,0.0-16.0-1.46,SS1602730104581,<img src='images/simple/68.png' width ='500' height = '500' style='border:5px solid black'>,40,mixed_complex_deviant,images/simple/68.png,images/simple/70.png,"images/complex/72.png,images/complex/8.png,images/complex/42.png,images/complex/19.png,images/complex/112.png,images/complex/77.png,images/complex/63.png,images/complex/87.png,images/complex/85.png",1,null,,600,626.87,,,,target,,
,null,html-keyboard-response,232,302234,0.0-16.0-0.47,SS1602730104581,,null,,,,,,,,,,,,"<img src=images/blank.png width =""500"" height = ""500"" style=""border:5px solid black"">",,,
,39.48500002,stimulus-presentation,233,302884,0.0-16.0-1.47,SS1602730104581,<img src='images/simple/68.png' width ='500' height = '500' style='border:5px solid black'>,40,mixed_complex_deviant,images/simple/68.png,images/simple/70.png,"images/complex/72.png,images/complex/8.png,images/complex/42.png,images/complex/19.png,images/complex/112.png,images/complex/77.png,images/complex/63.png,images/complex/87.png,images/complex/85.png",1,null,,600,639.485,,,,target,,
,null,html-keyboard-response,234,303894,0.0-16.0-0.48,SS1602730104581,,null,,,,,,,,,,,,"<img src=images/blank.png width =""500"" height = ""500"" style=""border:5px solid black"">",,,
,110.955,stimulus-presentation,235,304620,0.0-16.0-1.48,SS1602730104581,<img src='images/simple/70.png' width ='500' height = '500' style='border:5px solid black'>,40,mixed_complex_deviant,images/simple/68.png,images/simple/70.png,"images/complex/72.png,images/complex/8.png,images/complex/42.png,images/complex/19.png,images/complex/112.png,images/complex/77.png,images/complex/63.png,images/complex/87.png,images/complex/85.png",1,null,,600,710.955,,,,background,,
,null,html-keyboard-response,236,305813,0.0-16.0-0.49,SS1602730104581,,null,,,,,,,,,,,,"<img src=images/blank.png width =""500"" height = ""500"" style=""border:5px solid black"">",,,
,140.455,stimulus-presentation,237,306564,0.0-16.0-1.49,SS1602730104581,<img src='images/simple/70.png' width ='500' height = '500' style='border:5px solid black'>,40,mixed_complex_deviant,images/simple/68.png,images/simple/70.png,"images/complex/72.png,images/complex/8.png,images/complex/42.png,images/complex/19.png,images/complex/112.png,images/complex/77.png,images/complex/63.png,images/complex/87.png,images/complex/85.png",1,null,,600,740.455,,,,background,,
,null,html-keyboard-response,238,307805,0.0-16.0-0.50,SS1602730104581,,null,,,,,,,,,,,,"<img src=images/blank.png width =""500"" height = ""500"" style=""border:5px solid black"">",,,
,232.88,stimulus-presentation,239,308652,0.0-16.0-1.50,SS1602730104581,<img src='images/complex/72.png' width ='500' height = '500' style='border:5px solid black'>,40,mixed_complex_deviant,images/simple/68.png,images/simple/70.png,"images/complex/72.png,images/complex/8.png,images/complex/42.png,images/complex/19.png,images/complex/112.png,images/complex/77.png,images/complex/63.png,images/complex/87.png,images/complex/85.png",1,null,,600,832.88,,,,deviant,,
,null,html-keyboard-response,240,309938,0.0-16.0-0.51,SS1602730104581,,null,,,,,,,,,,,,"<img src=images/blank.png width =""500"" height = ""500"" style=""border:5px solid black"">",,,
,46.99499998,stimulus-presentation,241,310596,0.0-16.0-1.51,SS1602730104581,<img src='images/simple/70.png' width ='500' height = '500' style='border:5px solid black'>,40,mixed_complex_deviant,images/simple/68.png,images/simple/70.png,"images/complex/72.png,images/complex/8.png,images/complex/42.png,images/complex/19.png,images/complex/112.png,images/complex/77.png,images/complex/63.png,images/complex/87.png,images/complex/85.png",1,null,,600,646.995,,,,background,,
,null,html-keyboard-response,242,311769,0.0-16.0-0.52,SS1602730104581,,null,,,,,,,,,,,,"<img src=images/blank.png width =""500"" height = ""500"" style=""border:5px solid black"">",,,
,27.33499999,stimulus-presentation,243,312411,0.0-16.0-1.52,SS1602730104581,<img src='images/simple/70.png' width ='500' height = '500' style='border:5px solid black'>,40,mixed_complex_deviant,images/simple/68.png,images/simple/70.png,"images/complex/72.png,images/complex/8.png,images/complex/42.png,images/complex/19.png,images/complex/112.png,images/complex/77.png,images/complex/63.png,images/complex/87.png,images/complex/85.png",1,null,,600,627.335,,,,background,,
,null,html-keyboard-response,244,313284,0.0-16.0-0.53,SS1602730104581,,null,,,,,,,,,,,,"<img src=images/blank.png width =""500"" height = ""500"" style=""border:5px solid black"">",,,
,108.53,stimulus-presentation,245,314005,0.0-16.0-1.53,SS1602730104581,<img src='images/simple/70.png' width ='500' height = '500' style='border:5px solid black'>,40,mixed_complex_deviant,images/simple/68.png,images/simple/70.png,"images/complex/72.png,images/complex/8.png,images/complex/42.png,images/complex/19.png,images/complex/112.png,images/complex/77.png,images/complex/63.png,images/complex/87.png,images/complex/85.png",1,null,,600,708.53,,,,background,,
,null,html-keyboard-response,246,315299,0.0-16.0-0.54,SS1602730104581,,null,,,,,,,,,,,,"<img src=images/blank.png width =""500"" height = ""500"" style=""border:5px solid black"">",,,
,44.85500004,stimulus-presentation,247,315955,0.0-16.0-1.54,SS1602730104581,<img src='images/simple/70.png' width ='500' height = '500' style='border:5px solid black'>,40,mixed_complex_deviant,images/simple/68.png,images/simple/70.png,"images/complex/72.png,images/complex/8.png,images/complex/42.png,images/complex/19.png,images/complex/112.png,images/complex/77.png,images/complex/63.png,images/complex/87.png,images/complex/85.png",1,null,,600,644.855,,,,background,,
,null,html-keyboard-response,248,316907,0.0-16.0-0.55,SS1602730104581,,null,,,,,,,,,,,,"<img src=images/blank.png width =""500"" height = ""500"" style=""border:5px solid black"">",,,
,163.2,stimulus-presentation,249,317683,0.0-16.0-1.55,SS1602730104581,<img src='images/simple/70.png' width ='500' height = '500' style='border:5px solid black'>,40,mixed_complex_deviant,images/simple/68.png,images/simple/70.png,"images/complex/72.png,images/complex/8.png,images/complex/42.png,images/complex/19.png,images/complex/112.png,images/complex/77.png,images/complex/63.png,images/complex/87.png,images/complex/85.png",1,null,,600,763.2,,,,background,,
,null,html-keyboard-response,250,318645,0.0-16.0-0.56,SS1602730104581,,null,,,,,,,,,,,,"<img src=images/blank.png width =""500"" height = ""500"" style=""border:5px solid black"">",,,
,97.07000002,stimulus-presentation,251,319356,0.0-16.0-1.56,SS1602730104581,<img src='images/simple/68.png' width ='500' height = '500' style='border:5px solid black'>,40,mixed_complex_deviant,images/simple/68.png,images/simple/70.png,"images/complex/72.png,images/complex/8.png,images/complex/42.png,images/complex/19.png,images/complex/112.png,images/complex/77.png,images/complex/63.png,images/complex/87.png,images/complex/85.png",1,null,,600,697.07,,,,target,,
,null,html-keyboard-response,252,320349,0.0-16.0-0.57,SS1602730104581,,null,,,,,,,,,,,,"<img src=images/blank.png width =""500"" height = ""500"" style=""border:5px solid black"">",,,
,104.7,stimulus-presentation,253,321067,0.0-16.0-1.57,SS1602730104581,<img src='images/simple/70.png' width ='500' height = '500' style='border:5px solid black'>,40,mixed_complex_deviant,images/simple/68.png,images/simple/70.png,"images/complex/72.png,images/complex/8.png,images/complex/42.png,images/complex/19.png,images/complex/112.png,images/complex/77.png,images/complex/63.png,images/complex/87.png,images/complex/85.png",1,null,,600,704.7,,,,background,,
,null,html-keyboard-response,254,322149,0.0-16.0-0.58,SS1602730104581,,null,,,,,,,,,,,,"<img src=images/blank.png width =""500"" height = ""500"" style=""border:5px solid black"">",,,
,77.77999999,stimulus-presentation,255,322836,0.0-16.0-1.58,SS1602730104581,<img src='images/simple/68.png' width ='500' height = '500' style='border:5px solid black'>,40,mixed_complex_deviant,images/simple/68.png,images/simple/70.png,"images/complex/72.png,images/complex/8.png,images/complex/42.png,images/complex/19.png,images/complex/112.png,images/complex/77.png,images/complex/63.png,images/complex/87.png,images/complex/85.png",1,null,,600,677.78,,,,target,,
,null,html-keyboard-response,256,323757,0.0-16.0-0.59,SS1602730104581,,null,,,,,,,,,,,,"<img src=images/blank.png width =""500"" height = ""500"" style=""border:5px solid black"">",,,
,21.61499998,stimulus-presentation,257,324389,0.0-16.0-1.59,SS1602730104581,<img src='images/simple/68.png' width ='500' height = '500' style='border:5px solid black'>,40,mixed_complex_deviant,images/simple/68.png,images/simple/70.png,"images/complex/72.png,images/complex/8.png,images/complex/42.png,images/complex/19.png,images/complex/112.png,images/complex/77.png,images/complex/63.png,images/complex/87.png,images/complex/85.png",1,null,,600,621.615,,,,target,,
,null,html-keyboard-response,258,325244,0.0-16.0-0.60,SS1602730104581,,null,,,,,,,,,,,,"<img src=images/blank.png width =""500"" height = ""500"" style=""border:5px solid black"">",,,
,48.62999998,stimulus-presentation,259,325906,0.0-16.0-1.60,SS1602730104581,<img src='images/simple/70.png' width ='500' height = '500' style='border:5px solid black'>,40,mixed_complex_deviant,images/simple/68.png,images/simple/70.png,"images/complex/72.png,images/complex/8.png,images/complex/42.png,images/complex/19.png,images/complex/112.png,images/complex/77.png,images/complex/63.png,images/complex/87.png,images/complex/85.png",1,null,,600,648.63,,,,background,,
"[{""page_index"":0,""viewing_time"":2249}]",2250,task-instructions,260,328166,0.0-17.0,SS1602730104581,,,,,,,,,,,,,,,,,
"[{""page_index"":0,""viewing_time"":1516.7950000031851},{""page_index"":1,""viewing_time"":1225.0800000037998},{""page_index"":2,""viewing_time"":733.3750000107102}]",3475.53,instructions,261,331645,0.0-18.0,SS1602730104581,,,,,,,,,,,,,,,,,
,null,html-keyboard-response,262,332857,0.0-19.0-0.0,SS1602730104581,,null,,,,,,,,,,,,"<img src=images/blank.png width =""500"" height = ""500"" style=""border:5px solid black"">",,,
,105.535,stimulus-presentation,263,333573,0.0-19.0-1.0,SS1602730104581,<img src='images/simple/39.png' width ='500' height = '500' style='border:5px solid black'>,40,mixed_simple_deviant,images/complex/36.png,images/complex/1.png,"images/simple/40.png,images/simple/39.png,images/simple/69.png,images/simple/63.png,images/simple/112.png,images/simple/24.png,images/simple/8.png,images/simple/81.png,images/simple/86.png",2,null,,600,705.535,,,,deviant,,
,null,html-keyboard-response,264,334665,0.0-19.0-0.1,SS1602730104581,,null,,,,,,,,,,,,"<img src=images/blank.png width =""500"" height = ""500"" style=""border:5px solid black"">",,,
,112.94,stimulus-presentation,265,335391,0.0-19.0-1.1,SS1602730104581,<img src='images/complex/1.png' width ='500' height = '500' style='border:5px solid black'>,40,mixed_simple_deviant,images/complex/36.png,images/complex/1.png,"images/simple/40.png,images/simple/39.png,images/simple/69.png,images/simple/63.png,images/simple/112.png,images/simple/24.png,images/simple/8.png,images/simple/81.png,images/simple/86.png",2,null,,600,712.94,,,,background,,
,null,html-keyboard-response,266,336379,0.0-19.0-0.2,SS1602730104581,,null,,,,,,,,,,,,"<img src=images/blank.png width =""500"" height = ""500"" style=""border:5px solid black"">",,,
,92.85999998,stimulus-presentation,267,337084,0.0-19.0-1.2,SS1602730104581,<img src='images/complex/1.png' width ='500' height = '500' style='border:5px solid black'>,40,mixed_simple_deviant,images/complex/36.png,images/complex/1.png,"images/simple/40.png,images/simple/39.png,images/simple/69.png,images/simple/63.png,images/simple/112.png,images/simple/24.png,images/simple/8.png,images/simple/81.png,images/simple/86.png",2,null,,600,692.86,,,,background,,
,null,html-keyboard-response,268,338388,0.0-19.0-0.3,SS1602730104581,,null,,,,,,,,,,,,"<img src=images/blank.png width =""500"" height = ""500"" style=""border:5px solid black"">",,,
,1024.275,stimulus-presentation,269,340025,0.0-19.0-1.3,SS1602730104581,<img src='images/complex/36.png' width ='500' height = '500' style='border:5px solid black'>,40,mixed_simple_deviant,images/complex/36.png,images/complex/1.png,"images/simple/40.png,images/simple/39.png,images/simple/69.png,images/simple/63.png,images/simple/112.png,images/simple/24.png,images/simple/8.png,images/simple/81.png,images/simple/86.png",2,null,,600,1624.275,yes,162.56,,target,,
,null,html-keyboard-response,270,341191,0.0-19.0-0.4,SS1602730104581,,null,,,,,,,,,,,,"<img src=images/blank.png width =""500"" height = ""500"" style=""border:5px solid black"">",,,
,55.31000003,stimulus-presentation,271,341861,0.0-19.0-1.4,SS1602730104581,<img src='images/simple/24.png' width ='500' height = '500' style='border:5px solid black'>,40,mixed_simple_deviant,images/complex/36.png,images/complex/1.png,"images/simple/40.png,images/simple/39.png,images/simple/69.png,images/simple/63.png,images/simple/112.png,images/simple/24.png,images/simple/8.png,images/simple/81.png,images/simple/86.png",2,null,,600,655.31,,,,deviant,,
,null,html-keyboard-response,272,342884,0.0-19.0-0.5,SS1602730104581,,null,,,,,,,,,,,,"<img src=images/blank.png width =""500"" height = ""500"" style=""border:5px solid black"">",,,
,183.115,stimulus-presentation,273,343683,0.0-19.0-1.5,SS1602730104581,<img src='images/complex/1.png' width ='500' height = '500' style='border:5px solid black'>,40,mixed_simple_deviant,images/complex/36.png,images/complex/1.png,"images/simple/40.png,images/simple/39.png,images/simple/69.png,images/simple/63.png,images/simple/112.png,images/simple/24.png,images/simple/8.png,images/simple/81.png,images/simple/86.png",2,null,,600,783.115,,,,background,,
,null,html-keyboard-response,274,344641,0.0-19.0-0.6,SS1602730104581,,null,,,,,,,,,,,,"<img src=images/blank.png width =""500"" height = ""500"" style=""border:5px solid black"">",,,
,224.485,stimulus-presentation,275,345476,0.0-19.0-1.6,SS1602730104581,<img src='images/complex/1.png' width ='500' height = '500' style='border:5px solid black'>,40,mixed_simple_deviant,images/complex/36.png,images/complex/1.png,"images/simple/40.png,images/simple/39.png,images/simple/69.png,images/simple/63.png,images/simple/112.png,images/simple/24.png,images/simple/8.png,images/simple/81.png,images/simple/86.png",2,null,,600,824.485,,,,background,,
,null,html-keyboard-response,276,346680,0.0-19.0-0.7,SS1602730104581,,null,,,,,,,,,,,,"<img src=images/blank.png width =""500"" height = ""500"" style=""border:5px solid black"">",,,
,1519.235,stimulus-presentation,277,348811,0.0-19.0-1.7,SS1602730104581,<img src='images/complex/36.png' width ='500' height = '500' style='border:5px solid black'>,40,mixed_simple_deviant,images/complex/36.png,images/complex/1.png,"images/simple/40.png,images/simple/39.png,images/simple/69.png,images/simple/63.png,images/simple/112.png,images/simple/24.png,images/simple/8.png,images/simple/81.png,images/simple/86.png",2,null,,600,2119.235,yes,248.28,,target,,
,null,html-keyboard-response,278,349738,0.0-19.0-0.8,SS1602730104581,,null,,,,,,,,,,,,"<img src=images/blank.png width =""500"" height = ""500"" style=""border:5px solid black"">",,,
,36.38000001,stimulus-presentation,279,350389,0.0-19.0-1.8,SS1602730104581,<img src='images/complex/1.png' width ='500' height = '500' style='border:5px solid black'>,40,mixed_simple_deviant,images/complex/36.png,images/complex/1.png,"images/simple/40.png,images/simple/39.png,images/simple/69.png,images/simple/63.png,images/simple/112.png,images/simple/24.png,images/simple/8.png,images/simple/81.png,images/simple/86.png",2,null,,600,636.38,,,,background,,
,null,html-keyboard-response,280,351620,0.0-19.0-0.9,SS1602730104581,,null,,,,,,,,,,,,"<img src=images/blank.png width =""500"" height = ""500"" style=""border:5px solid black"">",,,
,74.20999999,stimulus-presentation,281,352308,0.0-19.0-1.9,SS1602730104581,<img src='images/complex/1.png' width ='500' height = '500' style='border:5px solid black'>,40,mixed_simple_deviant,images/complex/36.png,images/complex/1.png,"images/simple/40.png,images/simple/39.png,images/simple/69.png,images/simple/63.png,images/simple/112.png,images/simple/24.png,images/simple/8.png,images/simple/81.png,images/simple/86.png",2,null,,600,674.21,,,,background,,
,null,html-keyboard-response,282,353416,0.0-19.0-0.10,SS1602730104581,,null,,,,,,,,,,,,"<img src=images/blank.png width =""500"" height = ""500"" style=""border:5px solid black"">",,,
,29.54999998,stimulus-presentation,283,354061,0.0-19.0-1.10,SS1602730104581,<img src='images/complex/1.png' width ='500' height = '500' style='border:5px solid black'>,40,mixed_simple_deviant,images/complex/36.png,images/complex/1.png,"images/simple/40.png,images/simple/39.png,images/simple/69.png,images/simple/63.png,images/simple/112.png,images/simple/24.png,images/simple/8.png,images/simple/81.png,images/simple/86.png",2,null,,600,629.55,,,,background,,
,null,html-keyboard-response,284,354939,0.0-19.0-0.11,SS1602730104581,,null,,,,,,,,,,,,"<img src=images/blank.png width =""500"" height = ""500"" style=""border:5px solid black"">",,,
,1075.255,stimulus-presentation,285,356626,0.0-19.0-1.11,SS1602730104581,<img src='images/complex/36.png' width ='500' height = '500' style='border:5px solid black'>,40,mixed_simple_deviant,images/complex/36.png,images/complex/1.png,"images/simple/40.png,images/simple/39.png,images/simple/69.png,images/simple/63.png,images/simple/112.png,images/simple/24.png,images/simple/8.png,images/simple/81.png,images/simple/86.png",2,null,,600,1675.255,yes,134.255,,target,,
,null,html-keyboard-response,286,357784,0.0-19.0-0.12,SS1602730104581,,null,,,,,,,,,,,,"<img src=images/blank.png width =""500"" height = ""500"" style=""border:5px solid black"">",,,
,87.72000001,stimulus-presentation,287,358485,0.0-19.0-1.12,SS1602730104581,<img src='images/simple/81.png' width ='500' height = '500' style='border:5px solid black'>,40,mixed_simple_deviant,images/complex/36.png,images/complex/1.png,"images/simple/40.png,images/simple/39.png,images/simple/69.png,images/simple/63.png,images/simple/112.png,images/simple/24.png,images/simple/8.png,images/simple/81.png,images/simple/86.png",2,null,,600,687.72,,,,deviant,,
,null,html-keyboard-response,288,359791,0.0-19.0-0.13,SS1602730104581,,null,,,,,,,,,,,,"<img src=images/blank.png width =""500"" height = ""500"" style=""border:5px solid black"">",,,
,286.42,stimulus-presentation,289,360693,0.0-19.0-1.13,SS1602730104581,<img src='images/complex/1.png' width ='500' height = '500' style='border:5px solid black'>,40,mixed_simple_deviant,images/complex/36.png,images/complex/1.png,"images/simple/40.png,images/simple/39.png,images/simple/69.png,images/simple/63.png,images/simple/112.png,images/simple/24.png,images/simple/8.png,images/simple/81.png,images/simple/86.png",2,null,,600,886.42,,,,background,,
,null,html-keyboard-response,290,361610,0.0-19.0-0.14,SS1602730104581,,null,,,,,,,,,,,,"<img src=images/blank.png width =""500"" height = ""500"" style=""border:5px solid black"">",,,
,283.33,stimulus-presentation,291,362506,0.0-19.0-1.14,SS1602730104581,<img src='images/complex/1.png' width ='500' height = '500' style='border:5px solid black'>,40,mixed_simple_deviant,images/complex/36.png,images/complex/1.png,"images/simple/40.png,images/simple/39.png,images/simple/69.png,images/simple/63.png,images/simple/112.png,images/simple/24.png,images/simple/8.png,images/simple/81.png,images/simple/86.png",2,null,,600,883.33,,,,background,,
,null,html-keyboard-response,292,363573,0.0-19.0-0.15,SS1602730104581,,null,,,,,,,,,,,,"<img src=images/blank.png width =""500"" height = ""500"" style=""border:5px solid black"">",,,
,530.14,stimulus-presentation,293,364715,0.0-19.0-1.15,SS1602730104581,<img src='images/complex/1.png' width ='500' height = '500' style='border:5px solid black'>,40,mixed_simple_deviant,images/complex/36.png,images/complex/1.png,"images/simple/40.png,images/simple/39.png,images/simple/69.png,images/simple/63.png,images/simple/112.png,images/simple/24.png,images/simple/8.png,images/simple/81.png,images/simple/86.png",2,null,,600,1130.14,,,,background,,
,null,html-keyboard-response,294,365911,0.0-19.0-0.16,SS1602730104581,,null,,,,,,,,,,,,"<img src=images/blank.png width =""500"" height = ""500"" style=""border:5px solid black"">",,,
,285.34,stimulus-presentation,295,366807,0.0-19.0-1.16,SS1602730104581,<img src='images/simple/40.png' width ='500' height = '500' style='border:5px solid black'>,40,mixed_simple_deviant,images/complex/36.png,images/complex/1.png,"images/simple/40.png,images/simple/39.png,images/simple/69.png,images/simple/63.png,images/simple/112.png,images/simple/24.png,images/simple/8.png,images/simple/81.png,images/simple/86.png",2,null,,600,885.34,,,,deviant,,
,null,html-keyboard-response,296,367995,0.0-19.0-0.17,SS1602730104581,,null,,,,,,,,,,,,"<img src=images/blank.png width =""500"" height = ""500"" style=""border:5px solid black"">",,,
,44.085,stimulus-presentation,297,368650,0.0-19.0-1.17,SS1602730104581,<img src='images/complex/1.png' width ='500' height = '500' style='border:5px solid black'>,40,mixed_simple_deviant,images/complex/36.png,images/complex/1.png,"images/simple/40.png,images/simple/39.png,images/simple/69.png,images/simple/63.png,images/simple/112.png,images/simple/24.png,images/simple/8.png,images/simple/81.png,images/simple/86.png",2,null,,600,644.085,,,,background,,
,null,html-keyboard-response,298,369852,0.0-19.0-0.18,SS1602730104581,,null,,,,,,,,,,,,"<img src=images/blank.png width =""500"" height = ""500"" style=""border:5px solid black"">",,,
,89.38999998,stimulus-presentation,299,370556,0.0-19.0-1.18,SS1602730104581,<img src='images/complex/1.png' width ='500' height = '500' style='border:5px solid black'>,40,mixed_simple_deviant,images/complex/36.png,images/complex/1.png,"images/simple/40.png,images/simple/39.png,images/simple/69.png,images/simple/63.png,images/simple/112.png,images/simple/24.png,images/simple/8.png,images/simple/81.png,images/simple/86.png",2,null,,600,689.39,,,,background,,
,null,html-keyboard-response,300,371524,0.0-19.0-0.19,SS1602730104581,,null,,,,,,,,,,,,"<img src=images/blank.png width =""500"" height = ""500"" style=""border:5px solid black"">",,,
,383.74,stimulus-presentation,301,372523,0.0-19.0-1.19,SS1602730104581,<img src='images/complex/1.png' width ='500' height = '500' style='border:5px solid black'>,40,mixed_simple_deviant,images/complex/36.png,images/complex/1.png,"images/simple/40.png,images/simple/39.png,images/simple/69.png,images/simple/63.png,images/simple/112.png,images/simple/24.png,images/simple/8.png,images/simple/81.png,images/simple/86.png",2,null,,600,983.74,,,,background,,
,null,html-keyboard-response,302,373699,0.0-19.0-0.20,SS1602730104581,,null,,,,,,,,,,,,"<img src=images/blank.png width =""500"" height = ""500"" style=""border:5px solid black"">",,,
,123.52,stimulus-presentation,303,374434,0.0-19.0-1.20,SS1602730104581,<img src='images/simple/63.png' width ='500' height = '500' style='border:5px solid black'>,40,mixed_simple_deviant,images/complex/36.png,images/complex/1.png,"images/simple/40.png,images/simple/39.png,images/simple/69.png,images/simple/63.png,images/simple/112.png,images/simple/24.png,images/simple/8.png,images/simple/81.png,images/simple/86.png",2,null,,600,723.52,,,,deviant,,
,null,html-keyboard-response,304,375679,0.0-19.0-0.21,SS1602730104581,,null,,,,,,,,,,,,"<img src=images/blank.png width =""500"" height = ""500"" style=""border:5px solid black"">",,,
,46.73499998,stimulus-presentation,305,376341,0.0-19.0-1.21,SS1602730104581,<img src='images/complex/1.png' width ='500' height = '500' style='border:5px solid black'>,40,mixed_simple_deviant,images/complex/36.png,images/complex/1.png,"images/simple/40.png,images/simple/39.png,images/simple/69.png,images/simple/63.png,images/simple/112.png,images/simple/24.png,images/simple/8.png,images/simple/81.png,images/simple/86.png",2,null,,600,646.735,,,,background,,
,null,html-keyboard-response,306,377617,0.0-19.0-0.22,SS1602730104581,,null,,,,,,,,,,,,"<img src=images/blank.png width =""500"" height = ""500"" style=""border:5px solid black"">",,,
,58.82500001,stimulus-presentation,307,378287,0.0-19.0-1.22,SS1602730104581,<img src='images/complex/1.png' width ='500' height = '500' style='border:5px solid black'>,40,mixed_simple_deviant,images/complex/36.png,images/complex/1.png,"images/simple/40.png,images/simple/39.png,images/simple/69.png,images/simple/63.png,images/simple/112.png,images/simple/24.png,images/simple/8.png,images/simple/81.png,images/simple/86.png",2,null,,600,658.825,,,,background,,
,null,html-keyboard-response,308,379434,0.0-19.0-0.23,SS1602730104581,,null,,,,,,,,,,,,"<img src=images/blank.png width =""500"" height = ""500"" style=""border:5px solid black"">",,,
,919.15,stimulus-presentation,309,380963,0.0-19.0-1.23,SS1602730104581,<img src='images/simple/86.png' width ='500' height = '500' style='border:5px solid black'>,40,mixed_simple_deviant,images/complex/36.png,images/complex/1.png,"images/simple/40.png,images/simple/39.png,images/simple/69.png,images/simple/63.png,images/simple/112.png,images/simple/24.png,images/simple/8.png,images/simple/81.png,images/simple/86.png",2,null,,600,1519.15,yes,198.36,,deviant,,
,null,html-keyboard-response,310,381792,0.0-19.0-0.24,SS1602730104581,,null,,,,,,,,,,,,"<img src=images/blank.png width =""500"" height = ""500"" style=""border:5px solid black"">",,,
,52.82500002,stimulus-presentation,311,382460,0.0-19.0-1.24,SS1602730104581,<img src='images/complex/1.png' width ='500' height = '500' style='border:5px solid black'>,40,mixed_simple_deviant,images/complex/36.png,images/complex/1.png,"images/simple/40.png,images/simple/39.png,images/simple/69.png,images/simple/63.png,images/simple/112.png,images/simple/24.png,images/simple/8.png,images/simple/81.png,images/simple/86.png",2,null,,600,652.825,,,,background,,
,null,html-keyboard-response,312,383463,0.0-19.0-0.25,SS1602730104581,,null,,,,,,,,,,,,"<img src=images/blank.png width =""500"" height = ""500"" style=""border:5px solid black"">",,,
