"view_history","rt","trial_type","trial_index","time_elapsed","internal_node_id","subject","trial_stimulus","key_press","task_type","task_target_stimulus","task_background_stimulus","task_deviant_stimuli","task_order_number","block_order_number","trial_order_number","minimum_viewing_duration","trial_looking_time","trial_pressed_space_bar","trial_space_bar_rt","stimulus","trial_stimulus_type","responses","question_order"
"[{""page_index"":0,""viewing_time"":2225.379999988945}]","2225.819999992382","instructions","0","2241","0.0-0.0","SS1604513317087","","","","","","","","","","","","","","","","",""
"[{""page_index"":0,""viewing_time"":5874.240000004647},{""page_index"":1,""viewing_time"":7123.800000001211},{""page_index"":2,""viewing_time"":2327.625000005355},{""page_index"":3,""viewing_time"":6085.894999996526},{""page_index"":4,""viewing_time"":2215.4849999933504},{""page_index"":5,""viewing_time"":1993.8250000122935},{""page_index"":6,""viewing_time"":1002.0650000078604},{""page_index"":7,""viewing_time"":2211.2299999862444},{""page_index"":8,""viewing_time"":1210.0700000009965}]","30044.47500000242","instructions","1","32287","0.0-1.0","SS1604513317087","","","","","","","","","","","","","","","","",""
"[{""page_index"":0,""viewing_time"":1567.4300000246149},{""page_index"":1,""viewing_time"":2685.649999999441},{""page_index"":2,""viewing_time"":1787.75499999756}]","6041.090000013355","instructions","2","38329","0.0-2.0","SS1604513317087","","","","","","","","","","","","","","","","",""
"","1994.2050000245217","practice-block","3","40529","0.0-3.0","SS1604513317087","<img src='images/practice/practice_background.jpeg' width ='500' height = '500' style='border:5px solid black'>","40","null","images/practice/practice_target.jpg","null","null","null","null","","200","2194.2050000245217","","","","","",""
"","null","html-keyboard-response","4","41591","0.0-4.0","SS1604513317087","","null","","","","","","","","","","","","<img src=images/blank.png width =""500"" height = ""500"" style=""border:5px solid black"">","","",""
"","217.96499998890795","practice-block","5","42014","0.0-5.0","SS1604513317087","<img src='images/practice/practice_background.jpeg' width ='500' height = '500' style='border:5px solid black'>","40","null","images/practice/practice_target.jpg","null","null","null","null","","200","417.96499998890795","","","","","",""
"","null","html-keyboard-response","6","43036","0.0-6.0","SS1604513317087","","null","","","","","","","","","","","","<img src=images/blank.png width =""500"" height = ""500"" style=""border:5px solid black"">","","",""
"","1520.329999999376","practice-block","7","44761","0.0-7.0","SS1604513317087","<img src='images/practice/practice_deviant.jpeg' width ='500' height = '500' style='border:5px solid black'>","40","null","images/practice/practice_target.jpg","null","null","null","null","","200","1720.329999999376","yes","139.65500000631437","","","",""
"","null","html-keyboard-response","8","45567","0.0-8.0","SS1604513317087","","null","","","","","","","","","","","","<img src=images/blank.png width =""500"" height = ""500"" style=""border:5px solid black"">","","",""
"","166.8599999975413","practice-block","9","49007","0.0-9.0-0.0","SS1604513317087","<img src='images/practice/practice_target.jpg' width ='500' height = '500' style='border:5px solid black'>","40","null","images/practice/practice_target.jpg","null","null","null","null","","200","366.8599999975413","","","","","",""
"","6384.070000000065","practice-block","10","55593","0.0-9.1-0.1","SS1604513317087","<img src='images/practice/practice_target.jpg' width ='500' height = '500' style='border:5px solid black'>","40","null","images/practice/practice_target.jpg","null","null","null","null","","200","6584.070000000065","yes","263.82499997271225","","","",""
"","null","html-keyboard-response","11","56642","0.0-10.0","SS1604513317087","","null","","","","","","","","","","","","<img src=images/blank.png width =""500"" height = ""500"" style=""border:5px solid black"">","","",""
"","21.780000010039657","practice-block","12","56868","0.0-11.0","SS1604513317087","<img src='images/practice/practice_background.jpeg' width ='500' height = '500' style='border:5px solid black'>","40","null","images/practice/practice_target.jpg","null","null","null","null","","200","221.78000001003966","","","","","",""
"[{""page_index"":0,""viewing_time"":2662}]","2662","task-instructions","13","59532","0.0-12.0","SS1604513317087","","","","","","","","","","","","","","","","",""
"[{""page_index"":0,""viewing_time"":2569.569999992382},{""page_index"":1,""viewing_time"":5423.700000013923},{""page_index"":2,""viewing_time"":1832.2099999932107}]","9825.715000013588","instructions","14","69359","0.0-13.0","SS1604513317087","","","","","","","","","","","","","","","","",""
"","null","html-keyboard-response","15","70281","0.0-14.0-0.0","SS1604513317087","","null","","","","","","","","","","","","<img src=images/blank.png width =""500"" height = ""500"" style=""border:5px solid black"">","","",""
"","526.289999979781","stimulus-presentation","16","71025","0.0-14.0-1.0","SS1604513317087","<img src='images/complex/16.png' width ='500' height = '500' style='border:5px solid black'>","40","mixed_simple_deviant","images/complex/10.png","images/complex/16.png","images/simple/10.png,images/simple/6.png,images/simple/18.png,images/simple/5.png,images/simple/14.png,images/simple/7.png,images/simple/1.png","0","null","","200","726.289999979781","","","","background","",""
"","null","html-keyboard-response","17","72160","0.0-14.0-0.1","SS1604513317087","","null","","","","","","","","","","","","<img src=images/blank.png width =""500"" height = ""500"" style=""border:5px solid black"">","","",""
"","225.9149999881629","stimulus-presentation","18","72590","0.0-14.0-1.1","SS1604513317087","<img src='images/complex/10.png' width ='500' height = '500' style='border:5px solid black'>","40","mixed_simple_deviant","images/complex/10.png","images/complex/16.png","images/simple/10.png,images/simple/6.png,images/simple/18.png,images/simple/5.png,images/simple/14.png,images/simple/7.png,images/simple/1.png","0","null","","200","425.9149999881629","","","","target","",""
"","null","html-keyboard-response","19","73759","0.0-14.0-0.2","SS1604513317087","","null","","","","","","","","","","","","<img src=images/blank.png width =""500"" height = ""500"" style=""border:5px solid black"">","","",""
"","197.70000001881272","stimulus-presentation","20","74175","0.0-14.0-1.2","SS1604513317087","<img src='images/complex/16.png' width ='500' height = '500' style='border:5px solid black'>","40","mixed_simple_deviant","images/complex/10.png","images/complex/16.png","images/simple/10.png,images/simple/6.png,images/simple/18.png,images/simple/5.png,images/simple/14.png,images/simple/7.png,images/simple/1.png","0","null","","200","397.7000000188127","","","","background","",""
"","null","html-keyboard-response","21","75165","0.0-14.0-0.3","SS1604513317087","","null","","","","","","","","","","","","<img src=images/blank.png width =""500"" height = ""500"" style=""border:5px solid black"">","","",""
"","310.8699999866076","stimulus-presentation","22","75694","0.0-14.0-1.3","SS1604513317087","<img src='images/simple/10.png' width ='500' height = '500' style='border:5px solid black'>","40","mixed_simple_deviant","images/complex/10.png","images/complex/16.png","images/simple/10.png,images/simple/6.png,images/simple/18.png,images/simple/5.png,images/simple/14.png,images/simple/7.png,images/simple/1.png","0","null","","200","510.8699999866076","","","","deviant","",""
"","null","html-keyboard-response","23","76713","0.0-14.0-0.4","SS1604513317087","","null","","","","","","","","","","","","<img src=images/blank.png width =""500"" height = ""500"" style=""border:5px solid black"">","","",""
"","240.2499999734573","stimulus-presentation","24","77170","0.0-14.0-1.4","SS1604513317087","<img src='images/complex/16.png' width ='500' height = '500' style='border:5px solid black'>","40","mixed_simple_deviant","images/complex/10.png","images/complex/16.png","images/simple/10.png,images/simple/6.png,images/simple/18.png,images/simple/5.png,images/simple/14.png,images/simple/7.png,images/simple/1.png","0","null","","200","440.2499999734573","","","","background","",""
"","null","html-keyboard-response","25","78042","0.0-14.0-0.5","SS1604513317087","","null","","","","","","","","","","","","<img src=images/blank.png width =""500"" height = ""500"" style=""border:5px solid black"">","","",""
"","263.6200000124518","stimulus-presentation","26","78510","0.0-14.0-1.5","SS1604513317087","<img src='images/complex/16.png' width ='500' height = '500' style='border:5px solid black'>","40","mixed_simple_deviant","images/complex/10.png","images/complex/16.png","images/simple/10.png,images/simple/6.png,images/simple/18.png,images/simple/5.png,images/simple/14.png,images/simple/7.png,images/simple/1.png","0","null","","200","463.6200000124518","","","","background","",""
"","null","html-keyboard-response","27","79715","0.0-14.0-0.6","SS1604513317087","","null","","","","","","","","","","","","<img src=images/blank.png width =""500"" height = ""500"" style=""border:5px solid black"">","","",""
"","202.59999998961575","stimulus-presentation","28","80123","0.0-14.0-1.6","SS1604513317087","<img src='images/complex/16.png' width ='500' height = '500' style='border:5px solid black'>","40","mixed_simple_deviant","images/complex/10.png","images/complex/16.png","images/simple/10.png,images/simple/6.png,images/simple/18.png,images/simple/5.png,images/simple/14.png,images/simple/7.png,images/simple/1.png","0","null","","200","402.59999998961575","","","","background","",""
"","null","html-keyboard-response","29","81093","0.0-14.0-0.7","SS1604513317087","","null","","","","","","","","","","","","<img src=images/blank.png width =""500"" height = ""500"" style=""border:5px solid black"">","","",""
"","231.05000000214204","stimulus-presentation","30","81526","0.0-14.0-1.7","SS1604513317087","<img src='images/complex/16.png' width ='500' height = '500' style='border:5px solid black'>","40","mixed_simple_deviant","images/complex/10.png","images/complex/16.png","images/simple/10.png,images/simple/6.png,images/simple/18.png,images/simple/5.png,images/simple/14.png,images/simple/7.png,images/simple/1.png","0","null","","200","431.05000000214204","","","","background","",""
"","null","html-keyboard-response","31","82719","0.0-14.0-0.8","SS1604513317087","","null","","","","","","","","","","","","<img src=images/blank.png width =""500"" height = ""500"" style=""border:5px solid black"">","","",""
"","145.5699999933131","stimulus-presentation","32","83070","0.0-14.0-1.8","SS1604513317087","<img src='images/simple/7.png' width ='500' height = '500' style='border:5px solid black'>","40","mixed_simple_deviant","images/complex/10.png","images/complex/16.png","images/simple/10.png,images/simple/6.png,images/simple/18.png,images/simple/5.png,images/simple/14.png,images/simple/7.png,images/simple/1.png","0","null","","200","345.5699999933131","yes","118.08000001474284","","deviant","",""
"","null","html-keyboard-response","33","83973","0.0-14.0-0.9","SS1604513317087","","null","","","","","","","","","","","","<img src=images/blank.png width =""500"" height = ""500"" style=""border:5px solid black"">","","",""
"","200.42999999714084","stimulus-presentation","34","84389","0.0-14.0-1.9","SS1604513317087","<img src='images/complex/16.png' width ='500' height = '500' style='border:5px solid black'>","40","mixed_simple_deviant","images/complex/10.png","images/complex/16.png","images/simple/10.png,images/simple/6.png,images/simple/18.png,images/simple/5.png,images/simple/14.png,images/simple/7.png,images/simple/1.png","0","null","","200","400.42999999714084","","","","background","",""
"","null","html-keyboard-response","35","85394","0.0-14.0-0.10","SS1604513317087","","null","","","","","","","","","","","","<img src=images/blank.png width =""500"" height = ""500"" style=""border:5px solid black"">","","",""
"","318.4249999758322","stimulus-presentation","36","85916","0.0-14.0-1.10","SS1604513317087","<img src='images/complex/16.png' width ='500' height = '500' style='border:5px solid black'>","40","mixed_simple_deviant","images/complex/10.png","images/complex/16.png","images/simple/10.png,images/simple/6.png,images/simple/18.png,images/simple/5.png,images/simple/14.png,images/simple/7.png,images/simple/1.png","0","null","","200","518.4249999758322","yes","220.36999999545515","","background","",""
"","null","html-keyboard-response","37","86945","0.0-14.0-0.11","SS1604513317087","","null","","","","","","","","","","","","<img src=images/blank.png width =""500"" height = ""500"" style=""border:5px solid black"">","","",""
"","58.57999998261221","stimulus-presentation","38","87207","0.0-14.0-1.11","SS1604513317087","<img src='images/complex/16.png' width ='500' height = '500' style='border:5px solid black'>","40","mixed_simple_deviant","images/complex/10.png","images/complex/16.png","images/simple/10.png,images/simple/6.png,images/simple/18.png,images/simple/5.png,images/simple/14.png,images/simple/7.png,images/simple/1.png","0","null","","200","258.5799999826122","yes","37.06499998224899","","background","",""
"","null","html-keyboard-response","39","88182","0.0-14.0-0.12","SS1604513317087","","null","","","","","","","","","","","","<img src=images/blank.png width =""500"" height = ""500"" style=""border:5px solid black"">","","",""
"","270.81500002532266","stimulus-presentation","40","88659","0.0-14.0-1.12","SS1604513317087","<img src='images/complex/16.png' width ='500' height = '500' style='border:5px solid black'>","40","mixed_simple_deviant","images/complex/10.png","images/complex/16.png","images/simple/10.png,images/simple/6.png,images/simple/18.png,images/simple/5.png,images/simple/14.png,images/simple/7.png,images/simple/1.png","0","null","","200","470.81500002532266","","","","background","",""
"","null","html-keyboard-response","41","89501","0.0-14.0-0.13","SS1604513317087","","null","","","","","","","","","","","","<img src=images/blank.png width =""500"" height = ""500"" style=""border:5px solid black"">","","",""
"","286.6700000013225","stimulus-presentation","42","89991","0.0-14.0-1.13","SS1604513317087","<img src='images/simple/1.png' width ='500' height = '500' style='border:5px solid black'>","40","mixed_simple_deviant","images/complex/10.png","images/complex/16.png","images/simple/10.png,images/simple/6.png,images/simple/18.png,images/simple/5.png,images/simple/14.png,images/simple/7.png,images/simple/1.png","0","null","","200","486.6700000013225","yes","221.0649999906309","","deviant","",""
"","null","html-keyboard-response","43","91148","0.0-14.0-0.14","SS1604513317087","","null","","","","","","","","","","","","<img src=images/blank.png width =""500"" height = ""500"" style=""border:5px solid black"">","","",""
"","221.59500000998378","stimulus-presentation","44","91575","0.0-14.0-1.14","SS1604513317087","<img src='images/complex/16.png' width ='500' height = '500' style='border:5px solid black'>","40","mixed_simple_deviant","images/complex/10.png","images/complex/16.png","images/simple/10.png,images/simple/6.png,images/simple/18.png,images/simple/5.png,images/simple/14.png,images/simple/7.png,images/simple/1.png","0","null","","200","421.5950000099838","","","","background","",""
"","null","html-keyboard-response","45","92745","0.0-14.0-0.15","SS1604513317087","","null","","","","","","","","","","","","<img src=images/blank.png width =""500"" height = ""500"" style=""border:5px solid black"">","","",""
"","28.14000000944361","stimulus-presentation","46","92980","0.0-14.0-1.15","SS1604513317087","<img src='images/complex/16.png' width ='500' height = '500' style='border:5px solid black'>","40","mixed_simple_deviant","images/complex/10.png","images/complex/16.png","images/simple/10.png,images/simple/6.png,images/simple/18.png,images/simple/5.png,images/simple/14.png,images/simple/7.png,images/simple/1.png","0","null","","200","228.1400000094436","","","","background","",""
"","null","html-keyboard-response","47","94163","0.0-14.0-0.16","SS1604513317087","","null","","","","","","","","","","","","<img src=images/blank.png width =""500"" height = ""500"" style=""border:5px solid black"">","","",""
"","919.5699999982025","stimulus-presentation","48","95301","0.0-14.0-1.16","SS1604513317087","<img src='images/complex/16.png' width ='500' height = '500' style='border:5px solid black'>","40","mixed_simple_deviant","images/complex/10.png","images/complex/16.png","images/simple/10.png,images/simple/6.png,images/simple/18.png,images/simple/5.png,images/simple/14.png,images/simple/7.png,images/simple/1.png","0","null","","200","1119.5699999982025","","","","background","",""
"","null","html-keyboard-response","49","96381","0.0-14.0-0.17","SS1604513317087","","null","","","","","","","","","","","","<img src=images/blank.png width =""500"" height = ""500"" style=""border:5px solid black"">","","",""
"","344.07000002101995","stimulus-presentation","50","96928","0.0-14.0-1.17","SS1604513317087","<img src='images/complex/16.png' width ='500' height = '500' style='border:5px solid black'>","40","mixed_simple_deviant","images/complex/10.png","images/complex/16.png","images/simple/10.png,images/simple/6.png,images/simple/18.png,images/simple/5.png,images/simple/14.png,images/simple/7.png,images/simple/1.png","0","null","","200","544.07000002102","yes","282.99500001594424","","background","",""
"","null","html-keyboard-response","51","97819","0.0-14.0-0.18","SS1604513317087","","null","","","","","","","","","","","","<img src=images/blank.png width =""500"" height = ""500"" style=""border:5px solid black"">","","",""
"","104.03999997652136","stimulus-presentation","52","98127","0.0-14.0-1.18","SS1604513317087","<img src='images/complex/16.png' width ='500' height = '500' style='border:5px solid black'>","40","mixed_simple_deviant","images/complex/10.png","images/complex/16.png","images/simple/10.png,images/simple/6.png,images/simple/18.png,images/simple/5.png,images/simple/14.png,images/simple/7.png,images/simple/1.png","0","null","","200","304.03999997652136","","","","background","",""
"","null","html-keyboard-response","53","99172","0.0-14.0-0.19","SS1604513317087","","null","","","","","","","","","","","","<img src=images/blank.png width =""500"" height = ""500"" style=""border:5px solid black"">","","",""
"","41.83000000193715","stimulus-presentation","54","99432","0.0-14.0-1.19","SS1604513317087","<img src='images/complex/16.png' width ='500' height = '500' style='border:5px solid black'>","40","mixed_simple_deviant","images/complex/10.png","images/complex/16.png","images/simple/10.png,images/simple/6.png,images/simple/18.png,images/simple/5.png,images/simple/14.png,images/simple/7.png,images/simple/1.png","0","null","","200","241.83000000193715","","","","background","",""
"","null","html-keyboard-response","55","100393","0.0-14.0-0.20","SS1604513317087","","null","","","","","","","","","","","","<img src=images/blank.png width =""500"" height = ""500"" style=""border:5px solid black"">","","",""
"","529.065000009723","stimulus-presentation","56","101128","0.0-14.0-1.20","SS1604513317087","<img src='images/complex/10.png' width ='500' height = '500' style='border:5px solid black'>","40","mixed_simple_deviant","images/complex/10.png","images/complex/16.png","images/simple/10.png,images/simple/6.png,images/simple/18.png,images/simple/5.png,images/simple/14.png,images/simple/7.png,images/simple/1.png","0","null","","200","729.065000009723","","","","target","",""
"","null","html-keyboard-response","57","102066","0.0-14.0-0.21","SS1604513317087","","null","","","","","","","","","","","","<img src=images/blank.png width =""500"" height = ""500"" style=""border:5px solid black"">","","",""
"","147.20999999553896","stimulus-presentation","58","102416","0.0-14.0-1.21","SS1604513317087","<img src='images/simple/6.png' width ='500' height = '500' style='border:5px solid black'>","40","mixed_simple_deviant","images/complex/10.png","images/complex/16.png","images/simple/10.png,images/simple/6.png,images/simple/18.png,images/simple/5.png,images/simple/14.png,images/simple/7.png,images/simple/1.png","0","null","","200","347.20999999553896","","","","deviant","",""
"","null","html-keyboard-response","59","103649","0.0-14.0-0.22","SS1604513317087","","null","","","","","","","","","","","","<img src=images/blank.png width =""500"" height = ""500"" style=""border:5px solid black"">","","",""
"","419.6399999782443","stimulus-presentation","60","104276","0.0-14.0-1.22","SS1604513317087","<img src='images/complex/16.png' width ='500' height = '500' style='border:5px solid black'>","40","mixed_simple_deviant","images/complex/10.png","images/complex/16.png","images/simple/10.png,images/simple/6.png,images/simple/18.png,images/simple/5.png,images/simple/14.png,images/simple/7.png,images/simple/1.png","0","null","","200","619.6399999782443","yes","120.10499997995794","","background","",""
"","null","html-keyboard-response","61","105402","0.0-14.0-0.23","SS1604513317087","","null","","","","","","","","","","","","<img src=images/blank.png width =""500"" height = ""500"" style=""border:5px solid black"">","","",""
"","94.53500001109205","stimulus-presentation","62","105702","0.0-14.0-1.23","SS1604513317087","<img src='images/complex/10.png' width ='500' height = '500' style='border:5px solid black'>","40","mixed_simple_deviant","images/complex/10.png","images/complex/16.png","images/simple/10.png,images/simple/6.png,images/simple/18.png,images/simple/5.png,images/simple/14.png,images/simple/7.png,images/simple/1.png","0","null","","200","294.53500001109205","","","","target","",""
"","null","html-keyboard-response","63","106814","0.0-14.0-0.24","SS1604513317087","","null","","","","","","","","","","","","<img src=images/blank.png width =""500"" height = ""500"" style=""border:5px solid black"">","","",""
"","14.519999996991828","stimulus-presentation","64","107046","0.0-14.0-1.24","SS1604513317087","<img src='images/complex/16.png' width ='500' height = '500' style='border:5px solid black'>","40","mixed_simple_deviant","images/complex/10.png","images/complex/16.png","images/simple/10.png,images/simple/6.png,images/simple/18.png,images/simple/5.png,images/simple/14.png,images/simple/7.png,images/simple/1.png","0","null","","200","214.51999999699183","","","","background","",""
"","null","html-keyboard-response","65","107866","0.0-14.0-0.25","SS1604513317087","","null","","","","","","","","","","","","<img src=images/blank.png width =""500"" height = ""500"" style=""border:5px solid black"">","","",""
"","120.34500000299886","stimulus-presentation","66","108204","0.0-14.0-1.25","SS1604513317087","<img src='images/complex/10.png' width ='500' height = '500' style='border:5px solid black'>","40","mixed_simple_deviant","images/complex/10.png","images/complex/16.png","images/simple/10.png,images/simple/6.png,images/simple/18.png,images/simple/5.png,images/simple/14.png,images/simple/7.png,images/simple/1.png","0","null","","200","320.34500000299886","","","","target","",""
"","null","html-keyboard-response","67","109038","0.0-14.0-0.26","SS1604513317087","","null","","","","","","","","","","","","<img src=images/blank.png width =""500"" height = ""500"" style=""border:5px solid black"">","","",""
"","342.53500000340864","stimulus-presentation","68","109584","0.0-14.0-1.26","SS1604513317087","<img src='images/complex/10.png' width ='500' height = '500' style='border:5px solid black'>","40","mixed_simple_deviant","images/complex/10.png","images/complex/16.png","images/simple/10.png,images/simple/6.png,images/simple/18.png,images/simple/5.png,images/simple/14.png,images/simple/7.png,images/simple/1.png","0","null","","200","542.5350000034086","yes","127.99000000813976","","target","",""
"","null","html-keyboard-response","69","110776","0.0-14.0-0.27","SS1604513317087","","null","","","","","","","","","","","","<img src=images/blank.png width =""500"" height = ""500"" style=""border:5px solid black"">","","",""
"","305.75499997939914","stimulus-presentation","70","111285","0.0-14.0-1.27","SS1604513317087","<img src='images/complex/16.png' width ='500' height = '500' style='border:5px solid black'>","40","mixed_simple_deviant","images/complex/10.png","images/complex/16.png","images/simple/10.png,images/simple/6.png,images/simple/18.png,images/simple/5.png,images/simple/14.png,images/simple/7.png,images/simple/1.png","0","null","","200","505.75499997939914","","","","background","",""
"","null","html-keyboard-response","71","112465","0.0-14.0-0.28","SS1604513317087","","null","","","","","","","","","","","","<img src=images/blank.png width =""500"" height = ""500"" style=""border:5px solid black"">","","",""
"","540.6549999897834","stimulus-presentation","72","113223","0.0-14.0-1.28","SS1604513317087","<img src='images/complex/16.png' width ='500' height = '500' style='border:5px solid black'>","40","mixed_simple_deviant","images/complex/10.png","images/complex/16.png","images/simple/10.png,images/simple/6.png,images/simple/18.png,images/simple/5.png,images/simple/14.png,images/simple/7.png,images/simple/1.png","0","null","","200","740.6549999897834","yes","254.66000000596978","","background","",""
"","null","html-keyboard-response","73","114170","0.0-14.0-0.29","SS1604513317087","","null","","","","","","","","","","","","<img src=images/blank.png width =""500"" height = ""500"" style=""border:5px solid black"">","","",""
"","707.7299999946263","stimulus-presentation","74","115082","0.0-14.0-1.29","SS1604513317087","<img src='images/complex/16.png' width ='500' height = '500' style='border:5px solid black'>","40","mixed_simple_deviant","images/complex/10.png","images/complex/16.png","images/simple/10.png,images/simple/6.png,images/simple/18.png,images/simple/5.png,images/simple/14.png,images/simple/7.png,images/simple/1.png","0","null","","200","907.7299999946263","yes","291.8049999861978","","background","",""
"","null","html-keyboard-response","75","115994","0.0-14.0-0.30","SS1604513317087","","null","","","","","","","","","","","","<img src=images/blank.png width =""500"" height = ""500"" style=""border:5px solid black"">","","",""
"","593.1850000051782","stimulus-presentation","76","116793","0.0-14.0-1.30","SS1604513317087","<img src='images/simple/5.png' width ='500' height = '500' style='border:5px solid black'>","40","mixed_simple_deviant","images/complex/10.png","images/complex/16.png","images/simple/10.png,images/simple/6.png,images/simple/18.png,images/simple/5.png,images/simple/14.png,images/simple/7.png,images/simple/1.png","0","null","","200","793.1850000051782","yes","580.6699999957345","","deviant","",""
"","null","html-keyboard-response","77","117797","0.0-14.0-0.31","SS1604513317087","","null","","","","","","","","","","","","<img src=images/blank.png width =""500"" height = ""500"" style=""border:5px solid black"">","","",""
"","343.31500000553206","stimulus-presentation","78","118344","0.0-14.0-1.31","SS1604513317087","<img src='images/complex/16.png' width ='500' height = '500' style='border:5px solid black'>","40","mixed_simple_deviant","images/complex/10.png","images/complex/16.png","images/simple/10.png,images/simple/6.png,images/simple/18.png,images/simple/5.png,images/simple/14.png,images/simple/7.png,images/simple/1.png","0","null","","200","543.315000005532","","","","background","",""
"","null","html-keyboard-response","79","119595","0.0-14.0-0.32","SS1604513317087","","null","","","","","","","","","","","","<img src=images/blank.png width =""500"" height = ""500"" style=""border:5px solid black"">","","",""
"","382.2050000017043","stimulus-presentation","80","120195","0.0-14.0-1.32","SS1604513317087","<img src='images/complex/16.png' width ='500' height = '500' style='border:5px solid black'>","40","mixed_simple_deviant","images/complex/10.png","images/complex/16.png","images/simple/10.png,images/simple/6.png,images/simple/18.png,images/simple/5.png,images/simple/14.png,images/simple/7.png,images/simple/1.png","0","null","","200","582.2050000017043","yes","358.8049999962095","","background","",""
"","null","html-keyboard-response","81","121254","0.0-14.0-0.33","SS1604513317087","","null","","","","","","","","","","","","<img src=images/blank.png width =""500"" height = ""500"" style=""border:5px solid black"">","","",""
"","87.18000000226311","stimulus-presentation","82","121545","0.0-14.0-1.33","SS1604513317087","<img src='images/complex/16.png' width ='500' height = '500' style='border:5px solid black'>","40","mixed_simple_deviant","images/complex/10.png","images/complex/16.png","images/simple/10.png,images/simple/6.png,images/simple/18.png,images/simple/5.png,images/simple/14.png,images/simple/7.png,images/simple/1.png","0","null","","200","287.1800000022631","","","","background","",""
"","null","html-keyboard-response","83","122618","0.0-14.0-0.34","SS1604513317087","","null","","","","","","","","","","","","<img src=images/blank.png width =""500"" height = ""500"" style=""border:5px solid black"">","","",""
"","73.0899999907706","stimulus-presentation","84","122897","0.0-14.0-1.34","SS1604513317087","<img src='images/complex/16.png' width ='500' height = '500' style='border:5px solid black'>","40","mixed_simple_deviant","images/complex/10.png","images/complex/16.png","images/simple/10.png,images/simple/6.png,images/simple/18.png,images/simple/5.png,images/simple/14.png,images/simple/7.png,images/simple/1.png","0","null","","200","273.0899999907706","","","","background","",""
"","null","html-keyboard-response","85","124112","0.0-14.0-0.35","SS1604513317087","","null","","","","","","","","","","","","<img src=images/blank.png width =""500"" height = ""500"" style=""border:5px solid black"">","","",""
"","20.79000000958331","stimulus-presentation","86","124338","0.0-14.0-1.35","SS1604513317087","<img src='images/complex/10.png' width ='500' height = '500' style='border:5px solid black'>","40","mixed_simple_deviant","images/complex/10.png","images/complex/16.png","images/simple/10.png,images/simple/6.png,images/simple/18.png,images/simple/5.png,images/simple/14.png,images/simple/7.png,images/simple/1.png","0","null","","200","220.7900000095833","","","","target","",""
"","null","html-keyboard-response","87","125185","0.0-14.0-0.36","SS1604513317087","","null","","","","","","","","","","","","<img src=images/blank.png width =""500"" height = ""500"" style=""border:5px solid black"">","","",""
"","37.37499998533167","stimulus-presentation","88","125428","0.0-14.0-1.36","SS1604513317087","<img src='images/complex/16.png' width ='500' height = '500' style='border:5px solid black'>","40","mixed_simple_deviant","images/complex/10.png","images/complex/16.png","images/simple/10.png,images/simple/6.png,images/simple/18.png,images/simple/5.png,images/simple/14.png,images/simple/7.png,images/simple/1.png","0","null","","200","237.37499998533167","","","","background","",""
"","null","html-keyboard-response","89","126592","0.0-14.0-0.37","SS1604513317087","","null","","","","","","","","","","","","<img src=images/blank.png width =""500"" height = ""500"" style=""border:5px solid black"">","","",""
"","195.78999999794178","stimulus-presentation","90","126994","0.0-14.0-1.37","SS1604513317087","<img src='images/complex/16.png' width ='500' height = '500' style='border:5px solid black'>","40","mixed_simple_deviant","images/complex/10.png","images/complex/16.png","images/simple/10.png,images/simple/6.png,images/simple/18.png,images/simple/5.png,images/simple/14.png,images/simple/7.png,images/simple/1.png","0","null","","200","395.7899999979418","","","","background","",""
"","null","html-keyboard-response","91","128203","0.0-14.0-0.38","SS1604513317087","","null","","","","","","","","","","","","<img src=images/blank.png width =""500"" height = ""500"" style=""border:5px solid black"">","","",""
"","168.00000000512227","stimulus-presentation","92","128588","0.0-14.0-1.38","SS1604513317087","<img src='images/simple/14.png' width ='500' height = '500' style='border:5px solid black'>","40","mixed_simple_deviant","images/complex/10.png","images/complex/16.png","images/simple/10.png,images/simple/6.png,images/simple/18.png,images/simple/5.png,images/simple/14.png,images/simple/7.png,images/simple/1.png","0","null","","200","368.0000000051223","","","","deviant","",""
"","null","html-keyboard-response","93","129850","0.0-14.0-0.39","SS1604513317087","","null","","","","","","","","","","","","<img src=images/blank.png width =""500"" height = ""500"" style=""border:5px solid black"">","","",""
"","215.17999999923632","stimulus-presentation","94","130283","0.0-14.0-1.39","SS1604513317087","<img src='images/complex/16.png' width ='500' height = '500' style='border:5px solid black'>","40","mixed_simple_deviant","images/complex/10.png","images/complex/16.png","images/simple/10.png,images/simple/6.png,images/simple/18.png,images/simple/5.png,images/simple/14.png,images/simple/7.png,images/simple/1.png","0","null","","200","415.1799999992363","","","","background","",""
"","null","html-keyboard-response","95","131549","0.0-14.0-0.40","SS1604513317087","","null","","","","","","","","","","","","<img src=images/blank.png width =""500"" height = ""500"" style=""border:5px solid black"">","","",""
"","108.73000000719912","stimulus-presentation","96","131865","0.0-14.0-1.40","SS1604513317087","<img src='images/complex/16.png' width ='500' height = '500' style='border:5px solid black'>","40","mixed_simple_deviant","images/complex/10.png","images/complex/16.png","images/simple/10.png,images/simple/6.png,images/simple/18.png,images/simple/5.png,images/simple/14.png,images/simple/7.png,images/simple/1.png","0","null","","200","308.7300000071991","","","","background","",""
"","null","html-keyboard-response","97","132703","0.0-14.0-0.41","SS1604513317087","","null","","","","","","","","","","","","<img src=images/blank.png width =""500"" height = ""500"" style=""border:5px solid black"">","","",""
"","535.2300000085961","stimulus-presentation","98","133445","0.0-14.0-1.41","SS1604513317087","<img src='images/complex/16.png' width ='500' height = '500' style='border:5px solid black'>","40","mixed_simple_deviant","images/complex/10.png","images/complex/16.png","images/simple/10.png,images/simple/6.png,images/simple/18.png,images/simple/5.png,images/simple/14.png,images/simple/7.png,images/simple/1.png","0","null","","200","735.2300000085961","","","","background","",""
"","null","html-keyboard-response","99","134590","0.0-14.0-0.42","SS1604513317087","","null","","","","","","","","","","","","<img src=images/blank.png width =""500"" height = ""500"" style=""border:5px solid black"">","","",""
"","12.110000010579824","stimulus-presentation","100","134806","0.0-14.0-1.42","SS1604513317087","<img src='images/complex/16.png' width ='500' height = '500' style='border:5px solid black'>","40","mixed_simple_deviant","images/complex/10.png","images/complex/16.png","images/simple/10.png,images/simple/6.png,images/simple/18.png,images/simple/5.png,images/simple/14.png,images/simple/7.png,images/simple/1.png","0","null","","200","212.11000001057982","","","","background","",""
"","null","html-keyboard-response","101","135659","0.0-14.0-0.43","SS1604513317087","","null","","","","","","","","","","","","<img src=images/blank.png width =""500"" height = ""500"" style=""border:5px solid black"">","","",""
"","177.80999999376945","stimulus-presentation","102","136043","0.0-14.0-1.43","SS1604513317087","<img src='images/complex/16.png' width ='500' height = '500' style='border:5px solid black'>","40","mixed_simple_deviant","images/complex/10.png","images/complex/16.png","images/simple/10.png,images/simple/6.png,images/simple/18.png,images/simple/5.png,images/simple/14.png,images/simple/7.png,images/simple/1.png","0","null","","200","377.80999999376945","","","","background","",""
"","null","html-keyboard-response","103","136914","0.0-14.0-0.44","SS1604513317087","","null","","","","","","","","","","","","<img src=images/blank.png width =""500"" height = ""500"" style=""border:5px solid black"">","","",""
"","334.61499999975786","stimulus-presentation","104","137466","0.0-14.0-1.44","SS1604513317087","<img src='images/complex/16.png' width ='500' height = '500' style='border:5px solid black'>","40","mixed_simple_deviant","images/complex/10.png","images/complex/16.png","images/simple/10.png,images/simple/6.png,images/simple/18.png,images/simple/5.png,images/simple/14.png,images/simple/7.png,images/simple/1.png","0","null","","200","534.6149999997579","","","","background","",""
"","null","html-keyboard-response","105","138651","0.0-14.0-0.45","SS1604513317087","","null","","","","","","","","","","","","<img src=images/blank.png width =""500"" height = ""500"" style=""border:5px solid black"">","","",""
"","290.5299999983981","stimulus-presentation","106","139153","0.0-14.0-1.45","SS1604513317087","<img src='images/simple/18.png' width ='500' height = '500' style='border:5px solid black'>","40","mixed_simple_deviant","images/complex/10.png","images/complex/16.png","images/simple/10.png,images/simple/6.png,images/simple/18.png,images/simple/5.png,images/simple/14.png,images/simple/7.png,images/simple/1.png","0","null","","200","490.5299999983981","yes","91.79999999469146","","deviant","",""
"","null","html-keyboard-response","107","140187","0.0-14.0-0.46","SS1604513317087","","null","","","","","","","","","","","","<img src=images/blank.png width =""500"" height = ""500"" style=""border:5px solid black"">","","",""
"","268.8699999998789","stimulus-presentation","108","140661","0.0-14.0-1.46","SS1604513317087","<img src='images/complex/16.png' width ='500' height = '500' style='border:5px solid black'>","40","mixed_simple_deviant","images/complex/10.png","images/complex/16.png","images/simple/10.png,images/simple/6.png,images/simple/18.png,images/simple/5.png,images/simple/14.png,images/simple/7.png,images/simple/1.png","0","null","","200","468.8699999998789","yes","169.5400000025984","","background","",""
"","null","html-keyboard-response","109","141625","0.0-14.0-0.47","SS1604513317087","","null","","","","","","","","","","","","<img src=images/blank.png width =""500"" height = ""500"" style=""border:5px solid black"">","","",""
"","164.8599999898579","stimulus-presentation","110","141994","0.0-14.0-1.47","SS1604513317087","<img src='images/complex/16.png' width ='500' height = '500' style='border:5px solid black'>","40","mixed_simple_deviant","images/complex/10.png","images/complex/16.png","images/simple/10.png,images/simple/6.png,images/simple/18.png,images/simple/5.png,images/simple/14.png,images/simple/7.png,images/simple/1.png","0","null","","200","364.8599999898579","","","","background","",""
"","null","html-keyboard-response","111","143186","0.0-14.0-0.48","SS1604513317087","","null","","","","","","","","","","","","<img src=images/blank.png width =""500"" height = ""500"" style=""border:5px solid black"">","","",""
"","145.7500000251457","stimulus-presentation","112","143535","0.0-14.0-1.48","SS1604513317087","<img src='images/complex/10.png' width ='500' height = '500' style='border:5px solid black'>","40","mixed_simple_deviant","images/complex/10.png","images/complex/16.png","images/simple/10.png,images/simple/6.png,images/simple/18.png,images/simple/5.png,images/simple/14.png,images/simple/7.png,images/simple/1.png","0","null","","200","345.7500000251457","","","","target","",""
"[{""page_index"":0,""viewing_time"":16054}]","16054","task-instructions","113","159592","0.0-15.0","SS1604513317087","","","","","","","","","","","","","","","","",""
"[{""page_index"":0,""viewing_time"":2176.7300000065006},{""page_index"":1,""viewing_time"":5451.969999994617},{""page_index"":2,""viewing_time"":1729.3049999861978}]","9358.164999983273","instructions","114","168952","0.0-16.0","SS1604513317087","","","","","","","","","","","","","","","","",""
"","null","html-keyboard-response","115","169824","0.0-17.0-0.0","SS1604513317087","","null","","","","","","","","","","","","<img src=images/blank.png width =""500"" height = ""500"" style=""border:5px solid black"">","","",""
"","2046.3400000007823","stimulus-presentation","116","172075","0.0-17.0-1.0","SS1604513317087","<img src='images/complex/3.png' width ='500' height = '500' style='border:5px solid black'>","40","all_complex","images/complex/3.png","images/complex/12.png","images/complex/7.png,images/complex/9.png,images/complex/13.png,images/complex/4.png,images/complex/14.png,images/complex/11.png,images/complex/5.png","1","null","","200","2246.3400000007823","","","","target","",""
"","null","html-keyboard-response","117","172901","0.0-17.0-0.1","SS1604513317087","","null","","","","","","","","","","","","<img src=images/blank.png width =""500"" height = ""500"" style=""border:5px solid black"">","","",""
"","648.509999999078","stimulus-presentation","118","173767","0.0-17.0-1.1","SS1604513317087","<img src='images/complex/14.png' width ='500' height = '500' style='border:5px solid black'>","40","all_complex","images/complex/3.png","images/complex/12.png","images/complex/7.png,images/complex/9.png,images/complex/13.png,images/complex/4.png,images/complex/14.png,images/complex/11.png,images/complex/5.png","1","null","","200","848.509999999078","yes","378.9950000063982","","deviant","",""
"","null","html-keyboard-response","119","174795","0.0-17.0-0.2","SS1604513317087","","null","","","","","","","","","","","","<img src=images/blank.png width =""500"" height = ""500"" style=""border:5px solid black"">","","",""
"","468.9399999915622","stimulus-presentation","120","175469","0.0-17.0-1.2","SS1604513317087","<img src='images/complex/3.png' width ='500' height = '500' style='border:5px solid black'>","40","all_complex","images/complex/3.png","images/complex/12.png","images/complex/7.png,images/complex/9.png,images/complex/13.png,images/complex/4.png,images/complex/14.png,images/complex/11.png,images/complex/5.png","1","null","","200","668.9399999915622","","","","target","",""
"","null","html-keyboard-response","121","176657","0.0-17.0-0.3","SS1604513317087","","null","","","","","","","","","","","","<img src=images/blank.png width =""500"" height = ""500"" style=""border:5px solid black"">","","",""
"","69.17000000248663","stimulus-presentation","122","176934","0.0-17.0-1.3","SS1604513317087","<img src='images/complex/3.png' width ='500' height = '500' style='border:5px solid black'>","40","all_complex","images/complex/3.png","images/complex/12.png","images/complex/7.png,images/complex/9.png,images/complex/13.png,images/complex/4.png,images/complex/14.png,images/complex/11.png,images/complex/5.png","1","null","","200","269.17000000248663","","","","target","",""
"","null","html-keyboard-response","123","178023","0.0-17.0-0.4","SS1604513317087","","null","","","","","","","","","","","","<img src=images/blank.png width =""500"" height = ""500"" style=""border:5px solid black"">","","",""
"","231.45500000100583","stimulus-presentation","124","178473","0.0-17.0-1.4","SS1604513317087","<img src='images/complex/12.png' width ='500' height = '500' style='border:5px solid black'>","40","all_complex","images/complex/3.png","images/complex/12.png","images/complex/7.png,images/complex/9.png,images/complex/13.png,images/complex/4.png,images/complex/14.png,images/complex/11.png,images/complex/5.png","1","null","","200","431.4550000010058","","","","background","",""
"","null","html-keyboard-response","125","179713","0.0-17.0-0.5","SS1604513317087","","null","","","","","","","","","","","","<img src=images/blank.png width =""500"" height = ""500"" style=""border:5px solid black"">","","",""
"","380.4299999901559","stimulus-presentation","126","180300","0.0-17.0-1.5","SS1604513317087","<img src='images/complex/3.png' width ='500' height = '500' style='border:5px solid black'>","40","all_complex","images/complex/3.png","images/complex/12.png","images/complex/7.png,images/complex/9.png,images/complex/13.png,images/complex/4.png,images/complex/14.png,images/complex/11.png,images/complex/5.png","1","null","","200","580.4299999901559","","","","target","",""
"","null","html-keyboard-response","127","181311","0.0-17.0-0.6","SS1604513317087","","null","","","","","","","","","","","","<img src=images/blank.png width =""500"" height = ""500"" style=""border:5px solid black"">","","",""
"","295.6349999876693","stimulus-presentation","128","181812","0.0-17.0-1.6","SS1604513317087","<img src='images/complex/12.png' width ='500' height = '500' style='border:5px solid black'>","40","all_complex","images/complex/3.png","images/complex/12.png","images/complex/7.png,images/complex/9.png,images/complex/13.png,images/complex/4.png,images/complex/14.png,images/complex/11.png,images/complex/5.png","1","null","","200","495.6349999876693","","","","background","",""
"","null","html-keyboard-response","129","182832","0.0-17.0-0.7","SS1604513317087","","null","","","","","","","","","","","","<img src=images/blank.png width =""500"" height = ""500"" style=""border:5px solid black"">","","",""
"","904.9799999920651","stimulus-presentation","130","183941","0.0-17.0-1.7","SS1604513317087","<img src='images/complex/12.png' width ='500' height = '500' style='border:5px solid black'>","40","all_complex","images/complex/3.png","images/complex/12.png","images/complex/7.png,images/complex/9.png,images/complex/13.png,images/complex/4.png,images/complex/14.png,images/complex/11.png,images/complex/5.png","1","null","","200","1104.9799999920651","","","","background","",""
"","null","html-keyboard-response","131","185125","0.0-17.0-0.8","SS1604513317087","","null","","","","","","","","","","","","<img src=images/blank.png width =""500"" height = ""500"" style=""border:5px solid black"">","","",""
"","1099.6400000003632","stimulus-presentation","132","186443","0.0-17.0-1.8","SS1604513317087","<img src='images/complex/12.png' width ='500' height = '500' style='border:5px solid black'>","40","all_complex","images/complex/3.png","images/complex/12.png","images/complex/7.png,images/complex/9.png,images/complex/13.png,images/complex/4.png,images/complex/14.png,images/complex/11.png,images/complex/5.png","1","null","","200","1299.6400000003632","","","","background","",""
"","null","html-keyboard-response","133","187457","0.0-17.0-0.9","SS1604513317087","","null","","","","","","","","","","","","<img src=images/blank.png width =""500"" height = ""500"" style=""border:5px solid black"">","","",""
"","33.90999999828637","stimulus-presentation","134","187696","0.0-17.0-1.9","SS1604513317087","<img src='images/complex/12.png' width ='500' height = '500' style='border:5px solid black'>","40","all_complex","images/complex/3.png","images/complex/12.png","images/complex/7.png,images/complex/9.png,images/complex/13.png,images/complex/4.png,images/complex/14.png,images/complex/11.png,images/complex/5.png","1","null","","200","233.90999999828637","","","","background","",""
"","null","html-keyboard-response","135","188964","0.0-17.0-0.10","SS1604513317087","","null","","","","","","","","","","","","<img src=images/blank.png width =""500"" height = ""500"" style=""border:5px solid black"">","","",""
"","185.85999999777414","stimulus-presentation","136","189354","0.0-17.0-1.10","SS1604513317087","<img src='images/complex/12.png' width ='500' height = '500' style='border:5px solid black'>","40","all_complex","images/complex/3.png","images/complex/12.png","images/complex/7.png,images/complex/9.png,images/complex/13.png,images/complex/4.png,images/complex/14.png,images/complex/11.png,images/complex/5.png","1","null","","200","385.85999999777414","","","","background","",""
"","null","html-keyboard-response","137","190655","0.0-17.0-0.11","SS1604513317087","","null","","","","","","","","","","","","<img src=images/blank.png width =""500"" height = ""500"" style=""border:5px solid black"">","","",""
"","288.18000000319444","stimulus-presentation","138","191149","0.0-17.0-1.11","SS1604513317087","<img src='images/complex/9.png' width ='500' height = '500' style='border:5px solid black'>","40","all_complex","images/complex/3.png","images/complex/12.png","images/complex/7.png,images/complex/9.png,images/complex/13.png,images/complex/4.png,images/complex/14.png,images/complex/11.png,images/complex/5.png","1","null","","200","488.18000000319444","","","","deviant","",""
"","null","html-keyboard-response","139","192366","0.0-17.0-0.12","SS1604513317087","","null","","","","","","","","","","","","<img src=images/blank.png width =""500"" height = ""500"" style=""border:5px solid black"">","","",""
"","163.28999999677762","stimulus-presentation","140","192747","0.0-17.0-1.12","SS1604513317087","<img src='images/complex/12.png' width ='500' height = '500' style='border:5px solid black'>","40","all_complex","images/complex/3.png","images/complex/12.png","images/complex/7.png,images/complex/9.png,images/complex/13.png,images/complex/4.png,images/complex/14.png,images/complex/11.png,images/complex/5.png","1","null","","200","363.2899999967776","","","","background","",""
"","null","html-keyboard-response","141","194011","0.0-17.0-0.13","SS1604513317087","","null","","","","","","","","","","","","<img src=images/blank.png width =""500"" height = ""500"" style=""border:5px solid black"">","","",""
"","24.52499998616986","stimulus-presentation","142","194239","0.0-17.0-1.13","SS1604513317087","<img src='images/complex/12.png' width ='500' height = '500' style='border:5px solid black'>","40","all_complex","images/complex/3.png","images/complex/12.png","images/complex/7.png,images/complex/9.png,images/complex/13.png,images/complex/4.png,images/complex/14.png,images/complex/11.png,images/complex/5.png","1","null","","200","224.52499998616986","","","","background","",""
"","null","html-keyboard-response","143","195532","0.0-17.0-0.14","SS1604513317087","","null","","","","","","","","","","","","<img src=images/blank.png width =""500"" height = ""500"" style=""border:5px solid black"">","","",""
"","155.55999998468906","stimulus-presentation","144","195894","0.0-17.0-1.14","SS1604513317087","<img src='images/complex/12.png' width ='500' height = '500' style='border:5px solid black'>","40","all_complex","images/complex/3.png","images/complex/12.png","images/complex/7.png,images/complex/9.png,images/complex/13.png,images/complex/4.png,images/complex/14.png,images/complex/11.png,images/complex/5.png","1","null","","200","355.55999998468906","","","","background","",""
"","null","html-keyboard-response","145","196898","0.0-17.0-0.15","SS1604513317087","","null","","","","","","","","","","","","<img src=images/blank.png width =""500"" height = ""500"" style=""border:5px solid black"">","","",""
"","153.214999998454","stimulus-presentation","146","197255","0.0-17.0-1.15","SS1604513317087","<img src='images/complex/12.png' width ='500' height = '500' style='border:5px solid black'>","40","all_complex","images/complex/3.png","images/complex/12.png","images/complex/7.png,images/complex/9.png,images/complex/13.png,images/complex/4.png,images/complex/14.png,images/complex/11.png,images/complex/5.png","1","null","","200","353.214999998454","","","","background","",""
"","null","html-keyboard-response","147","198104","0.0-17.0-0.16","SS1604513317087","","null","","","","","","","","","","","","<img src=images/blank.png width =""500"" height = ""500"" style=""border:5px solid black"">","","",""
"","5306.024999998044","stimulus-presentation","148","203615","0.0-17.0-1.16","SS1604513317087","<img src='images/complex/12.png' width ='500' height = '500' style='border:5px solid black'>","40","all_complex","images/complex/3.png","images/complex/12.png","images/complex/7.png,images/complex/9.png,images/complex/13.png,images/complex/4.png,images/complex/14.png,images/complex/11.png,images/complex/5.png","1","null","","200","5506.024999998044","yes","4787.995000020601","","background","",""
"","null","html-keyboard-response","149","204613","0.0-17.0-0.17","SS1604513317087","","null","","","","","","","","","","","","<img src=images/blank.png width =""500"" height = ""500"" style=""border:5px solid black"">","","",""
"","52.324999996926636","stimulus-presentation","150","204885","0.0-17.0-1.17","SS1604513317087","<img src='images/complex/12.png' width ='500' height = '500' style='border:5px solid black'>","40","all_complex","images/complex/3.png","images/complex/12.png","images/complex/7.png,images/complex/9.png,images/complex/13.png,images/complex/4.png,images/complex/14.png,images/complex/11.png,images/complex/5.png","1","null","","200","252.32499999692664","yes","16.990000003715977","","background","",""
"","null","html-keyboard-response","151","206135","0.0-17.0-0.18","SS1604513317087","","null","","","","","","","","","","","","<img src=images/blank.png width =""500"" height = ""500"" style=""border:5px solid black"">","","",""
"","257.0750000013504","stimulus-presentation","152","206601","0.0-17.0-1.18","SS1604513317087","<img src='images/complex/12.png' width ='500' height = '500' style='border:5px solid black'>","40","all_complex","images/complex/3.png","images/complex/12.png","images/complex/7.png,images/complex/9.png,images/complex/13.png,images/complex/4.png,images/complex/14.png,images/complex/11.png,images/complex/5.png","1","null","","200","457.0750000013504","yes","20.49500000430271","","background","",""
"","null","html-keyboard-response","153","207847","0.0-17.0-0.19","SS1604513317087","","null","","","","","","","","","","","","<img src=images/blank.png width =""500"" height = ""500"" style=""border:5px solid black"">","","",""
"","152.53999998094514","stimulus-presentation","154","208211","0.0-17.0-1.19","SS1604513317087","<img src='images/complex/12.png' width ='500' height = '500' style='border:5px solid black'>","40","all_complex","images/complex/3.png","images/complex/12.png","images/complex/7.png,images/complex/9.png,images/complex/13.png,images/complex/4.png,images/complex/14.png,images/complex/11.png,images/complex/5.png","1","null","","200","352.53999998094514","","","","background","",""
"","null","html-keyboard-response","155","209359","0.0-17.0-0.20","SS1604513317087","","null","","","","","","","","","","","","<img src=images/blank.png width =""500"" height = ""500"" style=""border:5px solid black"">","","",""
"","225.48500000266358","stimulus-presentation","156","209803","0.0-17.0-1.20","SS1604513317087","<img src='images/complex/3.png' width ='500' height = '500' style='border:5px solid black'>","40","all_complex","images/complex/3.png","images/complex/12.png","images/complex/7.png,images/complex/9.png,images/complex/13.png,images/complex/4.png,images/complex/14.png,images/complex/11.png,images/complex/5.png","1","null","","200","425.4850000026636","yes","57.93500001891516","","target","",""
"","null","html-keyboard-response","157","210723","0.0-17.0-0.21","SS1604513317087","","null","","","","","","","","","","","","<img src=images/blank.png width =""500"" height = ""500"" style=""border:5px solid black"">","","",""
"","104.2299999971874","stimulus-presentation","158","211046","0.0-17.0-1.21","SS1604513317087","<img src='images/complex/12.png' width ='500' height = '500' style='border:5px solid black'>","40","all_complex","images/complex/3.png","images/complex/12.png","images/complex/7.png,images/complex/9.png,images/complex/13.png,images/complex/4.png,images/complex/14.png,images/complex/11.png,images/complex/5.png","1","null","","200","304.2299999971874","","","","background","",""
"","null","html-keyboard-response","159","211976","0.0-17.0-0.22","SS1604513317087","","null","","","","","","","","","","","","<img src=images/blank.png width =""500"" height = ""500"" style=""border:5px solid black"">","","",""
"","65.55500000831671","stimulus-presentation","160","212246","0.0-17.0-1.22","SS1604513317087","<img src='images/complex/12.png' width ='500' height = '500' style='border:5px solid black'>","40","all_complex","images/complex/3.png","images/complex/12.png","images/complex/7.png,images/complex/9.png,images/complex/13.png,images/complex/4.png,images/complex/14.png,images/complex/11.png,images/complex/5.png","1","null","","200","265.5550000083167","","","","background","",""
"","null","html-keyboard-response","161","213120","0.0-17.0-0.23","SS1604513317087","","null","","","","","","","","","","","","<img src=images/blank.png width =""500"" height = ""500"" style=""border:5px solid black"">","","",""
"","27.009999990696087","stimulus-presentation","162","213365","0.0-17.0-1.23","SS1604513317087","<img src='images/complex/12.png' width ='500' height = '500' style='border:5px solid black'>","40","all_complex","images/complex/3.png","images/complex/12.png","images/complex/7.png,images/complex/9.png,images/complex/13.png,images/complex/4.png,images/complex/14.png,images/complex/11.png,images/complex/5.png","1","null","","200","227.0099999906961","","","","background","",""
"","null","html-keyboard-response","163","214529","0.0-17.0-0.24","SS1604513317087","","null","","","","","","","","","","","","<img src=images/blank.png width =""500"" height = ""500"" style=""border:5px solid black"">","","",""
"","291.8599999975413","stimulus-presentation","164","215038","0.0-17.0-1.24","SS1604513317087","<img src='images/complex/13.png' width ='500' height = '500' style='border:5px solid black'>","40","all_complex","images/complex/3.png","images/complex/12.png","images/complex/7.png,images/complex/9.png,images/complex/13.png,images/complex/4.png,images/complex/14.png,images/complex/11.png,images/complex/5.png","1","null","","200","491.8599999975413","","","","deviant","",""
"","null","html-keyboard-response","165","216083","0.0-17.0-0.25","SS1604513317087","","null","","","","","","","","","","","","<img src=images/blank.png width =""500"" height = ""500"" style=""border:5px solid black"">","","",""
"","245.0550000066869","stimulus-presentation","166","216533","0.0-17.0-1.25","SS1604513317087","<img src='images/complex/12.png' width ='500' height = '500' style='border:5px solid black'>","40","all_complex","images/complex/3.png","images/complex/12.png","images/complex/7.png,images/complex/9.png,images/complex/13.png,images/complex/4.png,images/complex/14.png,images/complex/11.png,images/complex/5.png","1","null","","200","445.0550000066869","","","","background","",""
"","null","html-keyboard-response","167","217628","0.0-17.0-0.26","SS1604513317087","","null","","","","","","","","","","","","<img src=images/blank.png width =""500"" height = ""500"" style=""border:5px solid black"">","","",""
"","52.219999983208254","stimulus-presentation","168","217899","0.0-17.0-1.26","SS1604513317087","<img src='images/complex/12.png' width ='500' height = '500' style='border:5px solid black'>","40","all_complex","images/complex/3.png","images/complex/12.png","images/complex/7.png,images/complex/9.png,images/complex/13.png,images/complex/4.png,images/complex/14.png,images/complex/11.png,images/complex/5.png","1","null","","200","252.21999998320825","","","","background","",""
"","null","html-keyboard-response","169","219163","0.0-17.0-0.27","SS1604513317087","","null","","","","","","","","","","","","<img src=images/blank.png width =""500"" height = ""500"" style=""border:5px solid black"">","","",""
"","37.34999999869615","stimulus-presentation","170","219407","0.0-17.0-1.27","SS1604513317087","<img src='images/complex/12.png' width ='500' height = '500' style='border:5px solid black'>","40","all_complex","images/complex/3.png","images/complex/12.png","images/complex/7.png,images/complex/9.png,images/complex/13.png,images/complex/4.png,images/complex/14.png,images/complex/11.png,images/complex/5.png","1","null","","200","237.34999999869615","","","","background","",""
"","null","html-keyboard-response","171","220560","0.0-17.0-0.28","SS1604513317087","","null","","","","","","","","","","","","<img src=images/blank.png width =""500"" height = ""500"" style=""border:5px solid black"">","","",""
"","70.76500001130626","stimulus-presentation","172","220837","0.0-17.0-1.28","SS1604513317087","<img src='images/complex/5.png' width ='500' height = '500' style='border:5px solid black'>","40","all_complex","images/complex/3.png","images/complex/12.png","images/complex/7.png,images/complex/9.png,images/complex/13.png,images/complex/4.png,images/complex/14.png,images/complex/11.png,images/complex/5.png","1","null","","200","270.76500001130626","","","","deviant","",""
"","null","html-keyboard-response","173","221790","0.0-17.0-0.29","SS1604513317087","","null","","","","","","","","","","","","<img src=images/blank.png width =""500"" height = ""500"" style=""border:5px solid black"">","","",""
"","105.77999998349696","stimulus-presentation","174","222107","0.0-17.0-1.29","SS1604513317087","<img src='images/complex/12.png' width ='500' height = '500' style='border:5px solid black'>","40","all_complex","images/complex/3.png","images/complex/12.png","images/complex/7.png,images/complex/9.png,images/complex/13.png,images/complex/4.png,images/complex/14.png,images/complex/11.png,images/complex/5.png","1","null","","200","305.77999998349696","","","","background","",""
"","null","html-keyboard-response","175","223021","0.0-17.0-0.30","SS1604513317087","","null","","","","","","","","","","","","<img src=images/blank.png width =""500"" height = ""500"" style=""border:5px solid black"">","","",""
"","15.260000014677644","stimulus-presentation","176","223256","0.0-17.0-1.30","SS1604513317087","<img src='images/complex/12.png' width ='500' height = '500' style='border:5px solid black'>","40","all_complex","images/complex/3.png","images/complex/12.png","images/complex/7.png,images/complex/9.png,images/complex/13.png,images/complex/4.png,images/complex/14.png,images/complex/11.png,images/complex/5.png","1","null","","200","215.26000001467764","yes","2.6550000184215605","","background","",""
"","null","html-keyboard-response","177","224187","0.0-17.0-0.31","SS1604513317087","","null","","","","","","","","","","","","<img src=images/blank.png width =""500"" height = ""500"" style=""border:5px solid black"">","","",""
"","46.06500000227243","stimulus-presentation","178","224444","0.0-17.0-1.31","SS1604513317087","<img src='images/complex/3.png' width ='500' height = '500' style='border:5px solid black'>","40","all_complex","images/complex/3.png","images/complex/12.png","images/complex/7.png,images/complex/9.png,images/complex/13.png,images/complex/4.png,images/complex/14.png,images/complex/11.png,images/complex/5.png","1","null","","200","246.06500000227243","","","","target","",""
"","null","html-keyboard-response","179","225573","0.0-17.0-0.32","SS1604513317087","","null","","","","","","","","","","","","<img src=images/blank.png width =""500"" height = ""500"" style=""border:5px solid black"">","","",""
"","131.66500002262183","stimulus-presentation","180","225925","0.0-17.0-1.32","SS1604513317087","<img src='images/complex/12.png' width ='500' height = '500' style='border:5px solid black'>","40","all_complex","images/complex/3.png","images/complex/12.png","images/complex/7.png,images/complex/9.png,images/complex/13.png,images/complex/4.png,images/complex/14.png,images/complex/11.png,images/complex/5.png","1","null","","200","331.6650000226218","","","","background","",""
"","null","html-keyboard-response","181","227018","0.0-17.0-0.33","SS1604513317087","","null","","","","","","","","","","","","<img src=images/blank.png width =""500"" height = ""500"" style=""border:5px solid black"">","","",""
"","174.01000001700595","stimulus-presentation","182","227397","0.0-17.0-1.33","SS1604513317087","<img src='images/complex/11.png' width ='500' height = '500' style='border:5px solid black'>","40","all_complex","images/complex/3.png","images/complex/12.png","images/complex/7.png,images/complex/9.png,images/complex/13.png,images/complex/4.png,images/complex/14.png,images/complex/11.png,images/complex/5.png","1","null","","200","374.01000001700595","yes","112.31500000576489","","deviant","",""
"","null","html-keyboard-response","183","228619","0.0-17.0-0.34","SS1604513317087","","null","","","","","","","","","","","","<img src=images/blank.png width =""500"" height = ""500"" style=""border:5px solid black"">","","",""
"","60.93999999575317","stimulus-presentation","184","228883","0.0-17.0-1.34","SS1604513317087","<img src='images/complex/12.png' width ='500' height = '500' style='border:5px solid black'>","40","all_complex","images/complex/3.png","images/complex/12.png","images/complex/7.png,images/complex/9.png,images/complex/13.png,images/complex/4.png,images/complex/14.png,images/complex/11.png,images/complex/5.png","1","null","","200","260.93999999575317","","","","background","",""
"","null","html-keyboard-response","185","229840","0.0-17.0-0.35","SS1604513317087","","null","","","","","","","","","","","","<img src=images/blank.png width =""500"" height = ""500"" style=""border:5px solid black"">","","",""
"","15.034999989438802","stimulus-presentation","186","230075","0.0-17.0-1.35","SS1604513317087","<img src='images/complex/12.png' width ='500' height = '500' style='border:5px solid black'>","40","all_complex","images/complex/3.png","images/complex/12.png","images/complex/7.png,images/complex/9.png,images/complex/13.png,images/complex/4.png,images/complex/14.png,images/complex/11.png,images/complex/5.png","1","null","","200","215.0349999894388","","","","background","",""
"","null","html-keyboard-response","187","230985","0.0-17.0-0.36","SS1604513317087","","null","","","","","","","","","","","","<img src=images/blank.png width =""500"" height = ""500"" style=""border:5px solid black"">","","",""
"","24.0699999849312","stimulus-presentation","188","231213","0.0-17.0-1.36","SS1604513317087","<img src='images/complex/12.png' width ='500' height = '500' style='border:5px solid black'>","40","all_complex","images/complex/3.png","images/complex/12.png","images/complex/7.png,images/complex/9.png,images/complex/13.png,images/complex/4.png,images/complex/14.png,images/complex/11.png,images/complex/5.png","1","null","","200","224.0699999849312","","","","background","",""
"","null","html-keyboard-response","189","232415","0.0-17.0-0.37","SS1604513317087","","null","","","","","","","","","","","","<img src=images/blank.png width =""500"" height = ""500"" style=""border:5px solid black"">","","",""
"","241.58500001067296","stimulus-presentation","190","232875","0.0-17.0-1.37","SS1604513317087","<img src='images/complex/12.png' width ='500' height = '500' style='border:5px solid black'>","40","all_complex","images/complex/3.png","images/complex/12.png","images/complex/7.png,images/complex/9.png,images/complex/13.png,images/complex/4.png,images/complex/14.png,images/complex/11.png,images/complex/5.png","1","null","","200","441.58500001067296","","","","background","",""
"","null","html-keyboard-response","191","233922","0.0-17.0-0.38","SS1604513317087","","null","","","","","","","","","","","","<img src=images/blank.png width =""500"" height = ""500"" style=""border:5px solid black"">","","",""
"","349.68499999376945","stimulus-presentation","192","234489","0.0-17.0-1.38","SS1604513317087","<img src='images/complex/7.png' width ='500' height = '500' style='border:5px solid black'>","40","all_complex","images/complex/3.png","images/complex/12.png","images/complex/7.png,images/complex/9.png,images/complex/13.png,images/complex/4.png,images/complex/14.png,images/complex/11.png,images/complex/5.png","1","null","","200","549.6849999937695","","","","deviant","",""
"","null","html-keyboard-response","193","235347","0.0-17.0-0.39","SS1604513317087","","null","","","","","","","","","","","","<img src=images/blank.png width =""500"" height = ""500"" style=""border:5px solid black"">","","",""
"","87.80999999726191","stimulus-presentation","194","235652","0.0-17.0-1.39","SS1604513317087","<img src='images/complex/3.png' width ='500' height = '500' style='border:5px solid black'>","40","all_complex","images/complex/3.png","images/complex/12.png","images/complex/7.png,images/complex/9.png,images/complex/13.png,images/complex/4.png,images/complex/14.png,images/complex/11.png,images/complex/5.png","1","null","","200","287.8099999972619","yes","20.84500002092682","","target","",""
"","null","html-keyboard-response","195","236768","0.0-17.0-0.40","SS1604513317087","","null","","","","","","","","","","","","<img src=images/blank.png width =""500"" height = ""500"" style=""border:5px solid black"">","","",""
"","159.78500002529472","stimulus-presentation","196","237132","0.0-17.0-1.40","SS1604513317087","<img src='images/complex/12.png' width ='500' height = '500' style='border:5px solid black'>","40","all_complex","images/complex/3.png","images/complex/12.png","images/complex/7.png,images/complex/9.png,images/complex/13.png,images/complex/4.png,images/complex/14.png,images/complex/11.png,images/complex/5.png","1","null","","200","359.7850000252947","yes","131.87500002095476","","background","",""
"","null","html-keyboard-response","197","238151","0.0-17.0-0.41","SS1604513317087","","null","","","","","","","","","","","","<img src=images/blank.png width =""500"" height = ""500"" style=""border:5px solid black"">","","",""
"","413.4500000218395","stimulus-presentation","198","238768","0.0-17.0-1.41","SS1604513317087","<img src='images/complex/12.png' width ='500' height = '500' style='border:5px solid black'>","40","all_complex","images/complex/3.png","images/complex/12.png","images/complex/7.png,images/complex/9.png,images/complex/13.png,images/complex/4.png,images/complex/14.png,images/complex/11.png,images/complex/5.png","1","null","","200","613.4500000218395","yes","380.8800000115298","","background","",""
"","null","html-keyboard-response","199","239661","0.0-17.0-0.42","SS1604513317087","","null","","","","","","","","","","","","<img src=images/blank.png width =""500"" height = ""500"" style=""border:5px solid black"">","","",""
"","97.974999982398","stimulus-presentation","200","239972","0.0-17.0-1.42","SS1604513317087","<img src='images/complex/12.png' width ='500' height = '500' style='border:5px solid black'>","40","all_complex","images/complex/3.png","images/complex/12.png","images/complex/7.png,images/complex/9.png,images/complex/13.png,images/complex/4.png,images/complex/14.png,images/complex/11.png,images/complex/5.png","1","null","","200","297.974999982398","","","","background","",""
"","null","html-keyboard-response","201","241084","0.0-17.0-0.43","SS1604513317087","","null","","","","","","","","","","","","<img src=images/blank.png width =""500"" height = ""500"" style=""border:5px solid black"">","","",""
"","228.9650000166148","stimulus-presentation","202","241519","0.0-17.0-1.43","SS1604513317087","<img src='images/complex/12.png' width ='500' height = '500' style='border:5px solid black'>","40","all_complex","images/complex/3.png","images/complex/12.png","images/complex/7.png,images/complex/9.png,images/complex/13.png,images/complex/4.png,images/complex/14.png,images/complex/11.png,images/complex/5.png","1","null","","200","428.9650000166148","yes","34.340000012889504","","background","",""
"","null","html-keyboard-response","203","242510","0.0-17.0-0.44","SS1604513317087","","null","","","","","","","","","","","","<img src=images/blank.png width =""500"" height = ""500"" style=""border:5px solid black"">","","",""
"","13.13000000664033","stimulus-presentation","204","242727","0.0-17.0-1.44","SS1604513317087","<img src='images/complex/4.png' width ='500' height = '500' style='border:5px solid black'>","40","all_complex","images/complex/3.png","images/complex/12.png","images/complex/7.png,images/complex/9.png,images/complex/13.png,images/complex/4.png,images/complex/14.png,images/complex/11.png,images/complex/5.png","1","null","","200","213.13000000664033","","","","deviant","",""
"","null","html-keyboard-response","205","243667","0.0-17.0-0.45","SS1604513317087","","null","","","","","","","","","","","","<img src=images/blank.png width =""500"" height = ""500"" style=""border:5px solid black"">","","",""
"","137.64000000082888","stimulus-presentation","206","244010","0.0-17.0-1.45","SS1604513317087","<img src='images/complex/12.png' width ='500' height = '500' style='border:5px solid black'>","40","all_complex","images/complex/3.png","images/complex/12.png","images/complex/7.png,images/complex/9.png,images/complex/13.png,images/complex/4.png,images/complex/14.png,images/complex/11.png,images/complex/5.png","1","null","","200","337.6400000008289","yes","93.0299999890849","","background","",""
"","null","html-keyboard-response","207","244947","0.0-17.0-0.46","SS1604513317087","","null","","","","","","","","","","","","<img src=images/blank.png width =""500"" height = ""500"" style=""border:5px solid black"">","","",""
"","262.39499999792315","stimulus-presentation","208","245428","0.0-17.0-1.46","SS1604513317087","<img src='images/complex/12.png' width ='500' height = '500' style='border:5px solid black'>","40","all_complex","images/complex/3.png","images/complex/12.png","images/complex/7.png,images/complex/9.png,images/complex/13.png,images/complex/4.png,images/complex/14.png,images/complex/11.png,images/complex/5.png","1","null","","200","462.39499999792315","yes","95.23999999510124","","background","",""
"","null","html-keyboard-response","209","246728","0.0-17.0-0.47","SS1604513317087","","null","","","","","","","","","","","","<img src=images/blank.png width =""500"" height = ""500"" style=""border:5px solid black"">","","",""
"","435.31000000075437","stimulus-presentation","210","247380","0.0-17.0-1.47","SS1604513317087","<img src='images/complex/12.png' width ='500' height = '500' style='border:5px solid black'>","40","all_complex","images/complex/3.png","images/complex/12.png","images/complex/7.png,images/complex/9.png,images/complex/13.png,images/complex/4.png,images/complex/14.png,images/complex/11.png,images/complex/5.png","1","null","","200","635.3100000007544","","","","background","",""
"","null","html-keyboard-response","211","248502","0.0-17.0-0.48","SS1604513317087","","null","","","","","","","","","","","","<img src=images/blank.png width =""500"" height = ""500"" style=""border:5px solid black"">","","",""
"","119.925000006333","stimulus-presentation","212","248827","0.0-17.0-1.48","SS1604513317087","<img src='images/complex/12.png' width ='500' height = '500' style='border:5px solid black'>","40","all_complex","images/complex/3.png","images/complex/12.png","images/complex/7.png,images/complex/9.png,images/complex/13.png,images/complex/4.png,images/complex/14.png,images/complex/11.png,images/complex/5.png","1","null","","200","319.925000006333","yes","30.159999994793907","","background","",""
"[{""page_index"":0,""viewing_time"":5024}]","5024","task-instructions","213","253853","0.0-18.0","SS1604513317087","","","","","","","","","","","","","","","","",""
"[{""page_index"":0,""viewing_time"":1945.6200000131503},{""page_index"":1,""viewing_time"":2809.144999977434},{""page_index"":2,""viewing_time"":2026.1549999995623}]","6781.1299999884795","instructions","214","260637","0.0-19.0","SS1604513317087","","","","","","","","","","","","","","","","",""
"","null","html-keyboard-response","215","261914","0.0-20.0-0.0","SS1604513317087","","null","","","","","","","","","","","","<img src=images/blank.png width =""500"" height = ""500"" style=""border:5px solid black"">","","",""
"","1146.7450000054669","stimulus-presentation","216","263266","0.0-20.0-1.0","SS1604513317087","<img src='images/simple/17.png' width ='500' height = '500' style='border:5px solid black'>","40","mixed_complex_deviant","images/simple/12.png","images/simple/17.png","images/complex/17.png,images/complex/18.png,images/complex/8.png,images/complex/15.png,images/complex/1.png,images/complex/6.png,images/complex/2.png","2","null","","200","1346.7450000054669","","","","background","",""
"","null","html-keyboard-response","217","264264","0.0-20.0-0.1","SS1604513317087","","null","","","","","","","","","","","","<img src=images/blank.png width =""500"" height = ""500"" style=""border:5px solid black"">","","",""
"","488.0750000011176","stimulus-presentation","218","264973","0.0-20.0-1.1","SS1604513317087","<img src='images/complex/17.png' width ='500' height = '500' style='border:5px solid black'>","40","mixed_complex_deviant","images/simple/12.png","images/simple/17.png","images/complex/17.png,images/complex/18.png,images/complex/8.png,images/complex/15.png,images/complex/1.png,images/complex/6.png,images/complex/2.png","2","null","","200","688.0750000011176","yes","268.15999997779727","","deviant","",""
"","null","html-keyboard-response","219","266048","0.0-20.0-0.2","SS1604513317087","","null","","","","","","","","","","","","<img src=images/blank.png width =""500"" height = ""500"" style=""border:5px solid black"">","","",""
"","241.31000001216307","stimulus-presentation","220","266509","0.0-20.0-1.2","SS1604513317087","<img src='images/simple/12.png' width ='500' height = '500' style='border:5px solid black'>","40","mixed_complex_deviant","images/simple/12.png","images/simple/17.png","images/complex/17.png,images/complex/18.png,images/complex/8.png,images/complex/15.png,images/complex/1.png,images/complex/6.png,images/complex/2.png","2","null","","200","441.3100000121631","","","","target","",""
"","null","html-keyboard-response","221","267538","0.0-20.0-0.3","SS1604513317087","","null","","","","","","","","","","","","<img src=images/blank.png width =""500"" height = ""500"" style=""border:5px solid black"">","","",""
"","161.47500000079162","stimulus-presentation","222","267917","0.0-20.0-1.3","SS1604513317087","<img src='images/simple/17.png' width ='500' height = '500' style='border:5px solid black'>","40","mixed_complex_deviant","images/simple/12.png","images/simple/17.png","images/complex/17.png,images/complex/18.png,images/complex/8.png,images/complex/15.png,images/complex/1.png,images/complex/6.png,images/complex/2.png","2","null","","200","361.4750000007916","","","","background","",""
"","null","html-keyboard-response","223","269035","0.0-20.0-0.4","SS1604513317087","","null","","","","","","","","","","","","<img src=images/blank.png width =""500"" height = ""500"" style=""border:5px solid black"">","","",""
"","934.2399999732152","stimulus-presentation","224","270174","0.0-20.0-1.4","SS1604513317087","<img src='images/simple/17.png' width ='500' height = '500' style='border:5px solid black'>","40","mixed_complex_deviant","images/simple/12.png","images/simple/17.png","images/complex/17.png,images/complex/18.png,images/complex/8.png,images/complex/15.png,images/complex/1.png,images/complex/6.png,images/complex/2.png","2","null","","200","1134.2399999732152","yes","163.16999998525716","","background","",""
"","null","html-keyboard-response","225","271054","0.0-20.0-0.5","SS1604513317087","","null","","","","","","","","","","","","<img src=images/blank.png width =""500"" height = ""500"" style=""border:5px solid black"">","","",""
"","147.4799999850802","stimulus-presentation","226","271410","0.0-20.0-1.5","SS1604513317087","<img src='images/simple/17.png' width ='500' height = '500' style='border:5px solid black'>","40","mixed_complex_deviant","images/simple/12.png","images/simple/17.png","images/complex/17.png,images/complex/18.png,images/complex/8.png,images/complex/15.png,images/complex/1.png,images/complex/6.png,images/complex/2.png","2","null","","200","347.4799999850802","","","","background","",""
"","null","html-keyboard-response","227","272601","0.0-20.0-0.6","SS1604513317087","","null","","","","","","","","","","","","<img src=images/blank.png width =""500"" height = ""500"" style=""border:5px solid black"">","","",""
"","156.9000000017695","stimulus-presentation","228","272975","0.0-20.0-1.6","SS1604513317087","<img src='images/simple/12.png' width ='500' height = '500' style='border:5px solid black'>","40","mixed_complex_deviant","images/simple/12.png","images/simple/17.png","images/complex/17.png,images/complex/18.png,images/complex/8.png,images/complex/15.png,images/complex/1.png,images/complex/6.png,images/complex/2.png","2","null","","200","356.9000000017695","","","","target","",""
"","null","html-keyboard-response","229","273810","0.0-20.0-0.7","SS1604513317087","","null","","","","","","","","","","","","<img src=images/blank.png width =""500"" height = ""500"" style=""border:5px solid black"">","","",""
"","93.18500000517815","stimulus-presentation","230","274124","0.0-20.0-1.7","SS1604513317087","<img src='images/simple/17.png' width ='500' height = '500' style='border:5px solid black'>","40","mixed_complex_deviant","images/simple/12.png","images/simple/17.png","images/complex/17.png,images/complex/18.png,images/complex/8.png,images/complex/15.png,images/complex/1.png,images/complex/6.png,images/complex/2.png","2","null","","200","293.18500000517815","","","","background","",""
"","null","html-keyboard-response","231","275035","0.0-20.0-0.8","SS1604513317087","","null","","","","","","","","","","","","<img src=images/blank.png width =""500"" height = ""500"" style=""border:5px solid black"">","","",""
"","102.09500000928529","stimulus-presentation","232","275352","0.0-20.0-1.8","SS1604513317087","<img src='images/simple/17.png' width ='500' height = '500' style='border:5px solid black'>","40","mixed_complex_deviant","images/simple/12.png","images/simple/17.png","images/complex/17.png,images/complex/18.png,images/complex/8.png,images/complex/15.png,images/complex/1.png,images/complex/6.png,images/complex/2.png","2","null","","200","302.0950000092853","","","","background","",""
"","null","html-keyboard-response","233","276490","0.0-20.0-0.9","SS1604513317087","","null","","","","","","","","","","","","<img src=images/blank.png width =""500"" height = ""500"" style=""border:5px solid black"">","","",""
"","93.98499998496845","stimulus-presentation","234","276801","0.0-20.0-1.9","SS1604513317087","<img src='images/simple/12.png' width ='500' height = '500' style='border:5px solid black'>","40","mixed_complex_deviant","images/simple/12.png","images/simple/17.png","images/complex/17.png,images/complex/18.png,images/complex/8.png,images/complex/15.png,images/complex/1.png,images/complex/6.png,images/complex/2.png","2","null","","200","293.98499998496845","","","","target","",""
"","null","html-keyboard-response","235","277635","0.0-20.0-0.10","SS1604513317087","","null","","","","","","","","","","","","<img src=images/blank.png width =""500"" height = ""500"" style=""border:5px solid black"">","","",""
"","84.39500001259148","stimulus-presentation","236","277925","0.0-20.0-1.10","SS1604513317087","<img src='images/complex/6.png' width ='500' height = '500' style='border:5px solid black'>","40","mixed_complex_deviant","images/simple/12.png","images/simple/17.png","images/complex/17.png,images/complex/18.png,images/complex/8.png,images/complex/15.png,images/complex/1.png,images/complex/6.png,images/complex/2.png","2","null","","200","284.3950000125915","","","","deviant","",""
"","null","html-keyboard-response","237","278968","0.0-20.0-0.11","SS1604513317087","","null","","","","","","","","","","","","<img src=images/blank.png width =""500"" height = ""500"" style=""border:5px solid black"">","","",""
"","183.00499999895692","stimulus-presentation","238","279356","0.0-20.0-1.11","SS1604513317087","<img src='images/simple/17.png' width ='500' height = '500' style='border:5px solid black'>","40","mixed_complex_deviant","images/simple/12.png","images/simple/17.png","images/complex/17.png,images/complex/18.png,images/complex/8.png,images/complex/15.png,images/complex/1.png,images/complex/6.png,images/complex/2.png","2","null","","200","383.0049999989569","","","","background","",""
"","null","html-keyboard-response","239","280630","0.0-20.0-0.12","SS1604513317087","","null","","","","","","","","","","","","<img src=images/blank.png width =""500"" height = ""500"" style=""border:5px solid black"">","","",""
"","361.1150000069756","stimulus-presentation","240","281210","0.0-20.0-1.12","SS1604513317087","<img src='images/simple/17.png' width ='500' height = '500' style='border:5px solid black'>","40","mixed_complex_deviant","images/simple/12.png","images/simple/17.png","images/complex/17.png,images/complex/18.png,images/complex/8.png,images/complex/15.png,images/complex/1.png,images/complex/6.png,images/complex/2.png","2","null","","200","561.1150000069756","yes","74.51000000583008","","background","",""
"","null","html-keyboard-response","241","282072","0.0-20.0-0.13","SS1604513317087","","null","","","","","","","","","","","","<img src=images/blank.png width =""500"" height = ""500"" style=""border:5px solid black"">","","",""
"","171.27500000060536","stimulus-presentation","242","282449","0.0-20.0-1.13","SS1604513317087","<img src='images/complex/8.png' width ='500' height = '500' style='border:5px solid black'>","40","mixed_complex_deviant","images/simple/12.png","images/simple/17.png","images/complex/17.png,images/complex/18.png,images/complex/8.png,images/complex/15.png,images/complex/1.png,images/complex/6.png,images/complex/2.png","2","null","","200","371.27500000060536","","","","deviant","",""
"","null","html-keyboard-response","243","283528","0.0-20.0-0.14","SS1604513317087","","null","","","","","","","","","","","","<img src=images/blank.png width =""500"" height = ""500"" style=""border:5px solid black"">","","",""
"","52.93500001425855","stimulus-presentation","244","283799","0.0-20.0-1.14","SS1604513317087","<img src='images/simple/17.png' width ='500' height = '500' style='border:5px solid black'>","40","mixed_complex_deviant","images/simple/12.png","images/simple/17.png","images/complex/17.png,images/complex/18.png,images/complex/8.png,images/complex/15.png,images/complex/1.png,images/complex/6.png,images/complex/2.png","2","null","","200","252.93500001425855","","","","background","",""
"","null","html-keyboard-response","245","285018","0.0-20.0-0.15","SS1604513317087","","null","","","","","","","","","","","","<img src=images/blank.png width =""500"" height = ""500"" style=""border:5px solid black"">","","",""
"","154.68999999575317","stimulus-presentation","246","285387","0.0-20.0-1.15","SS1604513317087","<img src='images/simple/17.png' width ='500' height = '500' style='border:5px solid black'>","40","mixed_complex_deviant","images/simple/12.png","images/simple/17.png","images/complex/17.png,images/complex/18.png,images/complex/8.png,images/complex/15.png,images/complex/1.png,images/complex/6.png,images/complex/2.png","2","null","","200","354.68999999575317","","","","background","",""
"","null","html-keyboard-response","247","286384","0.0-20.0-0.16","SS1604513317087","","null","","","","","","","","","","","","<img src=images/blank.png width =""500"" height = ""500"" style=""border:5px solid black"">","","",""
"","227.599999983795","stimulus-presentation","248","286833","0.0-20.0-1.16","SS1604513317087","<img src='images/simple/12.png' width ='500' height = '500' style='border:5px solid black'>","40","mixed_complex_deviant","images/simple/12.png","images/simple/17.png","images/complex/17.png,images/complex/18.png,images/complex/8.png,images/complex/15.png,images/complex/1.png,images/complex/6.png,images/complex/2.png","2","null","","200","427.599999983795","","","","target","",""
"","null","html-keyboard-response","249","287724","0.0-20.0-0.17","SS1604513317087","","null","","","","","","","","","","","","<img src=images/blank.png width =""500"" height = ""500"" style=""border:5px solid black"">","","",""
"","32.725000026402995","stimulus-presentation","250","287961","0.0-20.0-1.17","SS1604513317087","<img src='images/simple/12.png' width ='500' height = '500' style='border:5px solid black'>","40","mixed_complex_deviant","images/simple/12.png","images/simple/17.png","images/complex/17.png,images/complex/18.png,images/complex/8.png,images/complex/15.png,images/complex/1.png,images/complex/6.png,images/complex/2.png","2","null","","200","232.725000026403","yes","12.135000026319176","","target","",""
"","null","html-keyboard-response","251","288841","0.0-20.0-0.18","SS1604513317087","","null","","","","","","","","","","","","<img src=images/blank.png width =""500"" height = ""500"" style=""border:5px solid black"">","","",""
"","128.64499998977408","stimulus-presentation","252","289187","0.0-20.0-1.18","SS1604513317087","<img src='images/complex/2.png' width ='500' height = '500' style='border:5px solid black'>","40","mixed_complex_deviant","images/simple/12.png","images/simple/17.png","images/complex/17.png,images/complex/18.png,images/complex/8.png,images/complex/15.png,images/complex/1.png,images/complex/6.png,images/complex/2.png","2","null","","200","328.6449999897741","","","","deviant","",""
"","null","html-keyboard-response","253","290125","0.0-20.0-0.19","SS1604513317087","","null","","","","","","","","","","","","<img src=images/blank.png width =""500"" height = ""500"" style=""border:5px solid black"">","","",""
"","264.4199999922421","stimulus-presentation","254","290596","0.0-20.0-1.19","SS1604513317087","<img src='images/simple/17.png' width ='500' height = '500' style='border:5px solid black'>","40","mixed_complex_deviant","images/simple/12.png","images/simple/17.png","images/complex/17.png,images/complex/18.png,images/complex/8.png,images/complex/15.png,images/complex/1.png,images/complex/6.png,images/complex/2.png","2","null","","200","464.4199999922421","yes","99.1199999989476","","background","",""
"","null","html-keyboard-response","255","291488","0.0-20.0-0.20","SS1604513317087","","null","","","","","","","","","","","","<img src=images/blank.png width =""500"" height = ""500"" style=""border:5px solid black"">","","",""
"","28.72999999090098","stimulus-presentation","256","291722","0.0-20.0-1.20","SS1604513317087","<img src='images/simple/17.png' width ='500' height = '500' style='border:5px solid black'>","40","mixed_complex_deviant","images/simple/12.png","images/simple/17.png","images/complex/17.png,images/complex/18.png,images/complex/8.png,images/complex/15.png,images/complex/1.png,images/complex/6.png,images/complex/2.png","2","null","","200","228.72999999090098","","","","background","",""
"","null","html-keyboard-response","257","293026","0.0-20.0-0.21","SS1604513317087","","null","","","","","","","","","","","","<img src=images/blank.png width =""500"" height = ""500"" style=""border:5px solid black"">","","",""
"","126.17500001215376","stimulus-presentation","258","293373","0.0-20.0-1.21","SS1604513317087","<img src='images/simple/17.png' width ='500' height = '500' style='border:5px solid black'>","40","mixed_complex_deviant","images/simple/12.png","images/simple/17.png","images/complex/17.png,images/complex/18.png,images/complex/8.png,images/complex/15.png,images/complex/1.png,images/complex/6.png,images/complex/2.png","2","null","","200","326.17500001215376","yes","39.43000000435859","","background","",""
"","null","html-keyboard-response","259","294311","0.0-20.0-0.22","SS1604513317087","","null","","","","","","","","","","","","<img src=images/blank.png width =""500"" height = ""500"" style=""border:5px solid black"">","","",""
"","3.429999982472509","stimulus-presentation","260","294533","0.0-20.0-1.22","SS1604513317087","<img src='images/simple/17.png' width ='500' height = '500' style='border:5px solid black'>","40","mixed_complex_deviant","images/simple/12.png","images/simple/17.png","images/complex/17.png,images/complex/18.png,images/complex/8.png,images/complex/15.png,images/complex/1.png,images/complex/6.png,images/complex/2.png","2","null","","200","203.4299999824725","","","","background","",""
"","null","html-keyboard-response","261","295374","0.0-20.0-0.23","SS1604513317087","","null","","","","","","","","","","","","<img src=images/blank.png width =""500"" height = ""500"" style=""border:5px solid black"">","","",""
"","352.61000000173226","stimulus-presentation","262","295945","0.0-20.0-1.23","SS1604513317087","<img src='images/simple/17.png' width ='500' height = '500' style='border:5px solid black'>","40","mixed_complex_deviant","images/simple/12.png","images/simple/17.png","images/complex/17.png,images/complex/18.png,images/complex/8.png,images/complex/15.png,images/complex/1.png,images/complex/6.png,images/complex/2.png","2","null","","200","552.6100000017323","yes","16.42500000889413","","background","",""
"","null","html-keyboard-response","263","297132","0.0-20.0-0.24","SS1604513317087","","null","","","","","","","","","","","","<img src=images/blank.png width =""500"" height = ""500"" style=""border:5px solid black"">","","",""
"","341.44499999820255","stimulus-presentation","264","297692","0.0-20.0-1.24","SS1604513317087","<img src='images/complex/18.png' width ='500' height = '500' style='border:5px solid black'>","40","mixed_complex_deviant","images/simple/12.png","images/simple/17.png","images/complex/17.png,images/complex/18.png,images/complex/8.png,images/complex/15.png,images/complex/1.png,images/complex/6.png,images/complex/2.png","2","null","","200","541.4449999982025","yes","121.88500000047497","","deviant","",""
"","null","html-keyboard-response","265","298989","0.0-20.0-0.25","SS1604513317087","","null","","","","","","","","","","","","<img src=images/blank.png width =""500"" height = ""500"" style=""border:5px solid black"">","","",""
"","284.5600000000559","stimulus-presentation","266","299489","0.0-20.0-1.25","SS1604513317087","<img src='images/simple/17.png' width ='500' height = '500' style='border:5px solid black'>","40","mixed_complex_deviant","images/simple/12.png","images/simple/17.png","images/complex/17.png,images/complex/18.png,images/complex/8.png,images/complex/15.png,images/complex/1.png,images/complex/6.png,images/complex/2.png","2","null","","200","484.5600000000559","","","","background","",""
"","null","html-keyboard-response","267","300542","0.0-20.0-0.26","SS1604513317087","","null","","","","","","","","","","","","<img src=images/blank.png width =""500"" height = ""500"" style=""border:5px solid black"">","","",""
"","285.7500000100117","stimulus-presentation","268","301047","0.0-20.0-1.26","SS1604513317087","<img src='images/simple/17.png' width ='500' height = '500' style='border:5px solid black'>","40","mixed_complex_deviant","images/simple/12.png","images/simple/17.png","images/complex/17.png,images/complex/18.png,images/complex/8.png,images/complex/15.png,images/complex/1.png,images/complex/6.png,images/complex/2.png","2","null","","200","485.7500000100117","","","","background","",""
"","null","html-keyboard-response","269","302123","0.0-20.0-0.27","SS1604513317087","","null","","","","","","","","","","","","<img src=images/blank.png width =""500"" height = ""500"" style=""border:5px solid black"">","","",""
"","323.2799999823328","stimulus-presentation","270","302666","0.0-20.0-1.27","SS1604513317087","<img src='images/simple/17.png' width ='500' height = '500' style='border:5px solid black'>","40","mixed_complex_deviant","images/simple/12.png","images/simple/17.png","images/complex/17.png,images/complex/18.png,images/complex/8.png,images/complex/15.png,images/complex/1.png,images/complex/6.png,images/complex/2.png","2","null","","200","523.2799999823328","yes","305.99500000244007","","background","",""
"","null","html-keyboard-response","271","303748","0.0-20.0-0.28","SS1604513317087","","null","","","","","","","","","","","","<img src=images/blank.png width =""500"" height = ""500"" style=""border:5px solid black"">","","",""
"","165.77999998116866","stimulus-presentation","272","304121","0.0-20.0-1.28","SS1604513317087","<img src='images/simple/17.png' width ='500' height = '500' style='border:5px solid black'>","40","mixed_complex_deviant","images/simple/12.png","images/simple/17.png","images/complex/17.png,images/complex/18.png,images/complex/8.png,images/complex/15.png,images/complex/1.png,images/complex/6.png,images/complex/2.png","2","null","","200","365.77999998116866","yes","144.10000000498258","","background","",""
"","null","html-keyboard-response","273","305417","0.0-20.0-0.29","SS1604513317087","","null","","","","","","","","","","","","<img src=images/blank.png width =""500"" height = ""500"" style=""border:5px solid black"">","","",""
"","295.8949999883771","stimulus-presentation","274","305926","0.0-20.0-1.29","SS1604513317087","<img src='images/simple/17.png' width ='500' height = '500' style='border:5px solid black'>","40","mixed_complex_deviant","images/simple/12.png","images/simple/17.png","images/complex/17.png,images/complex/18.png,images/complex/8.png,images/complex/15.png,images/complex/1.png,images/complex/6.png,images/complex/2.png","2","null","","200","495.8949999883771","yes","154.86999999848194","","background","",""
"","null","html-keyboard-response","275","306872","0.0-20.0-0.30","SS1604513317087","","null","","","","","","","","","","","","<img src=images/blank.png width =""500"" height = ""500"" style=""border:5px solid black"">","","",""
"","191.21499999891967","stimulus-presentation","276","307284","0.0-20.0-1.30","SS1604513317087","<img src='images/simple/12.png' width ='500' height = '500' style='border:5px solid black'>","40","mixed_complex_deviant","images/simple/12.png","images/simple/17.png","images/complex/17.png,images/complex/18.png,images/complex/8.png,images/complex/15.png,images/complex/1.png,images/complex/6.png,images/complex/2.png","2","null","","200","391.21499999891967","yes","136.54499998665415","","target","",""
"","null","html-keyboard-response","277","308141","0.0-20.0-0.31","SS1604513317087","","null","","","","","","","","","","","","<img src=images/blank.png width =""500"" height = ""500"" style=""border:5px solid black"">","","",""
"","17.85500001278706","stimulus-presentation","278","308378","0.0-20.0-1.31","SS1604513317087","<img src='images/simple/17.png' width ='500' height = '500' style='border:5px solid black'>","40","mixed_complex_deviant","images/simple/12.png","images/simple/17.png","images/complex/17.png,images/complex/18.png,images/complex/8.png,images/complex/15.png,images/complex/1.png,images/complex/6.png,images/complex/2.png","2","null","","200","217.85500001278706","","","","background","",""
"","null","html-keyboard-response","279","309451","0.0-20.0-0.32","SS1604513317087","","null","","","","","","","","","","","","<img src=images/blank.png width =""500"" height = ""500"" style=""border:5px solid black"">","","",""
"","277.90999997523613","stimulus-presentation","280","309947","0.0-20.0-1.32","SS1604513317087","<img src='images/complex/1.png' width ='500' height = '500' style='border:5px solid black'>","40","mixed_complex_deviant","images/simple/12.png","images/simple/17.png","images/complex/17.png,images/complex/18.png,images/complex/8.png,images/complex/15.png,images/complex/1.png,images/complex/6.png,images/complex/2.png","2","null","","200","477.90999997523613","yes","56.80500000016764","","deviant","",""
"","null","html-keyboard-response","281","311137","0.0-20.0-0.33","SS1604513317087","","null","","","","","","","","","","","","<img src=images/blank.png width =""500"" height = ""500"" style=""border:5px solid black"">","","",""
