"view_history","rt","trial_type","trial_index","time_elapsed","internal_node_id","subject","trial_stimulus","key_press","task_type","task_target_stimulus","task_background_stimulus","task_deviant_stimuli","task_order_number","block_order_number","trial_order_number","minimum_viewing_duration","trial_looking_time","trial_pressed_space_bar","trial_space_bar_rt","stimulus","trial_stimulus_type","responses","question_order"
"[{""page_index"":0,""viewing_time"":1327.0149999880232},{""page_index"":1,""viewing_time"":376.34000001708046},{""page_index"":2,""viewing_time"":214.4799999659881},{""page_index"":3,""viewing_time"":182.54500004695728},{""page_index"":4,""viewing_time"":224.13499996764585},{""page_index"":5,""viewing_time"":394.849999982398},{""page_index"":6,""viewing_time"":295.9800000535324},{""page_index"":7,""viewing_time"":230.3049999754876}]","3246.1699999985285","instructions","0","3249","0.0-0.0","SS1602802640714","","","","","","","","","","","","","","","","",""
"[{""page_index"":0,""viewing_time"":901.9100000150502},{""page_index"":1,""viewing_time"":927.4500000174157},{""page_index"":2,""viewing_time"":769.1849999828264}]","2599.099999992177","instructions","1","5851","0.0-1.0","SS1602802640714","","","","","","","","","","","","","","","","",""
"","1998.4149999800138","practice-block","2","8056","0.0-2.0","SS1602802640714","<img src='images/practice/practice_background.jpeg' width ='500' height = '500' style='border:5px solid black'>","40","null","images/practice/practice_target.jpg","null","null","null","null","","200","2198.414999980014","","","","","",""
"","null","html-keyboard-response","3","9058","0.0-3.0","SS1602802640714","","null","","","","","","","","","","","","<img src=images/blank.png width =""500"" height = ""500"" style=""border:5px solid black"">","","",""
"","316.67999998899177","practice-block","4","9582","0.0-4.0","SS1602802640714","<img src='images/practice/practice_background.jpeg' width ='500' height = '500' style='border:5px solid black'>","40","null","images/practice/practice_target.jpg","null","null","null","null","","200","516.6799999889918","","","","","",""
"","null","html-keyboard-response","5","10567","0.0-5.0","SS1602802640714","","null","","","","","","","","","","","","<img src=images/blank.png width =""500"" height = ""500"" style=""border:5px solid black"">","","",""
"","296.99499998241663","practice-block","6","11073","0.0-6.0","SS1602802640714","<img src='images/practice/practice_deviant.jpeg' width ='500' height = '500' style='border:5px solid black'>","40","null","images/practice/practice_target.jpg","null","null","null","null","","200","496.99499998241663","","","","","",""
"","null","html-keyboard-response","7","12105","0.0-7.0","SS1602802640714","","null","","","","","","","","","","","","<img src=images/blank.png width =""500"" height = ""500"" style=""border:5px solid black"">","","",""
"","2349.244999990333","practice-block","8","14662","0.0-8.0-0.0","SS1602802640714","<img src='images/practice/practice_target.jpg' width ='500' height = '500' style='border:5px solid black'>","40","null","images/practice/practice_target.jpg","null","null","null","null","","200","2549.244999990333","yes","306.71000003349036","","","",""
"","null","html-keyboard-response","9","15516","0.0-9.0","SS1602802640714","","null","","","","","","","","","","","","<img src=images/blank.png width =""500"" height = ""500"" style=""border:5px solid black"">","","",""
"","359.32500002672896","practice-block","10","16078","0.0-10.0","SS1602802640714","<img src='images/practice/practice_background.jpeg' width ='500' height = '500' style='border:5px solid black'>","40","null","images/practice/practice_target.jpg","null","null","null","null","","200","559.325000026729","","","","","",""
"[{""page_index"":0,""viewing_time"":1850}]","1851","task-instructions","11","17931","0.0-11.0","SS1602802640714","","","","","","","","","","","","","","","","",""
"[{""page_index"":0,""viewing_time"":819.4900000235066},{""page_index"":1,""viewing_time"":1960.2999999769963},{""page_index"":2,""viewing_time"":1031.8400000105612}]","3812.22500000149","instructions","12","21746","0.0-12.0","SS1602802640714","","","","","","","","","","","","","","","","",""
"","null","html-keyboard-response","13","22889","0.0-13.0-0.0","SS1602802640714","","null","","","","","","","","","","","","<img src=images/blank.png width =""500"" height = ""500"" style=""border:5px solid black"">","","",""
"","427.84999997820705","stimulus-presentation","14","23526","0.0-13.0-1.0","SS1602802640714","<img src='images/simple/4.png' width ='500' height = '500' style='border:5px solid black'>","40","all_simple","images/simple/9.png","images/simple/4.png","images/simple/16.png,images/simple/5.png,images/simple/2.png,images/simple/18.png,images/simple/11.png,images/simple/1.png,images/simple/14.png","0","null","","200","627.849999978207","","","","background","",""
"","null","html-keyboard-response","15","24419","0.0-13.0-0.1","SS1602802640714","","null","","","","","","","","","","","","<img src=images/blank.png width =""500"" height = ""500"" style=""border:5px solid black"">","","",""
"","266.3099999772385","stimulus-presentation","16","24894","0.0-13.0-1.1","SS1602802640714","<img src='images/simple/4.png' width ='500' height = '500' style='border:5px solid black'>","40","all_simple","images/simple/9.png","images/simple/4.png","images/simple/16.png,images/simple/5.png,images/simple/2.png,images/simple/18.png,images/simple/11.png,images/simple/1.png,images/simple/14.png","0","null","","200","466.3099999772385","","","","background","",""
"","null","html-keyboard-response","17","25991","0.0-13.0-0.2","SS1602802640714","","null","","","","","","","","","","","","<img src=images/blank.png width =""500"" height = ""500"" style=""border:5px solid black"">","","",""
"","227.94499999145046","stimulus-presentation","18","26425","0.0-13.0-1.2","SS1602802640714","<img src='images/simple/11.png' width ='500' height = '500' style='border:5px solid black'>","40","all_simple","images/simple/9.png","images/simple/4.png","images/simple/16.png,images/simple/5.png,images/simple/2.png,images/simple/18.png,images/simple/11.png,images/simple/1.png,images/simple/14.png","0","null","","200","427.94499999145046","","","","deviant","",""
"","null","html-keyboard-response","19","27343","0.0-13.0-0.3","SS1602802640714","","null","","","","","","","","","","","","<img src=images/blank.png width =""500"" height = ""500"" style=""border:5px solid black"">","","",""
"","221.13499999977648","stimulus-presentation","20","27774","0.0-13.0-1.3","SS1602802640714","<img src='images/simple/4.png' width ='500' height = '500' style='border:5px solid black'>","40","all_simple","images/simple/9.png","images/simple/4.png","images/simple/16.png,images/simple/5.png,images/simple/2.png,images/simple/18.png,images/simple/11.png,images/simple/1.png,images/simple/14.png","0","null","","200","421.1349999997765","","","","background","",""
"","null","html-keyboard-response","21","28661","0.0-13.0-0.4","SS1602802640714","","null","","","","","","","","","","","","<img src=images/blank.png width =""500"" height = ""500"" style=""border:5px solid black"">","","",""
"","181.67999997967854","stimulus-presentation","22","29054","0.0-13.0-1.4","SS1602802640714","<img src='images/simple/4.png' width ='500' height = '500' style='border:5px solid black'>","40","all_simple","images/simple/9.png","images/simple/4.png","images/simple/16.png,images/simple/5.png,images/simple/2.png,images/simple/18.png,images/simple/11.png,images/simple/1.png,images/simple/14.png","0","null","","200","381.67999997967854","","","","background","",""
"","null","html-keyboard-response","23","30022","0.0-13.0-0.5","SS1602802640714","","null","","","","","","","","","","","","<img src=images/blank.png width =""500"" height = ""500"" style=""border:5px solid black"">","","",""
"","194.23000002279878","stimulus-presentation","24","30423","0.0-13.0-1.5","SS1602802640714","<img src='images/simple/4.png' width ='500' height = '500' style='border:5px solid black'>","40","all_simple","images/simple/9.png","images/simple/4.png","images/simple/16.png,images/simple/5.png,images/simple/2.png,images/simple/18.png,images/simple/11.png,images/simple/1.png,images/simple/14.png","0","null","","200","394.2300000227988","","","","background","",""
"","null","html-keyboard-response","25","31666","0.0-13.0-0.6","SS1602802640714","","null","","","","","","","","","","","","<img src=images/blank.png width =""500"" height = ""500"" style=""border:5px solid black"">","","",""
"","368.82000003242865","stimulus-presentation","26","32240","0.0-13.0-1.6","SS1602802640714","<img src='images/simple/4.png' width ='500' height = '500' style='border:5px solid black'>","40","all_simple","images/simple/9.png","images/simple/4.png","images/simple/16.png,images/simple/5.png,images/simple/2.png,images/simple/18.png,images/simple/11.png,images/simple/1.png,images/simple/14.png","0","null","","200","568.8200000324287","","","","background","",""
"","null","html-keyboard-response","27","33074","0.0-13.0-0.7","SS1602802640714","","null","","","","","","","","","","","","<img src=images/blank.png width =""500"" height = ""500"" style=""border:5px solid black"">","","",""
"","291.31499998038635","stimulus-presentation","28","33571","0.0-13.0-1.7","SS1602802640714","<img src='images/simple/5.png' width ='500' height = '500' style='border:5px solid black'>","40","all_simple","images/simple/9.png","images/simple/4.png","images/simple/16.png,images/simple/5.png,images/simple/2.png,images/simple/18.png,images/simple/11.png,images/simple/1.png,images/simple/14.png","0","null","","200","491.31499998038635","","","","deviant","",""
"","null","html-keyboard-response","29","34807","0.0-13.0-0.8","SS1602802640714","","null","","","","","","","","","","","","<img src=images/blank.png width =""500"" height = ""500"" style=""border:5px solid black"">","","",""
"","2038.2250000257045","stimulus-presentation","30","37054","0.0-13.0-1.8","SS1602802640714","<img src='images/simple/9.png' width ='500' height = '500' style='border:5px solid black'>","40","all_simple","images/simple/9.png","images/simple/4.png","images/simple/16.png,images/simple/5.png,images/simple/2.png,images/simple/18.png,images/simple/11.png,images/simple/1.png,images/simple/14.png","0","null","","200","2238.2250000257045","yes","1404.4299999950454","","target","",""
"","null","html-keyboard-response","31","38279","0.0-13.0-0.9","SS1602802640714","","null","","","","","","","","","","","","<img src=images/blank.png width =""500"" height = ""500"" style=""border:5px solid black"">","","",""
"","357.82999999355525","stimulus-presentation","32","38847","0.0-13.0-1.9","SS1602802640714","<img src='images/simple/4.png' width ='500' height = '500' style='border:5px solid black'>","40","all_simple","images/simple/9.png","images/simple/4.png","images/simple/16.png,images/simple/5.png,images/simple/2.png,images/simple/18.png,images/simple/11.png,images/simple/1.png,images/simple/14.png","0","null","","200","557.8299999935552","","","","background","",""
"","null","html-keyboard-response","33","40114","0.0-13.0-0.10","SS1602802640714","","null","","","","","","","","","","","","<img src=images/blank.png width =""500"" height = ""500"" style=""border:5px solid black"">","","",""
"","194.20999998692423","stimulus-presentation","34","40518","0.0-13.0-1.10","SS1602802640714","<img src='images/simple/9.png' width ='500' height = '500' style='border:5px solid black'>","40","all_simple","images/simple/9.png","images/simple/4.png","images/simple/16.png,images/simple/5.png,images/simple/2.png,images/simple/18.png,images/simple/11.png,images/simple/1.png,images/simple/14.png","0","null","","200","394.20999998692423","","","","target","",""
"","null","html-keyboard-response","35","41379","0.0-13.0-0.11","SS1602802640714","","null","","","","","","","","","","","","<img src=images/blank.png width =""500"" height = ""500"" style=""border:5px solid black"">","","",""
"","178.84000000776723","stimulus-presentation","36","41765","0.0-13.0-1.11","SS1602802640714","<img src='images/simple/4.png' width ='500' height = '500' style='border:5px solid black'>","40","all_simple","images/simple/9.png","images/simple/4.png","images/simple/16.png,images/simple/5.png,images/simple/2.png,images/simple/18.png,images/simple/11.png,images/simple/1.png,images/simple/14.png","0","null","","200","378.84000000776723","","","","background","",""
"","null","html-keyboard-response","37","42861","0.0-13.0-0.12","SS1602802640714","","null","","","","","","","","","","","","<img src=images/blank.png width =""500"" height = ""500"" style=""border:5px solid black"">","","",""
"","267.4000000115484","stimulus-presentation","38","43337","0.0-13.0-1.12","SS1602802640714","<img src='images/simple/4.png' width ='500' height = '500' style='border:5px solid black'>","40","all_simple","images/simple/9.png","images/simple/4.png","images/simple/16.png,images/simple/5.png,images/simple/2.png,images/simple/18.png,images/simple/11.png,images/simple/1.png,images/simple/14.png","0","null","","200","467.4000000115484","","","","background","",""
"","null","html-keyboard-response","39","44538","0.0-13.0-0.13","SS1602802640714","","null","","","","","","","","","","","","<img src=images/blank.png width =""500"" height = ""500"" style=""border:5px solid black"">","","",""
"","403.2250000163913","stimulus-presentation","40","45150","0.0-13.0-1.13","SS1602802640714","<img src='images/simple/4.png' width ='500' height = '500' style='border:5px solid black'>","40","all_simple","images/simple/9.png","images/simple/4.png","images/simple/16.png,images/simple/5.png,images/simple/2.png,images/simple/18.png,images/simple/11.png,images/simple/1.png,images/simple/14.png","0","null","","200","603.2250000163913","","","","background","",""
"","null","html-keyboard-response","41","46228","0.0-13.0-0.14","SS1602802640714","","null","","","","","","","","","","","","<img src=images/blank.png width =""500"" height = ""500"" style=""border:5px solid black"">","","",""
"","231.2000000383705","stimulus-presentation","42","46668","0.0-13.0-1.14","SS1602802640714","<img src='images/simple/4.png' width ='500' height = '500' style='border:5px solid black'>","40","all_simple","images/simple/9.png","images/simple/4.png","images/simple/16.png,images/simple/5.png,images/simple/2.png,images/simple/18.png,images/simple/11.png,images/simple/1.png,images/simple/14.png","0","null","","200","431.2000000383705","","","","background","",""
"","null","html-keyboard-response","43","47861","0.0-13.0-0.15","SS1602802640714","","null","","","","","","","","","","","","<img src=images/blank.png width =""500"" height = ""500"" style=""border:5px solid black"">","","",""
"","173.9050000323914","stimulus-presentation","44","48245","0.0-13.0-1.15","SS1602802640714","<img src='images/simple/16.png' width ='500' height = '500' style='border:5px solid black'>","40","all_simple","images/simple/9.png","images/simple/4.png","images/simple/16.png,images/simple/5.png,images/simple/2.png,images/simple/18.png,images/simple/11.png,images/simple/1.png,images/simple/14.png","0","null","","200","373.9050000323914","","","","deviant","",""
"","null","html-keyboard-response","45","49223","0.0-13.0-0.16","SS1602802640714","","null","","","","","","","","","","","","<img src=images/blank.png width =""500"" height = ""500"" style=""border:5px solid black"">","","",""
"","200.76500001596287","stimulus-presentation","46","49630","0.0-13.0-1.16","SS1602802640714","<img src='images/simple/4.png' width ='500' height = '500' style='border:5px solid black'>","40","all_simple","images/simple/9.png","images/simple/4.png","images/simple/16.png,images/simple/5.png,images/simple/2.png,images/simple/18.png,images/simple/11.png,images/simple/1.png,images/simple/14.png","0","null","","200","400.76500001596287","","","","background","",""
"","null","html-keyboard-response","47","50721","0.0-13.0-0.17","SS1602802640714","","null","","","","","","","","","","","","<img src=images/blank.png width =""500"" height = ""500"" style=""border:5px solid black"">","","",""
"","163.28999999677762","stimulus-presentation","48","51094","0.0-13.0-1.17","SS1602802640714","<img src='images/simple/4.png' width ='500' height = '500' style='border:5px solid black'>","40","all_simple","images/simple/9.png","images/simple/4.png","images/simple/16.png,images/simple/5.png,images/simple/2.png,images/simple/18.png,images/simple/11.png,images/simple/1.png,images/simple/14.png","0","null","","200","363.2899999967776","","","","background","",""
"","null","html-keyboard-response","49","52303","0.0-13.0-0.18","SS1602802640714","","null","","","","","","","","","","","","<img src=images/blank.png width =""500"" height = ""500"" style=""border:5px solid black"">","","",""
"","191.5900000021793","stimulus-presentation","50","52702","0.0-13.0-1.18","SS1602802640714","<img src='images/simple/4.png' width ='500' height = '500' style='border:5px solid black'>","40","all_simple","images/simple/9.png","images/simple/4.png","images/simple/16.png,images/simple/5.png,images/simple/2.png,images/simple/18.png,images/simple/11.png,images/simple/1.png,images/simple/14.png","0","null","","200","391.5900000021793","","","","background","",""
"","null","html-keyboard-response","51","53984","0.0-13.0-0.19","SS1602802640714","","null","","","","","","","","","","","","<img src=images/blank.png width =""500"" height = ""500"" style=""border:5px solid black"">","","",""
"","752.4550000089221","stimulus-presentation","52","54944","0.0-13.0-1.19","SS1602802640714","<img src='images/simple/4.png' width ='500' height = '500' style='border:5px solid black'>","40","all_simple","images/simple/9.png","images/simple/4.png","images/simple/16.png,images/simple/5.png,images/simple/2.png,images/simple/18.png,images/simple/11.png,images/simple/1.png,images/simple/14.png","0","null","","200","952.4550000089221","","","","background","",""
"","null","html-keyboard-response","53","56035","0.0-13.0-0.20","SS1602802640714","","null","","","","","","","","","","","","<img src=images/blank.png width =""500"" height = ""500"" style=""border:5px solid black"">","","",""
"","1441.2449999945238","stimulus-presentation","54","57684","0.0-13.0-1.20","SS1602802640714","<img src='images/simple/4.png' width ='500' height = '500' style='border:5px solid black'>","40","all_simple","images/simple/9.png","images/simple/4.png","images/simple/16.png,images/simple/5.png,images/simple/2.png,images/simple/18.png,images/simple/11.png,images/simple/1.png,images/simple/14.png","0","null","","200","1641.2449999945238","","","","background","",""
"","null","html-keyboard-response","55","58936","0.0-13.0-0.21","SS1602802640714","","null","","","","","","","","","","","","<img src=images/blank.png width =""500"" height = ""500"" style=""border:5px solid black"">","","",""
"","2299.414999957662","stimulus-presentation","56","61446","0.0-13.0-1.21","SS1602802640714","<img src='images/simple/4.png' width ='500' height = '500' style='border:5px solid black'>","40","all_simple","images/simple/9.png","images/simple/4.png","images/simple/16.png,images/simple/5.png,images/simple/2.png,images/simple/18.png,images/simple/11.png,images/simple/1.png,images/simple/14.png","0","null","","200","2499.414999957662","","","","background","",""
"","null","html-keyboard-response","57","62621","0.0-13.0-0.22","SS1602802640714","","null","","","","","","","","","","","","<img src=images/blank.png width =""500"" height = ""500"" style=""border:5px solid black"">","","",""
"","826.195000030566","stimulus-presentation","58","63653","0.0-13.0-1.22","SS1602802640714","<img src='images/simple/4.png' width ='500' height = '500' style='border:5px solid black'>","40","all_simple","images/simple/9.png","images/simple/4.png","images/simple/16.png,images/simple/5.png,images/simple/2.png,images/simple/18.png,images/simple/11.png,images/simple/1.png,images/simple/14.png","0","null","","200","1026.195000030566","","","","background","",""
"","null","html-keyboard-response","59","64925","0.0-13.0-0.23","SS1602802640714","","null","","","","","","","","","","","","<img src=images/blank.png width =""500"" height = ""500"" style=""border:5px solid black"">","","",""
"","443.5799999628216","stimulus-presentation","60","65575","0.0-13.0-1.23","SS1602802640714","<img src='images/simple/4.png' width ='500' height = '500' style='border:5px solid black'>","40","all_simple","images/simple/9.png","images/simple/4.png","images/simple/16.png,images/simple/5.png,images/simple/2.png,images/simple/18.png,images/simple/11.png,images/simple/1.png,images/simple/14.png","0","null","","200","643.5799999628216","","","","background","",""
"","null","html-keyboard-response","61","66475","0.0-13.0-0.24","SS1602802640714","","null","","","","","","","","","","","","<img src=images/blank.png width =""500"" height = ""500"" style=""border:5px solid black"">","","",""
"","927.834999980405","stimulus-presentation","62","67614","0.0-13.0-1.24","SS1602802640714","<img src='images/simple/2.png' width ='500' height = '500' style='border:5px solid black'>","40","all_simple","images/simple/9.png","images/simple/4.png","images/simple/16.png,images/simple/5.png,images/simple/2.png,images/simple/18.png,images/simple/11.png,images/simple/1.png,images/simple/14.png","0","null","","200","1127.834999980405","","","","deviant","",""
"","null","html-keyboard-response","63","68476","0.0-13.0-0.25","SS1602802640714","","null","","","","","","","","","","","","<img src=images/blank.png width =""500"" height = ""500"" style=""border:5px solid black"">","","",""
"","1021.3849999709055","stimulus-presentation","64","69708","0.0-13.0-1.25","SS1602802640714","<img src='images/simple/9.png' width ='500' height = '500' style='border:5px solid black'>","40","all_simple","images/simple/9.png","images/simple/4.png","images/simple/16.png,images/simple/5.png,images/simple/2.png,images/simple/18.png,images/simple/11.png,images/simple/1.png,images/simple/14.png","0","null","","200","1221.3849999709055","yes","343.32499996526167","","target","",""
"","null","html-keyboard-response","65","70620","0.0-13.0-0.26","SS1602802640714","","null","","","","","","","","","","","","<img src=images/blank.png width =""500"" height = ""500"" style=""border:5px solid black"">","","",""
"","191.27000001026317","stimulus-presentation","66","71022","0.0-13.0-1.26","SS1602802640714","<img src='images/simple/4.png' width ='500' height = '500' style='border:5px solid black'>","40","all_simple","images/simple/9.png","images/simple/4.png","images/simple/16.png,images/simple/5.png,images/simple/2.png,images/simple/18.png,images/simple/11.png,images/simple/1.png,images/simple/14.png","0","null","","200","391.2700000102632","","","","background","",""
"","null","html-keyboard-response","67","71877","0.0-13.0-0.27","SS1602802640714","","null","","","","","","","","","","","","<img src=images/blank.png width =""500"" height = ""500"" style=""border:5px solid black"">","","",""
"","170.96000001765788","stimulus-presentation","68","72259","0.0-13.0-1.27","SS1602802640714","<img src='images/simple/4.png' width ='500' height = '500' style='border:5px solid black'>","40","all_simple","images/simple/9.png","images/simple/4.png","images/simple/16.png,images/simple/5.png,images/simple/2.png,images/simple/18.png,images/simple/11.png,images/simple/1.png,images/simple/14.png","0","null","","200","370.9600000176579","","","","background","",""
"","null","html-keyboard-response","69","73496","0.0-13.0-0.28","SS1602802640714","","null","","","","","","","","","","","","<img src=images/blank.png width =""500"" height = ""500"" style=""border:5px solid black"">","","",""
"","191.5900000021793","stimulus-presentation","70","73895","0.0-13.0-1.28","SS1602802640714","<img src='images/simple/4.png' width ='500' height = '500' style='border:5px solid black'>","40","all_simple","images/simple/9.png","images/simple/4.png","images/simple/16.png,images/simple/5.png,images/simple/2.png,images/simple/18.png,images/simple/11.png,images/simple/1.png,images/simple/14.png","0","null","","200","391.5900000021793","","","","background","",""
"","null","html-keyboard-response","71","74749","0.0-13.0-0.29","SS1602802640714","","null","","","","","","","","","","","","<img src=images/blank.png width =""500"" height = ""500"" style=""border:5px solid black"">","","",""
"","350.97500000847504","stimulus-presentation","72","75309","0.0-13.0-1.29","SS1602802640714","<img src='images/simple/1.png' width ='500' height = '500' style='border:5px solid black'>","40","all_simple","images/simple/9.png","images/simple/4.png","images/simple/16.png,images/simple/5.png,images/simple/2.png,images/simple/18.png,images/simple/11.png,images/simple/1.png,images/simple/14.png","0","null","","200","550.975000008475","","","","deviant","",""
"","null","html-keyboard-response","73","76199","0.0-13.0-0.30","SS1602802640714","","null","","","","","","","","","","","","<img src=images/blank.png width =""500"" height = ""500"" style=""border:5px solid black"">","","",""
"","269.7849999531172","stimulus-presentation","74","76678","0.0-13.0-1.30","SS1602802640714","<img src='images/simple/4.png' width ='500' height = '500' style='border:5px solid black'>","40","all_simple","images/simple/9.png","images/simple/4.png","images/simple/16.png,images/simple/5.png,images/simple/2.png,images/simple/18.png,images/simple/11.png,images/simple/1.png,images/simple/14.png","0","null","","200","469.7849999531172","","","","background","",""
"","null","html-keyboard-response","75","77887","0.0-13.0-0.31","SS1602802640714","","null","","","","","","","","","","","","<img src=images/blank.png width =""500"" height = ""500"" style=""border:5px solid black"">","","",""
"","203.37999996263534","stimulus-presentation","76","78302","0.0-13.0-1.31","SS1602802640714","<img src='images/simple/4.png' width ='500' height = '500' style='border:5px solid black'>","40","all_simple","images/simple/9.png","images/simple/4.png","images/simple/16.png,images/simple/5.png,images/simple/2.png,images/simple/18.png,images/simple/11.png,images/simple/1.png,images/simple/14.png","0","null","","200","403.37999996263534","","","","background","",""
"","null","html-keyboard-response","77","79553","0.0-13.0-0.32","SS1602802640714","","null","","","","","","","","","","","","<img src=images/blank.png width =""500"" height = ""500"" style=""border:5px solid black"">","","",""
"","235.8399999793619","stimulus-presentation","78","79999","0.0-13.0-1.32","SS1602802640714","<img src='images/simple/4.png' width ='500' height = '500' style='border:5px solid black'>","40","all_simple","images/simple/9.png","images/simple/4.png","images/simple/16.png,images/simple/5.png,images/simple/2.png,images/simple/18.png,images/simple/11.png,images/simple/1.png,images/simple/14.png","0","null","","200","435.8399999793619","","","","background","",""
"","null","html-keyboard-response","79","80882","0.0-13.0-0.33","SS1602802640714","","null","","","","","","","","","","","","<img src=images/blank.png width =""500"" height = ""500"" style=""border:5px solid black"">","","",""
"","146.30500000203028","stimulus-presentation","80","81238","0.0-13.0-1.33","SS1602802640714","<img src='images/simple/4.png' width ='500' height = '500' style='border:5px solid black'>","40","all_simple","images/simple/9.png","images/simple/4.png","images/simple/16.png,images/simple/5.png,images/simple/2.png,images/simple/18.png,images/simple/11.png,images/simple/1.png,images/simple/14.png","0","null","","200","346.3050000020303","","","","background","",""
"","null","html-keyboard-response","81","82354","0.0-13.0-0.34","SS1602802640714","","null","","","","","","","","","","","","<img src=images/blank.png width =""500"" height = ""500"" style=""border:5px solid black"">","","",""
"","167.12499997811392","stimulus-presentation","82","82732","0.0-13.0-1.34","SS1602802640714","<img src='images/simple/4.png' width ='500' height = '500' style='border:5px solid black'>","40","all_simple","images/simple/9.png","images/simple/4.png","images/simple/16.png,images/simple/5.png,images/simple/2.png,images/simple/18.png,images/simple/11.png,images/simple/1.png,images/simple/14.png","0","null","","200","367.1249999781139","","","","background","",""
"","null","html-keyboard-response","83","83807","0.0-13.0-0.35","SS1602802640714","","null","","","","","","","","","","","","<img src=images/blank.png width =""500"" height = ""500"" style=""border:5px solid black"">","","",""
"","142.53999997163191","stimulus-presentation","84","84158","0.0-13.0-1.35","SS1602802640714","<img src='images/simple/4.png' width ='500' height = '500' style='border:5px solid black'>","40","all_simple","images/simple/9.png","images/simple/4.png","images/simple/16.png,images/simple/5.png,images/simple/2.png,images/simple/18.png,images/simple/11.png,images/simple/1.png,images/simple/14.png","0","null","","200","342.5399999716319","","","","background","",""
"","null","html-keyboard-response","85","85160","0.0-13.0-0.36","SS1602802640714","","null","","","","","","","","","","","","<img src=images/blank.png width =""500"" height = ""500"" style=""border:5px solid black"">","","",""
"","100.07499996572733","stimulus-presentation","86","85471","0.0-13.0-1.36","SS1602802640714","<img src='images/simple/4.png' width ='500' height = '500' style='border:5px solid black'>","40","all_simple","images/simple/9.png","images/simple/4.png","images/simple/16.png,images/simple/5.png,images/simple/2.png,images/simple/18.png,images/simple/11.png,images/simple/1.png,images/simple/14.png","0","null","","200","300.07499996572733","","","","background","",""
"","null","html-keyboard-response","87","86620","0.0-13.0-0.37","SS1602802640714","","null","","","","","","","","","","","","<img src=images/blank.png width =""500"" height = ""500"" style=""border:5px solid black"">","","",""
"","127.34999996609986","stimulus-presentation","88","86959","0.0-13.0-1.37","SS1602802640714","<img src='images/simple/4.png' width ='500' height = '500' style='border:5px solid black'>","40","all_simple","images/simple/9.png","images/simple/4.png","images/simple/16.png,images/simple/5.png,images/simple/2.png,images/simple/18.png,images/simple/11.png,images/simple/1.png,images/simple/14.png","0","null","","200","327.34999996609986","","","","background","",""
"","null","html-keyboard-response","89","88039","0.0-13.0-0.38","SS1602802640714","","null","","","","","","","","","","","","<img src=images/blank.png width =""500"" height = ""500"" style=""border:5px solid black"">","","",""
"","260.3450000169687","stimulus-presentation","90","88506","0.0-13.0-1.38","SS1602802640714","<img src='images/simple/14.png' width ='500' height = '500' style='border:5px solid black'>","40","all_simple","images/simple/9.png","images/simple/4.png","images/simple/16.png,images/simple/5.png,images/simple/2.png,images/simple/18.png,images/simple/11.png,images/simple/1.png,images/simple/14.png","0","null","","200","460.3450000169687","","","","deviant","",""
"","null","html-keyboard-response","91","89458","0.0-13.0-0.39","SS1602802640714","","null","","","","","","","","","","","","<img src=images/blank.png width =""500"" height = ""500"" style=""border:5px solid black"">","","",""
"","235.00000004423782","stimulus-presentation","92","89901","0.0-13.0-1.39","SS1602802640714","<img src='images/simple/4.png' width ='500' height = '500' style='border:5px solid black'>","40","all_simple","images/simple/9.png","images/simple/4.png","images/simple/16.png,images/simple/5.png,images/simple/2.png,images/simple/18.png,images/simple/11.png,images/simple/1.png,images/simple/14.png","0","null","","200","435.0000000442378","","","","background","",""
"","null","html-keyboard-response","93","90846","0.0-13.0-0.40","SS1602802640714","","null","","","","","","","","","","","","<img src=images/blank.png width =""500"" height = ""500"" style=""border:5px solid black"">","","",""
"","239.88499998813495","stimulus-presentation","94","91294","0.0-13.0-1.40","SS1602802640714","<img src='images/simple/4.png' width ='500' height = '500' style='border:5px solid black'>","40","all_simple","images/simple/9.png","images/simple/4.png","images/simple/16.png,images/simple/5.png,images/simple/2.png,images/simple/18.png,images/simple/11.png,images/simple/1.png,images/simple/14.png","0","null","","200","439.88499998813495","","","","background","",""
"","null","html-keyboard-response","95","92322","0.0-13.0-0.41","SS1602802640714","","null","","","","","","","","","","","","<img src=images/blank.png width =""500"" height = ""500"" style=""border:5px solid black"">","","",""
"","999.744999979157","stimulus-presentation","96","93531","0.0-13.0-1.41","SS1602802640714","<img src='images/simple/9.png' width ='500' height = '500' style='border:5px solid black'>","40","all_simple","images/simple/9.png","images/simple/4.png","images/simple/16.png,images/simple/5.png,images/simple/2.png,images/simple/18.png,images/simple/11.png,images/simple/1.png,images/simple/14.png","0","null","","200","1199.744999979157","yes","353.99500001221895","","target","",""
"","null","html-keyboard-response","97","94664","0.0-13.0-0.42","SS1602802640714","","null","","","","","","","","","","","","<img src=images/blank.png width =""500"" height = ""500"" style=""border:5px solid black"">","","",""
"","460.0649999920279","stimulus-presentation","98","95332","0.0-13.0-1.42","SS1602802640714","<img src='images/simple/18.png' width ='500' height = '500' style='border:5px solid black'>","40","all_simple","images/simple/9.png","images/simple/4.png","images/simple/16.png,images/simple/5.png,images/simple/2.png,images/simple/18.png,images/simple/11.png,images/simple/1.png,images/simple/14.png","0","null","","200","660.0649999920279","","","","deviant","",""
"","null","html-keyboard-response","99","96333","0.0-13.0-0.43","SS1602802640714","","null","","","","","","","","","","","","<img src=images/blank.png width =""500"" height = ""500"" style=""border:5px solid black"">","","",""
"","955.164999992121","stimulus-presentation","100","97496","0.0-13.0-1.43","SS1602802640714","<img src='images/simple/9.png' width ='500' height = '500' style='border:5px solid black'>","40","all_simple","images/simple/9.png","images/simple/4.png","images/simple/16.png,images/simple/5.png,images/simple/2.png,images/simple/18.png,images/simple/11.png,images/simple/1.png,images/simple/14.png","0","null","","200","1155.164999992121","yes","328.24999996228144","","target","",""
"","null","html-keyboard-response","101","98304","0.0-13.0-0.44","SS1602802640714","","null","","","","","","","","","","","","<img src=images/blank.png width =""500"" height = ""500"" style=""border:5px solid black"">","","",""
"","149.4599999859929","stimulus-presentation","102","98661","0.0-13.0-1.44","SS1602802640714","<img src='images/simple/4.png' width ='500' height = '500' style='border:5px solid black'>","40","all_simple","images/simple/9.png","images/simple/4.png","images/simple/16.png,images/simple/5.png,images/simple/2.png,images/simple/18.png,images/simple/11.png,images/simple/1.png,images/simple/14.png","0","null","","200","349.4599999859929","","","","background","",""
"","null","html-keyboard-response","103","99716","0.0-13.0-0.45","SS1602802640714","","null","","","","","","","","","","","","<img src=images/blank.png width =""500"" height = ""500"" style=""border:5px solid black"">","","",""
"","127.64000002061948","stimulus-presentation","104","100053","0.0-13.0-1.45","SS1602802640714","<img src='images/simple/9.png' width ='500' height = '500' style='border:5px solid black'>","40","all_simple","images/simple/9.png","images/simple/4.png","images/simple/16.png,images/simple/5.png,images/simple/2.png,images/simple/18.png,images/simple/11.png,images/simple/1.png,images/simple/14.png","0","null","","200","327.6400000206195","","","","target","",""
"","null","html-keyboard-response","105","101328","0.0-13.0-0.46","SS1602802640714","","null","","","","","","","","","","","","<img src=images/blank.png width =""500"" height = ""500"" style=""border:5px solid black"">","","",""
"","198.73499998357147","stimulus-presentation","106","101734","0.0-13.0-1.46","SS1602802640714","<img src='images/simple/4.png' width ='500' height = '500' style='border:5px solid black'>","40","all_simple","images/simple/9.png","images/simple/4.png","images/simple/16.png,images/simple/5.png,images/simple/2.png,images/simple/18.png,images/simple/11.png,images/simple/1.png,images/simple/14.png","0","null","","200","398.73499998357147","","","","background","",""
"","null","html-keyboard-response","107","102561","0.0-13.0-0.47","SS1602802640714","","null","","","","","","","","","","","","<img src=images/blank.png width =""500"" height = ""500"" style=""border:5px solid black"">","","",""
"","974.0549999987707","stimulus-presentation","108","103741","0.0-13.0-1.47","SS1602802640714","<img src='images/simple/9.png' width ='500' height = '500' style='border:5px solid black'>","40","all_simple","images/simple/9.png","images/simple/4.png","images/simple/16.png,images/simple/5.png,images/simple/2.png,images/simple/18.png,images/simple/11.png,images/simple/1.png,images/simple/14.png","0","null","","200","1174.0549999987707","yes","341.5800000075251","","target","",""
"","null","html-keyboard-response","109","104857","0.0-13.0-0.48","SS1602802640714","","null","","","","","","","","","","","","<img src=images/blank.png width =""500"" height = ""500"" style=""border:5px solid black"">","","",""
"","185.9899999690242","stimulus-presentation","110","105250","0.0-13.0-1.48","SS1602802640714","<img src='images/simple/4.png' width ='500' height = '500' style='border:5px solid black'>","40","all_simple","images/simple/9.png","images/simple/4.png","images/simple/16.png,images/simple/5.png,images/simple/2.png,images/simple/18.png,images/simple/11.png,images/simple/1.png,images/simple/14.png","0","null","","200","385.9899999690242","","","","background","",""
"[{""page_index"":0,""viewing_time"":2083}]","2083","task-instructions","111","107337","0.0-14.0","SS1602802640714","","","","","","","","","","","","","","","","",""
"[{""page_index"":0,""viewing_time"":785.4650000226684},{""page_index"":1,""viewing_time"":942.9249999811873},{""page_index"":2,""viewing_time"":680.9600000269711}]","2409.8249999806285","instructions","112","109753","0.0-15.0","SS1602802640714","","","","","","","","","","","","","","","","",""
"","null","html-keyboard-response","113","111001","0.0-16.0-0.0","SS1602802640714","","null","","","","","","","","","","","","<img src=images/blank.png width =""500"" height = ""500"" style=""border:5px solid black"">","","",""
"","806.1650000163354","stimulus-presentation","114","112014","0.0-16.0-1.0","SS1602802640714","<img src='images/simple/17.png' width ='500' height = '500' style='border:5px solid black'>","40","mixed_simple_deviant","images/complex/12.png","images/complex/13.png","images/simple/3.png,images/simple/7.png,images/simple/12.png,images/simple/6.png,images/simple/17.png,images/simple/15.png,images/simple/8.png","1","null","","200","1006.1650000163354","","","","deviant","",""
"","null","html-keyboard-response","115","113122","0.0-16.0-0.1","SS1602802640714","","null","","","","","","","","","","","","<img src=images/blank.png width =""500"" height = ""500"" style=""border:5px solid black"">","","",""
"","193.5749999829568","stimulus-presentation","116","113524","0.0-16.0-1.1","SS1602802640714","<img src='images/complex/13.png' width ='500' height = '500' style='border:5px solid black'>","40","mixed_simple_deviant","images/complex/12.png","images/complex/13.png","images/simple/3.png,images/simple/7.png,images/simple/12.png,images/simple/6.png,images/simple/17.png,images/simple/15.png,images/simple/8.png","1","null","","200","393.5749999829568","","","","background","",""
"","null","html-keyboard-response","117","114723","0.0-16.0-0.2","SS1602802640714","","null","","","","","","","","","","","","<img src=images/blank.png width =""500"" height = ""500"" style=""border:5px solid black"">","","",""
"","267.9950000019744","stimulus-presentation","118","115197","0.0-16.0-1.2","SS1602802640714","<img src='images/complex/13.png' width ='500' height = '500' style='border:5px solid black'>","40","mixed_simple_deviant","images/complex/12.png","images/complex/13.png","images/simple/3.png,images/simple/7.png,images/simple/12.png,images/simple/6.png,images/simple/17.png,images/simple/15.png,images/simple/8.png","1","null","","200","467.9950000019744","","","","background","",""
"","null","html-keyboard-response","119","116116","0.0-16.0-0.3","SS1602802640714","","null","","","","","","","","","","","","<img src=images/blank.png width =""500"" height = ""500"" style=""border:5px solid black"">","","",""
"","291.68500000378117","stimulus-presentation","120","116619","0.0-16.0-1.3","SS1602802640714","<img src='images/complex/13.png' width ='500' height = '500' style='border:5px solid black'>","40","mixed_simple_deviant","images/complex/12.png","images/complex/13.png","images/simple/3.png,images/simple/7.png,images/simple/12.png,images/simple/6.png,images/simple/17.png,images/simple/15.png,images/simple/8.png","1","null","","200","491.68500000378117","","","","background","",""
"","null","html-keyboard-response","121","117458","0.0-16.0-0.4","SS1602802640714","","null","","","","","","","","","","","","<img src=images/blank.png width =""500"" height = ""500"" style=""border:5px solid black"">","","",""
"","220.9150000126101","stimulus-presentation","122","117884","0.0-16.0-1.4","SS1602802640714","<img src='images/complex/13.png' width ='500' height = '500' style='border:5px solid black'>","40","mixed_simple_deviant","images/complex/12.png","images/complex/13.png","images/simple/3.png,images/simple/7.png,images/simple/12.png,images/simple/6.png,images/simple/17.png,images/simple/15.png,images/simple/8.png","1","null","","200","420.9150000126101","","","","background","",""
"","null","html-keyboard-response","123","119150","0.0-16.0-0.5","SS1602802640714","","null","","","","","","","","","","","","<img src=images/blank.png width =""500"" height = ""500"" style=""border:5px solid black"">","","",""
"","184.21999999554828","stimulus-presentation","124","119541","0.0-16.0-1.5","SS1602802640714","<img src='images/complex/13.png' width ='500' height = '500' style='border:5px solid black'>","40","mixed_simple_deviant","images/complex/12.png","images/complex/13.png","images/simple/3.png,images/simple/7.png,images/simple/12.png,images/simple/6.png,images/simple/17.png,images/simple/15.png,images/simple/8.png","1","null","","200","384.2199999955483","","","","background","",""
"","null","html-keyboard-response","125","120751","0.0-16.0-0.6","SS1602802640714","","null","","","","","","","","","","","","<img src=images/blank.png width =""500"" height = ""500"" style=""border:5px solid black"">","","",""
"","376.3199999812059","stimulus-presentation","126","121334","0.0-16.0-1.6","SS1602802640714","<img src='images/simple/15.png' width ='500' height = '500' style='border:5px solid black'>","40","mixed_simple_deviant","images/complex/12.png","images/complex/13.png","images/simple/3.png,images/simple/7.png,images/simple/12.png,images/simple/6.png,images/simple/17.png,images/simple/15.png,images/simple/8.png","1","null","","200","576.3199999812059","","","","deviant","",""
"","null","html-keyboard-response","127","122411","0.0-16.0-0.7","SS1602802640714","","null","","","","","","","","","","","","<img src=images/blank.png width =""500"" height = ""500"" style=""border:5px solid black"">","","",""
"","242.91999998968095","stimulus-presentation","128","122860","0.0-16.0-1.7","SS1602802640714","<img src='images/complex/13.png' width ='500' height = '500' style='border:5px solid black'>","40","mixed_simple_deviant","images/complex/12.png","images/complex/13.png","images/simple/3.png,images/simple/7.png,images/simple/12.png,images/simple/6.png,images/simple/17.png,images/simple/15.png,images/simple/8.png","1","null","","200","442.91999998968095","","","","background","",""
"","null","html-keyboard-response","129","123711","0.0-16.0-0.8","SS1602802640714","","null","","","","","","","","","","","","<img src=images/blank.png width =""500"" height = ""500"" style=""border:5px solid black"">","","",""
"","158.51999999722466","stimulus-presentation","130","124077","0.0-16.0-1.8","SS1602802640714","<img src='images/complex/13.png' width ='500' height = '500' style='border:5px solid black'>","40","mixed_simple_deviant","images/complex/12.png","images/complex/13.png","images/simple/3.png,images/simple/7.png,images/simple/12.png,images/simple/6.png,images/simple/17.png,images/simple/15.png,images/simple/8.png","1","null","","200","358.51999999722466","","","","background","",""
"","null","html-keyboard-response","131","125277","0.0-16.0-0.9","SS1602802640714","","null","","","","","","","","","","","","<img src=images/blank.png width =""500"" height = ""500"" style=""border:5px solid black"">","","",""
"","163.07999996934086","stimulus-presentation","132","125653","0.0-16.0-1.9","SS1602802640714","<img src='images/complex/13.png' width ='500' height = '500' style='border:5px solid black'>","40","mixed_simple_deviant","images/complex/12.png","images/complex/13.png","images/simple/3.png,images/simple/7.png,images/simple/12.png,images/simple/6.png,images/simple/17.png,images/simple/15.png,images/simple/8.png","1","null","","200","363.07999996934086","","","","background","",""
"","null","html-keyboard-response","133","126923","0.0-16.0-0.10","SS1602802640714","","null","","","","","","","","","","","","<img src=images/blank.png width =""500"" height = ""500"" style=""border:5px solid black"">","","",""
"","134.56499995663762","stimulus-presentation","134","127268","0.0-16.0-1.10","SS1602802640714","<img src='images/complex/13.png' width ='500' height = '500' style='border:5px solid black'>","40","mixed_simple_deviant","images/complex/12.png","images/complex/13.png","images/simple/3.png,images/simple/7.png,images/simple/12.png,images/simple/6.png,images/simple/17.png,images/simple/15.png,images/simple/8.png","1","null","","200","334.5649999566376","","","","background","",""
"","null","html-keyboard-response","135","128345","0.0-16.0-0.11","SS1602802640714","","null","","","","","","","","","","","","<img src=images/blank.png width =""500"" height = ""500"" style=""border:5px solid black"">","","",""
"","162.16499998699874","stimulus-presentation","136","128716","0.0-16.0-1.11","SS1602802640714","<img src='images/complex/13.png' width ='500' height = '500' style='border:5px solid black'>","40","mixed_simple_deviant","images/complex/12.png","images/complex/13.png","images/simple/3.png,images/simple/7.png,images/simple/12.png,images/simple/6.png,images/simple/17.png,images/simple/15.png,images/simple/8.png","1","null","","200","362.16499998699874","","","","background","",""
"","null","html-keyboard-response","137","129803","0.0-16.0-0.12","SS1602802640714","","null","","","","","","","","","","","","<img src=images/blank.png width =""500"" height = ""500"" style=""border:5px solid black"">","","",""
"","311.3399999565445","stimulus-presentation","138","130319","0.0-16.0-1.12","SS1602802640714","<img src='images/simple/12.png' width ='500' height = '500' style='border:5px solid black'>","40","mixed_simple_deviant","images/complex/12.png","images/complex/13.png","images/simple/3.png,images/simple/7.png,images/simple/12.png,images/simple/6.png,images/simple/17.png,images/simple/15.png,images/simple/8.png","1","null","","200","511.3399999565445","","","","deviant","",""
"","null","html-keyboard-response","139","131159","0.0-16.0-0.13","SS1602802640714","","null","","","","","","","","","","","","<img src=images/blank.png width =""500"" height = ""500"" style=""border:5px solid black"">","","",""
"","219.29999999701977","stimulus-presentation","140","131587","0.0-16.0-1.13","SS1602802640714","<img src='images/complex/13.png' width ='500' height = '500' style='border:5px solid black'>","40","mixed_simple_deviant","images/complex/12.png","images/complex/13.png","images/simple/3.png,images/simple/7.png,images/simple/12.png,images/simple/6.png,images/simple/17.png,images/simple/15.png,images/simple/8.png","1","null","","200","419.29999999701977","","","","background","",""
"","null","html-keyboard-response","141","132741","0.0-16.0-0.14","SS1602802640714","","null","","","","","","","","","","","","<img src=images/blank.png width =""500"" height = ""500"" style=""border:5px solid black"">","","",""
"","84.03999998699874","stimulus-presentation","142","133032","0.0-16.0-1.14","SS1602802640714","<img src='images/complex/13.png' width ='500' height = '500' style='border:5px solid black'>","40","mixed_simple_deviant","images/complex/12.png","images/complex/13.png","images/simple/3.png,images/simple/7.png,images/simple/12.png,images/simple/6.png,images/simple/17.png,images/simple/15.png,images/simple/8.png","1","null","","200","284.03999998699874","","","","background","",""
"","null","html-keyboard-response","143","134307","0.0-16.0-0.15","SS1602802640714","","null","","","","","","","","","","","","<img src=images/blank.png width =""500"" height = ""500"" style=""border:5px solid black"">","","",""
"","881.0599999851547","stimulus-presentation","144","135396","0.0-16.0-1.15","SS1602802640714","<img src='images/complex/12.png' width ='500' height = '500' style='border:5px solid black'>","40","mixed_simple_deviant","images/complex/12.png","images/complex/13.png","images/simple/3.png,images/simple/7.png,images/simple/12.png,images/simple/6.png,images/simple/17.png,images/simple/15.png,images/simple/8.png","1","null","","200","1081.0599999851547","yes","306.01499998010695","","target","",""
"","null","html-keyboard-response","145","136221","0.0-16.0-0.16","SS1602802640714","","null","","","","","","","","","","","","<img src=images/blank.png width =""500"" height = ""500"" style=""border:5px solid black"">","","",""
"","389.61000001290813","stimulus-presentation","146","136821","0.0-16.0-1.16","SS1602802640714","<img src='images/simple/7.png' width ='500' height = '500' style='border:5px solid black'>","40","mixed_simple_deviant","images/complex/12.png","images/complex/13.png","images/simple/3.png,images/simple/7.png,images/simple/12.png,images/simple/6.png,images/simple/17.png,images/simple/15.png,images/simple/8.png","1","null","","200","589.6100000129081","","","","deviant","",""
"","null","html-keyboard-response","147","138073","0.0-16.0-0.17","SS1602802640714","","null","","","","","","","","","","","","<img src=images/blank.png width =""500"" height = ""500"" style=""border:5px solid black"">","","",""
"","125.98999997135252","stimulus-presentation","148","138409","0.0-16.0-1.17","SS1602802640714","<img src='images/complex/13.png' width ='500' height = '500' style='border:5px solid black'>","40","mixed_simple_deviant","images/complex/12.png","images/complex/13.png","images/simple/3.png,images/simple/7.png,images/simple/12.png,images/simple/6.png,images/simple/17.png,images/simple/15.png,images/simple/8.png","1","null","","200","325.9899999713525","","","","background","",""
"","null","html-keyboard-response","149","139571","0.0-16.0-0.18","SS1602802640714","","null","","","","","","","","","","","","<img src=images/blank.png width =""500"" height = ""500"" style=""border:5px solid black"">","","",""
"","176.64000001968816","stimulus-presentation","150","139956","0.0-16.0-1.18","SS1602802640714","<img src='images/complex/13.png' width ='500' height = '500' style='border:5px solid black'>","40","mixed_simple_deviant","images/complex/12.png","images/complex/13.png","images/simple/3.png,images/simple/7.png,images/simple/12.png,images/simple/6.png,images/simple/17.png,images/simple/15.png,images/simple/8.png","1","null","","200","376.64000001968816","","","","background","",""
"","null","html-keyboard-response","151","141213","0.0-16.0-0.19","SS1602802640714","","null","","","","","","","","","","","","<img src=images/blank.png width =""500"" height = ""500"" style=""border:5px solid black"">","","",""
"","933.7099999538623","stimulus-presentation","152","142357","0.0-16.0-1.19","SS1602802640714","<img src='images/complex/12.png' width ='500' height = '500' style='border:5px solid black'>","40","mixed_simple_deviant","images/complex/12.png","images/complex/13.png","images/simple/3.png,images/simple/7.png,images/simple/12.png,images/simple/6.png,images/simple/17.png,images/simple/15.png,images/simple/8.png","1","null","","200","1133.7099999538623","yes","319.4399999920279","","target","",""
"","null","html-keyboard-response","153","143216","0.0-16.0-0.20","SS1602802640714","","null","","","","","","","","","","","","<img src=images/blank.png width =""500"" height = ""500"" style=""border:5px solid black"">","","",""
"","207.4049999937415","stimulus-presentation","154","143637","0.0-16.0-1.20","SS1602802640714","<img src='images/complex/13.png' width ='500' height = '500' style='border:5px solid black'>","40","mixed_simple_deviant","images/complex/12.png","images/complex/13.png","images/simple/3.png,images/simple/7.png,images/simple/12.png,images/simple/6.png,images/simple/17.png,images/simple/15.png,images/simple/8.png","1","null","","200","407.4049999937415","","","","background","",""
"","null","html-keyboard-response","155","144916","0.0-16.0-0.21","SS1602802640714","","null","","","","","","","","","","","","<img src=images/blank.png width =""500"" height = ""500"" style=""border:5px solid black"">","","",""
"","1311.615000013262","stimulus-presentation","156","146440","0.0-16.0-1.21","SS1602802640714","<img src='images/complex/12.png' width ='500' height = '500' style='border:5px solid black'>","40","mixed_simple_deviant","images/complex/12.png","images/complex/13.png","images/simple/3.png,images/simple/7.png,images/simple/12.png,images/simple/6.png,images/simple/17.png,images/simple/15.png,images/simple/8.png","1","null","","200","1511.615000013262","yes","693.1600000243634","","target","",""
"","null","html-keyboard-response","157","147261","0.0-16.0-0.22","SS1602802640714","","null","","","","","","","","","","","","<img src=images/blank.png width =""500"" height = ""500"" style=""border:5px solid black"">","","",""
"","252.00999999651685","stimulus-presentation","158","147726","0.0-16.0-1.22","SS1602802640714","<img src='images/complex/13.png' width ='500' height = '500' style='border:5px solid black'>","40","mixed_simple_deviant","images/complex/12.png","images/complex/13.png","images/simple/3.png,images/simple/7.png,images/simple/12.png,images/simple/6.png,images/simple/17.png,images/simple/15.png,images/simple/8.png","1","null","","200","452.00999999651685","","","","background","",""
"","null","html-keyboard-response","159","148990","0.0-16.0-0.23","SS1602802640714","","null","","","","","","","","","","","","<img src=images/blank.png width =""500"" height = ""500"" style=""border:5px solid black"">","","",""
"","268.3950000209734","stimulus-presentation","160","149470","0.0-16.0-1.23","SS1602802640714","<img src='images/complex/13.png' width ='500' height = '500' style='border:5px solid black'>","40","mixed_simple_deviant","images/complex/12.png","images/complex/13.png","images/simple/3.png,images/simple/7.png,images/simple/12.png,images/simple/6.png,images/simple/17.png,images/simple/15.png,images/simple/8.png","1","null","","200","468.3950000209734","","","","background","",""
"","null","html-keyboard-response","161","150734","0.0-16.0-0.24","SS1602802640714","","null","","","","","","","","","","","","<img src=images/blank.png width =""500"" height = ""500"" style=""border:5px solid black"">","","",""
"","943.2699999888428","stimulus-presentation","162","151885","0.0-16.0-1.24","SS1602802640714","<img src='images/complex/12.png' width ='500' height = '500' style='border:5px solid black'>","40","mixed_simple_deviant","images/complex/12.png","images/complex/13.png","images/simple/3.png,images/simple/7.png,images/simple/12.png,images/simple/6.png,images/simple/17.png,images/simple/15.png,images/simple/8.png","1","null","","200","1143.2699999888428","yes","414.3199999816716","","target","",""
"","null","html-keyboard-response","163","152879","0.0-16.0-0.25","SS1602802640714","","null","","","","","","","","","","","","<img src=images/blank.png width =""500"" height = ""500"" style=""border:5px solid black"">","","",""
"","262.9750000196509","stimulus-presentation","164","153357","0.0-16.0-1.25","SS1602802640714","<img src='images/complex/13.png' width ='500' height = '500' style='border:5px solid black'>","40","mixed_simple_deviant","images/complex/12.png","images/complex/13.png","images/simple/3.png,images/simple/7.png,images/simple/12.png,images/simple/6.png,images/simple/17.png,images/simple/15.png,images/simple/8.png","1","null","","200","462.9750000196509","","","","background","",""
"","null","html-keyboard-response","165","154271","0.0-16.0-0.26","SS1602802640714","","null","","","","","","","","","","","","<img src=images/blank.png width =""500"" height = ""500"" style=""border:5px solid black"">","","",""
"","225.59499996714294","stimulus-presentation","166","154709","0.0-16.0-1.26","SS1602802640714","<img src='images/complex/13.png' width ='500' height = '500' style='border:5px solid black'>","40","mixed_simple_deviant","images/complex/12.png","images/complex/13.png","images/simple/3.png,images/simple/7.png,images/simple/12.png,images/simple/6.png,images/simple/17.png,images/simple/15.png,images/simple/8.png","1","null","","200","425.59499996714294","","","","background","",""
"","null","html-keyboard-response","167","155580","0.0-16.0-0.27","SS1602802640714","","null","","","","","","","","","","","","<img src=images/blank.png width =""500"" height = ""500"" style=""border:5px solid black"">","","",""
"","255.4050000035204","stimulus-presentation","168","156046","0.0-16.0-1.27","SS1602802640714","<img src='images/simple/6.png' width ='500' height = '500' style='border:5px solid black'>","40","mixed_simple_deviant","images/complex/12.png","images/complex/13.png","images/simple/3.png,images/simple/7.png,images/simple/12.png,images/simple/6.png,images/simple/17.png,images/simple/15.png,images/simple/8.png","1","null","","200","455.4050000035204","","","","deviant","",""
"","null","html-keyboard-response","169","157269","0.0-16.0-0.28","SS1602802640714","","null","","","","","","","","","","","","<img src=images/blank.png width =""500"" height = ""500"" style=""border:5px solid black"">","","",""
"","179.984999995213","stimulus-presentation","170","157661","0.0-16.0-1.28","SS1602802640714","<img src='images/complex/13.png' width ='500' height = '500' style='border:5px solid black'>","40","mixed_simple_deviant","images/complex/12.png","images/complex/13.png","images/simple/3.png,images/simple/7.png,images/simple/12.png,images/simple/6.png,images/simple/17.png,images/simple/15.png,images/simple/8.png","1","null","","200","379.984999995213","","","","background","",""
"","null","html-keyboard-response","171","158664","0.0-16.0-0.29","SS1602802640714","","null","","","","","","","","","","","","<img src=images/blank.png width =""500"" height = ""500"" style=""border:5px solid black"">","","",""
"","168.7099999981001","stimulus-presentation","172","159045","0.0-16.0-1.29","SS1602802640714","<img src='images/complex/13.png' width ='500' height = '500' style='border:5px solid black'>","40","mixed_simple_deviant","images/complex/12.png","images/complex/13.png","images/simple/3.png,images/simple/7.png,images/simple/12.png,images/simple/6.png,images/simple/17.png,images/simple/15.png,images/simple/8.png","1","null","","200","368.7099999981001","","","","background","",""
"","null","html-keyboard-response","173","159931","0.0-16.0-0.30","SS1602802640714","","null","","","","","","","","","","","","<img src=images/blank.png width =""500"" height = ""500"" style=""border:5px solid black"">","","",""
"","931.6450000042096","stimulus-presentation","174","161069","0.0-16.0-1.30","SS1602802640714","<img src='images/complex/12.png' width ='500' height = '500' style='border:5px solid black'>","40","mixed_simple_deviant","images/complex/12.png","images/complex/13.png","images/simple/3.png,images/simple/7.png,images/simple/12.png,images/simple/6.png,images/simple/17.png,images/simple/15.png,images/simple/8.png","1","null","","200","1131.6450000042096","yes","308.18499997258186","","target","",""
"","null","html-keyboard-response","175","162014","0.0-16.0-0.31","SS1602802640714","","null","","","","","","","","","","","","<img src=images/blank.png width =""500"" height = ""500"" style=""border:5px solid black"">","","",""
"","538.3049999945797","stimulus-presentation","176","162762","0.0-16.0-1.31","SS1602802640714","<img src='images/complex/13.png' width ='500' height = '500' style='border:5px solid black'>","40","mixed_simple_deviant","images/complex/12.png","images/complex/13.png","images/simple/3.png,images/simple/7.png,images/simple/12.png,images/simple/6.png,images/simple/17.png,images/simple/15.png,images/simple/8.png","1","null","","200","738.3049999945797","","","","background","",""
"","null","html-keyboard-response","177","163965","0.0-16.0-0.32","SS1602802640714","","null","","","","","","","","","","","","<img src=images/blank.png width =""500"" height = ""500"" style=""border:5px solid black"">","","",""
"","239.60500000976026","stimulus-presentation","178","164413","0.0-16.0-1.32","SS1602802640714","<img src='images/simple/8.png' width ='500' height = '500' style='border:5px solid black'>","40","mixed_simple_deviant","images/complex/12.png","images/complex/13.png","images/simple/3.png,images/simple/7.png,images/simple/12.png,images/simple/6.png,images/simple/17.png,images/simple/15.png,images/simple/8.png","1","null","","200","439.60500000976026","","","","deviant","",""
"","null","html-keyboard-response","179","165352","0.0-16.0-0.33","SS1602802640714","","null","","","","","","","","","","","","<img src=images/blank.png width =""500"" height = ""500"" style=""border:5px solid black"">","","",""
"","440.1800000341609","stimulus-presentation","180","166005","0.0-16.0-1.33","SS1602802640714","<img src='images/complex/13.png' width ='500' height = '500' style='border:5px solid black'>","40","mixed_simple_deviant","images/complex/12.png","images/complex/13.png","images/simple/3.png,images/simple/7.png,images/simple/12.png,images/simple/6.png,images/simple/17.png,images/simple/15.png,images/simple/8.png","1","null","","200","640.1800000341609","","","","background","",""
"","null","html-keyboard-response","181","167290","0.0-16.0-0.34","SS1602802640714","","null","","","","","","","","","","","","<img src=images/blank.png width =""500"" height = ""500"" style=""border:5px solid black"">","","",""
"","312.13999999454245","stimulus-presentation","182","167812","0.0-16.0-1.34","SS1602802640714","<img src='images/complex/13.png' width ='500' height = '500' style='border:5px solid black'>","40","mixed_simple_deviant","images/complex/12.png","images/complex/13.png","images/simple/3.png,images/simple/7.png,images/simple/12.png,images/simple/6.png,images/simple/17.png,images/simple/15.png,images/simple/8.png","1","null","","200","512.1399999945424","","","","background","",""
"","null","html-keyboard-response","183","168749","0.0-16.0-0.35","SS1602802640714","","null","","","","","","","","","","","","<img src=images/blank.png width =""500"" height = ""500"" style=""border:5px solid black"">","","",""
"","152.01499999966472","stimulus-presentation","184","169110","0.0-16.0-1.35","SS1602802640714","<img src='images/complex/13.png' width ='500' height = '500' style='border:5px solid black'>","40","mixed_simple_deviant","images/complex/12.png","images/complex/13.png","images/simple/3.png,images/simple/7.png,images/simple/12.png,images/simple/6.png,images/simple/17.png,images/simple/15.png,images/simple/8.png","1","null","","200","352.0149999996647","","","","background","",""
"","null","html-keyboard-response","185","170233","0.0-16.0-0.36","SS1602802640714","","null","","","","","","","","","","","","<img src=images/blank.png width =""500"" height = ""500"" style=""border:5px solid black"">","","",""
"","124.16999996639788","stimulus-presentation","186","170565","0.0-16.0-1.36","SS1602802640714","<img src='images/complex/13.png' width ='500' height = '500' style='border:5px solid black'>","40","mixed_simple_deviant","images/complex/12.png","images/complex/13.png","images/simple/3.png,images/simple/7.png,images/simple/12.png,images/simple/6.png,images/simple/17.png,images/simple/15.png,images/simple/8.png","1","null","","200","324.1699999663979","","","","background","",""
"","null","html-keyboard-response","187","171728","0.0-16.0-0.37","SS1602802640714","","null","","","","","","","","","","","","<img src=images/blank.png width =""500"" height = ""500"" style=""border:5px solid black"">","","",""
"","1000.0049999798648","stimulus-presentation","188","172942","0.0-16.0-1.37","SS1602802640714","<img src='images/complex/12.png' width ='500' height = '500' style='border:5px solid black'>","40","mixed_simple_deviant","images/complex/12.png","images/complex/13.png","images/simple/3.png,images/simple/7.png,images/simple/12.png,images/simple/6.png,images/simple/17.png,images/simple/15.png,images/simple/8.png","1","null","","200","1200.0049999798648","yes","381.7200000048615","","target","",""
"","null","html-keyboard-response","189","174108","0.0-16.0-0.38","SS1602802640714","","null","","","","","","","","","","","","<img src=images/blank.png width =""500"" height = ""500"" style=""border:5px solid black"">","","",""
"","241.05000001145527","stimulus-presentation","190","174558","0.0-16.0-1.38","SS1602802640714","<img src='images/complex/13.png' width ='500' height = '500' style='border:5px solid black'>","40","mixed_simple_deviant","images/complex/12.png","images/complex/13.png","images/simple/3.png,images/simple/7.png,images/simple/12.png,images/simple/6.png,images/simple/17.png,images/simple/15.png,images/simple/8.png","1","null","","200","441.05000001145527","","","","background","",""
"","null","html-keyboard-response","191","175795","0.0-16.0-0.39","SS1602802640714","","null","","","","","","","","","","","","<img src=images/blank.png width =""500"" height = ""500"" style=""border:5px solid black"">","","",""
"","455.6950000114739","stimulus-presentation","192","176459","0.0-16.0-1.39","SS1602802640714","<img src='images/simple/3.png' width ='500' height = '500' style='border:5px solid black'>","40","mixed_simple_deviant","images/complex/12.png","images/complex/13.png","images/simple/3.png,images/simple/7.png,images/simple/12.png,images/simple/6.png,images/simple/17.png,images/simple/15.png,images/simple/8.png","1","null","","200","655.6950000114739","","","","deviant","",""
"","null","html-keyboard-response","193","177603","0.0-16.0-0.40","SS1602802640714","","null","","","","","","","","","","","","<img src=images/blank.png width =""500"" height = ""500"" style=""border:5px solid black"">","","",""
"","305.7099999859929","stimulus-presentation","194","178119","0.0-16.0-1.40","SS1602802640714","<img src='images/complex/13.png' width ='500' height = '500' style='border:5px solid black'>","40","mixed_simple_deviant","images/complex/12.png","images/complex/13.png","images/simple/3.png,images/simple/7.png,images/simple/12.png,images/simple/6.png,images/simple/17.png,images/simple/15.png,images/simple/8.png","1","null","","200","505.7099999859929","","","","background","",""
"","null","html-keyboard-response","195","179355","0.0-16.0-0.41","SS1602802640714","","null","","","","","","","","","","","","<img src=images/blank.png width =""500"" height = ""500"" style=""border:5px solid black"">","","",""
"","174.63999998290092","stimulus-presentation","196","179740","0.0-16.0-1.41","SS1602802640714","<img src='images/complex/13.png' width ='500' height = '500' style='border:5px solid black'>","40","mixed_simple_deviant","images/complex/12.png","images/complex/13.png","images/simple/3.png,images/simple/7.png,images/simple/12.png,images/simple/6.png,images/simple/17.png,images/simple/15.png,images/simple/8.png","1","null","","200","374.6399999829009","","","","background","",""
"","null","html-keyboard-response","197","180818","0.0-16.0-0.42","SS1602802640714","","null","","","","","","","","","","","","<img src=images/blank.png width =""500"" height = ""500"" style=""border:5px solid black"">","","",""
"","63.11500002630055","stimulus-presentation","198","181093","0.0-16.0-1.42","SS1602802640714","<img src='images/complex/12.png' width ='500' height = '500' style='border:5px solid black'>","40","mixed_simple_deviant","images/complex/12.png","images/complex/13.png","images/simple/3.png,images/simple/7.png,images/simple/12.png,images/simple/6.png,images/simple/17.png,images/simple/15.png,images/simple/8.png","1","null","","200","263.11500002630055","","","","target","",""
"","null","html-keyboard-response","199","182043","0.0-16.0-0.43","SS1602802640714","","null","","","","","","","","","","","","<img src=images/blank.png width =""500"" height = ""500"" style=""border:5px solid black"">","","",""
"","70.30999998096377","stimulus-presentation","200","182323","0.0-16.0-1.43","SS1602802640714","<img src='images/complex/13.png' width ='500' height = '500' style='border:5px solid black'>","40","mixed_simple_deviant","images/complex/12.png","images/complex/13.png","images/simple/3.png,images/simple/7.png,images/simple/12.png,images/simple/6.png,images/simple/17.png,images/simple/15.png,images/simple/8.png","1","null","","200","270.30999998096377","","","","background","",""
"","null","html-keyboard-response","201","183307","0.0-16.0-0.44","SS1602802640714","","null","","","","","","","","","","","","<img src=images/blank.png width =""500"" height = ""500"" style=""border:5px solid black"">","","",""
"","334.8950000363402","stimulus-presentation","202","183853","0.0-16.0-1.44","SS1602802640714","<img src='images/complex/13.png' width ='500' height = '500' style='border:5px solid black'>","40","mixed_simple_deviant","images/complex/12.png","images/complex/13.png","images/simple/3.png,images/simple/7.png,images/simple/12.png,images/simple/6.png,images/simple/17.png,images/simple/15.png,images/simple/8.png","1","null","","200","534.8950000363402","","","","background","",""
"","null","html-keyboard-response","203","184680","0.0-16.0-0.45","SS1602802640714","","null","","","","","","","","","","","","<img src=images/blank.png width =""500"" height = ""500"" style=""border:5px solid black"">","","",""
"","225.6049999850802","stimulus-presentation","204","185115","0.0-16.0-1.45","SS1602802640714","<img src='images/complex/13.png' width ='500' height = '500' style='border:5px solid black'>","40","mixed_simple_deviant","images/complex/12.png","images/complex/13.png","images/simple/3.png,images/simple/7.png,images/simple/12.png,images/simple/6.png,images/simple/17.png,images/simple/15.png,images/simple/8.png","1","null","","200","425.6049999850802","","","","background","",""
"","null","html-keyboard-response","205","186279","0.0-16.0-0.46","SS1602802640714","","null","","","","","","","","","","","","<img src=images/blank.png width =""500"" height = ""500"" style=""border:5px solid black"">","","",""
"","168.82500000065193","stimulus-presentation","206","186661","0.0-16.0-1.46","SS1602802640714","<img src='images/complex/13.png' width ='500' height = '500' style='border:5px solid black'>","40","mixed_simple_deviant","images/complex/12.png","images/complex/13.png","images/simple/3.png,images/simple/7.png,images/simple/12.png,images/simple/6.png,images/simple/17.png,images/simple/15.png,images/simple/8.png","1","null","","200","368.8250000006519","","","","background","",""
"","null","html-keyboard-response","207","187795","0.0-16.0-0.47","SS1602802640714","","null","","","","","","","","","","","","<img src=images/blank.png width =""500"" height = ""500"" style=""border:5px solid black"">","","",""
"","137.54000002518296","stimulus-presentation","208","188142","0.0-16.0-1.47","SS1602802640714","<img src='images/complex/13.png' width ='500' height = '500' style='border:5px solid black'>","40","mixed_simple_deviant","images/complex/12.png","images/complex/13.png","images/simple/3.png,images/simple/7.png,images/simple/12.png,images/simple/6.png,images/simple/17.png,images/simple/15.png,images/simple/8.png","1","null","","200","337.54000002518296","","","","background","",""
"","null","html-keyboard-response","209","189334","0.0-16.0-0.48","SS1602802640714","","null","","","","","","","","","","","","<img src=images/blank.png width =""500"" height = ""500"" style=""border:5px solid black"">","","",""
"","179.8500000149943","stimulus-presentation","210","189725","0.0-16.0-1.48","SS1602802640714","<img src='images/complex/13.png' width ='500' height = '500' style='border:5px solid black'>","40","mixed_simple_deviant","images/complex/12.png","images/complex/13.png","images/simple/3.png,images/simple/7.png,images/simple/12.png,images/simple/6.png,images/simple/17.png,images/simple/15.png,images/simple/8.png","1","null","","200","379.8500000149943","","","","background","",""
"[{""page_index"":0,""viewing_time"":1525}]","1525","task-instructions","211","191255","0.0-17.0","SS1602802640714","","","","","","","","","","","","","","","","",""
"[{""page_index"":0,""viewing_time"":716.4099999936298},{""page_index"":1,""viewing_time"":952.0400000037625},{""page_index"":2,""viewing_time"":711.7250000010245}]","2380.8650000137277","instructions","212","193641","0.0-18.0","SS1602802640714","","","","","","","","","","","","","","","","",""
"","null","html-keyboard-response","213","194750","0.0-19.0-0.0","SS1602802640714","","null","","","","","","","","","","","","<img src=images/blank.png width =""500"" height = ""500"" style=""border:5px solid black"">","","",""
"","676.644999999553","stimulus-presentation","214","195640","0.0-19.0-1.0","SS1602802640714","<img src='images/complex/16.png' width ='500' height = '500' style='border:5px solid black'>","40","all_complex","images/complex/6.png","images/complex/16.png","images/complex/9.png,images/complex/5.png,images/complex/3.png,images/complex/8.png,images/complex/14.png,images/complex/1.png,images/complex/4.png","2","null","","200","876.644999999553","","","","background","",""
"","null","html-keyboard-response","215","196617","0.0-19.0-0.1","SS1602802640714","","null","","","","","","","","","","","","<img src=images/blank.png width =""500"" height = ""500"" style=""border:5px solid black"">","","",""
"","1094.2650000215508","stimulus-presentation","216","197925","0.0-19.0-1.1","SS1602802640714","<img src='images/complex/1.png' width ='500' height = '500' style='border:5px solid black'>","40","all_complex","images/complex/6.png","images/complex/16.png","images/complex/9.png,images/complex/5.png,images/complex/3.png,images/complex/8.png,images/complex/14.png,images/complex/1.png,images/complex/4.png","2","null","","200","1294.2650000215508","yes","350.09000002173707","","deviant","",""
"","null","html-keyboard-response","217","198853","0.0-19.0-0.2","SS1602802640714","","null","","","","","","","","","","","","<img src=images/blank.png width =""500"" height = ""500"" style=""border:5px solid black"">","","",""
"","198.89499997952953","stimulus-presentation","218","199266","0.0-19.0-1.2","SS1602802640714","<img src='images/complex/16.png' width ='500' height = '500' style='border:5px solid black'>","40","all_complex","images/complex/6.png","images/complex/16.png","images/complex/9.png,images/complex/5.png,images/complex/3.png,images/complex/8.png,images/complex/14.png,images/complex/1.png,images/complex/4.png","2","null","","200","398.89499997952953","","","","background","",""
"","null","html-keyboard-response","219","200329","0.0-19.0-0.3","SS1602802640714","","null","","","","","","","","","","","","<img src=images/blank.png width =""500"" height = ""500"" style=""border:5px solid black"">","","",""
"","238.40500001097098","stimulus-presentation","220","200781","0.0-19.0-1.3","SS1602802640714","<img src='images/complex/16.png' width ='500' height = '500' style='border:5px solid black'>","40","all_complex","images/complex/6.png","images/complex/16.png","images/complex/9.png,images/complex/5.png,images/complex/3.png,images/complex/8.png,images/complex/14.png,images/complex/1.png,images/complex/4.png","2","null","","200","438.405000010971","","","","background","",""
"","null","html-keyboard-response","221","201702","0.0-19.0-0.4","SS1602802640714","","null","","","","","","","","","","","","<img src=images/blank.png width =""500"" height = ""500"" style=""border:5px solid black"">","","",""
"","242.97000002115965","stimulus-presentation","222","202157","0.0-19.0-1.4","SS1602802640714","<img src='images/complex/16.png' width ='500' height = '500' style='border:5px solid black'>","40","all_complex","images/complex/6.png","images/complex/16.png","images/complex/9.png,images/complex/5.png,images/complex/3.png,images/complex/8.png,images/complex/14.png,images/complex/1.png,images/complex/4.png","2","null","","200","442.97000002115965","","","","background","",""
"","null","html-keyboard-response","223","203038","0.0-19.0-0.5","SS1602802640714","","null","","","","","","","","","","","","<img src=images/blank.png width =""500"" height = ""500"" style=""border:5px solid black"">","","",""
"","156.20999998645857","stimulus-presentation","224","203403","0.0-19.0-1.5","SS1602802640714","<img src='images/complex/16.png' width ='500' height = '500' style='border:5px solid black'>","40","all_complex","images/complex/6.png","images/complex/16.png","images/complex/9.png,images/complex/5.png,images/complex/3.png,images/complex/8.png,images/complex/14.png,images/complex/1.png,images/complex/4.png","2","null","","200","356.20999998645857","","","","background","",""
"","null","html-keyboard-response","225","204371","0.0-19.0-0.6","SS1602802640714","","null","","","","","","","","","","","","<img src=images/blank.png width =""500"" height = ""500"" style=""border:5px solid black"">","","",""
"","152.76500000618398","stimulus-presentation","226","204733","0.0-19.0-1.6","SS1602802640714","<img src='images/complex/16.png' width ='500' height = '500' style='border:5px solid black'>","40","all_complex","images/complex/6.png","images/complex/16.png","images/complex/9.png,images/complex/5.png,images/complex/3.png,images/complex/8.png,images/complex/14.png,images/complex/1.png,images/complex/4.png","2","null","","200","352.765000006184","","","","background","",""
"","null","html-keyboard-response","227","205787","0.0-19.0-0.7","SS1602802640714","","null","","","","","","","","","","","","<img src=images/blank.png width =""500"" height = ""500"" style=""border:5px solid black"">","","",""
"","167.81999997328967","stimulus-presentation","228","206167","0.0-19.0-1.7","SS1602802640714","<img src='images/complex/16.png' width ='500' height = '500' style='border:5px solid black'>","40","all_complex","images/complex/6.png","images/complex/16.png","images/complex/9.png,images/complex/5.png,images/complex/3.png,images/complex/8.png,images/complex/14.png,images/complex/1.png,images/complex/4.png","2","null","","200","367.81999997328967","","","","background","",""
"","null","html-keyboard-response","229","207119","0.0-19.0-0.8","SS1602802640714","","null","","","","","","","","","","","","<img src=images/blank.png width =""500"" height = ""500"" style=""border:5px solid black"">","","",""
"","144.54499998828396","stimulus-presentation","230","207478","0.0-19.0-1.8","SS1602802640714","<img src='images/complex/16.png' width ='500' height = '500' style='border:5px solid black'>","40","all_complex","images/complex/6.png","images/complex/16.png","images/complex/9.png,images/complex/5.png,images/complex/3.png,images/complex/8.png,images/complex/14.png,images/complex/1.png,images/complex/4.png","2","null","","200","344.54499998828396","","","","background","",""
"","null","html-keyboard-response","231","208721","0.0-19.0-0.9","SS1602802640714","","null","","","","","","","","","","","","<img src=images/blank.png width =""500"" height = ""500"" style=""border:5px solid black"">","","",""
"","360.2299999911338","stimulus-presentation","232","209290","0.0-19.0-1.9","SS1602802640714","<img src='images/complex/16.png' width ='500' height = '500' style='border:5px solid black'>","40","all_complex","images/complex/6.png","images/complex/16.png","images/complex/9.png,images/complex/5.png,images/complex/3.png,images/complex/8.png,images/complex/14.png,images/complex/1.png,images/complex/4.png","2","null","","200","560.2299999911338","","","","background","",""
"","null","html-keyboard-response","233","210174","0.0-19.0-0.10","SS1602802640714","","null","","","","","","","","","","","","<img src=images/blank.png width =""500"" height = ""500"" style=""border:5px solid black"">","","",""
"","106.55500000575557","stimulus-presentation","234","210490","0.0-19.0-1.10","SS1602802640714","<img src='images/complex/16.png' width ='500' height = '500' style='border:5px solid black'>","40","all_complex","images/complex/6.png","images/complex/16.png","images/complex/9.png,images/complex/5.png,images/complex/3.png,images/complex/8.png,images/complex/14.png,images/complex/1.png,images/complex/4.png","2","null","","200","306.5550000057556","","","","background","",""
"","null","html-keyboard-response","235","211434","0.0-19.0-0.11","SS1602802640714","","null","","","","","","","","","","","","<img src=images/blank.png width =""500"" height = ""500"" style=""border:5px solid black"">","","",""
"","109.08500000368804","stimulus-presentation","236","211756","0.0-19.0-1.11","SS1602802640714","<img src='images/complex/16.png' width ='500' height = '500' style='border:5px solid black'>","40","all_complex","images/complex/6.png","images/complex/16.png","images/complex/9.png,images/complex/5.png,images/complex/3.png,images/complex/8.png,images/complex/14.png,images/complex/1.png,images/complex/4.png","2","null","","200","309.08500000368804","","","","background","",""
"","null","html-keyboard-response","237","212922","0.0-19.0-0.12","SS1602802640714","","null","","","","","","","","","","","","<img src=images/blank.png width =""500"" height = ""500"" style=""border:5px solid black"">","","",""
"","933.240000042133","stimulus-presentation","238","214068","0.0-19.0-1.12","SS1602802640714","<img src='images/complex/6.png' width ='500' height = '500' style='border:5px solid black'>","40","all_complex","images/complex/6.png","images/complex/16.png","images/complex/9.png,images/complex/5.png,images/complex/3.png,images/complex/8.png,images/complex/14.png,images/complex/1.png,images/complex/4.png","2","null","","200","1133.240000042133","yes","316.54500000877306","","target","",""
"","null","html-keyboard-response","239","214947","0.0-19.0-0.13","SS1602802640714","","null","","","","","","","","","","","","<img src=images/blank.png width =""500"" height = ""500"" style=""border:5px solid black"">","","",""
"","132.98500003293157","stimulus-presentation","240","215293","0.0-19.0-1.13","SS1602802640714","<img src='images/complex/16.png' width ='500' height = '500' style='border:5px solid black'>","40","all_complex","images/complex/6.png","images/complex/16.png","images/complex/9.png,images/complex/5.png,images/complex/3.png,images/complex/8.png,images/complex/14.png,images/complex/1.png,images/complex/4.png","2","null","","200","332.98500003293157","","","","background","",""
"","null","html-keyboard-response","241","216203","0.0-19.0-0.14","SS1602802640714","","null","","","","","","","","","","","","<img src=images/blank.png width =""500"" height = ""500"" style=""border:5px solid black"">","","",""
"","167.7849999978207","stimulus-presentation","242","216582","0.0-19.0-1.14","SS1602802640714","<img src='images/complex/3.png' width ='500' height = '500' style='border:5px solid black'>","40","all_complex","images/complex/6.png","images/complex/16.png","images/complex/9.png,images/complex/5.png,images/complex/3.png,images/complex/8.png,images/complex/14.png,images/complex/1.png,images/complex/4.png","2","null","","200","367.7849999978207","","","","deviant","",""
"","null","html-keyboard-response","243","217769","0.0-19.0-0.15","SS1602802640714","","null","","","","","","","","","","","","<img src=images/blank.png width =""500"" height = ""500"" style=""border:5px solid black"">","","",""
"","155.77000001212582","stimulus-presentation","244","218136","0.0-19.0-1.15","SS1602802640714","<img src='images/complex/16.png' width ='500' height = '500' style='border:5px solid black'>","40","all_complex","images/complex/6.png","images/complex/16.png","images/complex/9.png,images/complex/5.png,images/complex/3.png,images/complex/8.png,images/complex/14.png,images/complex/1.png,images/complex/4.png","2","null","","200","355.7700000121258","","","","background","",""
"","null","html-keyboard-response","245","219223","0.0-19.0-0.16","SS1602802640714","","null","","","","","","","","","","","","<img src=images/blank.png width =""500"" height = ""500"" style=""border:5px solid black"">","","",""
"","90.74000001419336","stimulus-presentation","246","219524","0.0-19.0-1.16","SS1602802640714","<img src='images/complex/16.png' width ='500' height = '500' style='border:5px solid black'>","40","all_complex","images/complex/6.png","images/complex/16.png","images/complex/9.png,images/complex/5.png,images/complex/3.png,images/complex/8.png,images/complex/14.png,images/complex/1.png,images/complex/4.png","2","null","","200","290.74000001419336","","","","background","",""
"","null","html-keyboard-response","247","220755","0.0-19.0-0.17","SS1602802640714","","null","","","","","","","","","","","","<img src=images/blank.png width =""500"" height = ""500"" style=""border:5px solid black"">","","",""
"","180.69000000832602","stimulus-presentation","248","221149","0.0-19.0-1.17","SS1602802640714","<img src='images/complex/16.png' width ='500' height = '500' style='border:5px solid black'>","40","all_complex","images/complex/6.png","images/complex/16.png","images/complex/9.png,images/complex/5.png,images/complex/3.png,images/complex/8.png,images/complex/14.png,images/complex/1.png,images/complex/4.png","2","null","","200","380.690000008326","","","","background","",""
"","null","html-keyboard-response","249","222124","0.0-19.0-0.18","SS1602802640714","","null","","","","","","","","","","","","<img src=images/blank.png width =""500"" height = ""500"" style=""border:5px solid black"">","","",""
"","115.98499998217449","stimulus-presentation","250","222451","0.0-19.0-1.18","SS1602802640714","<img src='images/complex/16.png' width ='500' height = '500' style='border:5px solid black'>","40","all_complex","images/complex/6.png","images/complex/16.png","images/complex/9.png,images/complex/5.png,images/complex/3.png,images/complex/8.png,images/complex/14.png,images/complex/1.png,images/complex/4.png","2","null","","200","315.9849999821745","","","","background","",""
"","null","html-keyboard-response","251","223582","0.0-19.0-0.19","SS1602802640714","","null","","","","","","","","","","","","<img src=images/blank.png width =""500"" height = ""500"" style=""border:5px solid black"">","","",""
"","1169.4799999822862","stimulus-presentation","252","224964","0.0-19.0-1.19","SS1602802640714","<img src='images/complex/8.png' width ='500' height = '500' style='border:5px solid black'>","40","all_complex","images/complex/6.png","images/complex/16.png","images/complex/9.png,images/complex/5.png,images/complex/3.png,images/complex/8.png,images/complex/14.png,images/complex/1.png,images/complex/4.png","2","null","","200","1369.4799999822862","yes","793.5549999820068","","deviant","",""
"","null","html-keyboard-response","253","226003","0.0-19.0-0.20","SS1602802640714","","null","","","","","","","","","","","","<img src=images/blank.png width =""500"" height = ""500"" style=""border:5px solid black"">","","",""
"","266.91000000573695","stimulus-presentation","254","226483","0.0-19.0-1.20","SS1602802640714","<img src='images/complex/16.png' width ='500' height = '500' style='border:5px solid black'>","40","all_complex","images/complex/6.png","images/complex/16.png","images/complex/9.png,images/complex/5.png,images/complex/3.png,images/complex/8.png,images/complex/14.png,images/complex/1.png,images/complex/4.png","2","null","","200","466.91000000573695","","","","background","",""
"","null","html-keyboard-response","255","227635","0.0-19.0-0.21","SS1602802640714","","null","","","","","","","","","","","","<img src=images/blank.png width =""500"" height = ""500"" style=""border:5px solid black"">","","",""
"","132.5399999623187","stimulus-presentation","256","227982","0.0-19.0-1.21","SS1602802640714","<img src='images/complex/16.png' width ='500' height = '500' style='border:5px solid black'>","40","all_complex","images/complex/6.png","images/complex/16.png","images/complex/9.png,images/complex/5.png,images/complex/3.png,images/complex/8.png,images/complex/14.png,images/complex/1.png,images/complex/4.png","2","null","","200","332.5399999623187","","","","background","",""
"","null","html-keyboard-response","257","229271","0.0-19.0-0.22","SS1602802640714","","null","","","","","","","","","","","","<img src=images/blank.png width =""500"" height = ""500"" style=""border:5px solid black"">","","",""
"","104.18500000378117","stimulus-presentation","258","229590","0.0-19.0-1.22","SS1602802640714","<img src='images/complex/5.png' width ='500' height = '500' style='border:5px solid black'>","40","all_complex","images/complex/6.png","images/complex/16.png","images/complex/9.png,images/complex/5.png,images/complex/3.png,images/complex/8.png,images/complex/14.png,images/complex/1.png,images/complex/4.png","2","null","","200","304.18500000378117","","","","deviant","",""
"","null","html-keyboard-response","259","230548","0.0-19.0-0.23","SS1602802640714","","null","","","","","","","","","","","","<img src=images/blank.png width =""500"" height = ""500"" style=""border:5px solid black"">","","",""
"","273.1250000069849","stimulus-presentation","260","231035","0.0-19.0-1.23","SS1602802640714","<img src='images/complex/16.png' width ='500' height = '500' style='border:5px solid black'>","40","all_complex","images/complex/6.png","images/complex/16.png","images/complex/9.png,images/complex/5.png,images/complex/3.png,images/complex/8.png,images/complex/14.png,images/complex/1.png,images/complex/4.png","2","null","","200","473.1250000069849","","","","background","",""
"","null","html-keyboard-response","261","231914","0.0-19.0-0.24","SS1602802640714","","null","","","","","","","","","","","","<img src=images/blank.png width =""500"" height = ""500"" style=""border:5px solid black"">","","",""
"","124.62499999674037","stimulus-presentation","262","232252","0.0-19.0-1.24","SS1602802640714","<img src='images/complex/16.png' width ='500' height = '500' style='border:5px solid black'>","40","all_complex","images/complex/6.png","images/complex/16.png","images/complex/9.png,images/complex/5.png,images/complex/3.png,images/complex/8.png,images/complex/14.png,images/complex/1.png,images/complex/4.png","2","null","","200","324.62499999674037","","","","background","",""
"","null","html-keyboard-response","263","233502","0.0-19.0-0.25","SS1602802640714","","null","","","","","","","","","","","","<img src=images/blank.png width =""500"" height = ""500"" style=""border:5px solid black"">","","",""
"","258.8250000262633","stimulus-presentation","264","233974","0.0-19.0-1.25","SS1602802640714","<img src='images/complex/14.png' width ='500' height = '500' style='border:5px solid black'>","40","all_complex","images/complex/6.png","images/complex/16.png","images/complex/9.png,images/complex/5.png,images/complex/3.png,images/complex/8.png,images/complex/14.png,images/complex/1.png,images/complex/4.png","2","null","","200","458.8250000262633","","","","deviant","",""
"","null","html-keyboard-response","265","234845","0.0-19.0-0.26","SS1602802640714","","null","","","","","","","","","","","","<img src=images/blank.png width =""500"" height = ""500"" style=""border:5px solid black"">","","",""
"","1096.4099999982864","stimulus-presentation","266","236153","0.0-19.0-1.26","SS1602802640714","<img src='images/complex/6.png' width ='500' height = '500' style='border:5px solid black'>","40","all_complex","images/complex/6.png","images/complex/16.png","images/complex/9.png,images/complex/5.png,images/complex/3.png,images/complex/8.png,images/complex/14.png,images/complex/1.png,images/complex/4.png","2","null","","200","1296.4099999982864","yes","504.71999996807426","","target","",""
"","null","html-keyboard-response","267","237168","0.0-19.0-0.27","SS1602802640714","","null","","","","","","","","","","","","<img src=images/blank.png width =""500"" height = ""500"" style=""border:5px solid black"">","","",""
"","246.17499997839332","stimulus-presentation","268","237623","0.0-19.0-1.27","SS1602802640714","<img src='images/complex/16.png' width ='500' height = '500' style='border:5px solid black'>","40","all_complex","images/complex/6.png","images/complex/16.png","images/complex/9.png,images/complex/5.png,images/complex/3.png,images/complex/8.png,images/complex/14.png,images/complex/1.png,images/complex/4.png","2","null","","200","446.1749999783933","","","","background","",""
"","null","html-keyboard-response","269","238735","0.0-19.0-0.28","SS1602802640714","","null","","","","","","","","","","","","<img src=images/blank.png width =""500"" height = ""500"" style=""border:5px solid black"">","","",""
"","90.79500002553686","stimulus-presentation","270","239040","0.0-19.0-1.28","SS1602802640714","<img src='images/complex/6.png' width ='500' height = '500' style='border:5px solid black'>","40","all_complex","images/complex/6.png","images/complex/16.png","images/complex/9.png,images/complex/5.png,images/complex/3.png,images/complex/8.png,images/complex/14.png,images/complex/1.png,images/complex/4.png","2","null","","200","290.79500002553686","","","","target","",""
"","null","html-keyboard-response","271","240228","0.0-19.0-0.29","SS1602802640714","","null","","","","","","","","","","","","<img src=images/blank.png width =""500"" height = ""500"" style=""border:5px solid black"">","","",""
"","257.8900000080466","stimulus-presentation","272","240699","0.0-19.0-1.29","SS1602802640714","<img src='images/complex/4.png' width ='500' height = '500' style='border:5px solid black'>","40","all_complex","images/complex/6.png","images/complex/16.png","images/complex/9.png,images/complex/5.png,images/complex/3.png,images/complex/8.png,images/complex/14.png,images/complex/1.png,images/complex/4.png","2","null","","200","457.8900000080466","","","","deviant","",""
"","null","html-keyboard-response","273","241778","0.0-19.0-0.30","SS1602802640714","","null","","","","","","","","","","","","<img src=images/blank.png width =""500"" height = ""500"" style=""border:5px solid black"">","","",""
"","269.74000001791865","stimulus-presentation","274","242259","0.0-19.0-1.30","SS1602802640714","<img src='images/complex/16.png' width ='500' height = '500' style='border:5px solid black'>","40","all_complex","images/complex/6.png","images/complex/16.png","images/complex/9.png,images/complex/5.png,images/complex/3.png,images/complex/8.png,images/complex/14.png,images/complex/1.png,images/complex/4.png","2","null","","200","469.74000001791865","","","","background","",""
"","null","html-keyboard-response","275","243074","0.0-19.0-0.31","SS1602802640714","","null","","","","","","","","","","","","<img src=images/blank.png width =""500"" height = ""500"" style=""border:5px solid black"">","","",""
"","171.65500001283363","stimulus-presentation","276","243456","0.0-19.0-1.31","SS1602802640714","<img src='images/complex/16.png' width ='500' height = '500' style='border:5px solid black'>","40","all_complex","images/complex/6.png","images/complex/16.png","images/complex/9.png,images/complex/5.png,images/complex/3.png,images/complex/8.png,images/complex/14.png,images/complex/1.png,images/complex/4.png","2","null","","200","371.6550000128336","","","","background","",""
"","null","html-keyboard-response","277","244451","0.0-19.0-0.32","SS1602802640714","","null","","","","","","","","","","","","<img src=images/blank.png width =""500"" height = ""500"" style=""border:5px solid black"">","","",""
"","162.66500001074746","stimulus-presentation","278","244824","0.0-19.0-1.32","SS1602802640714","<img src='images/complex/16.png' width ='500' height = '500' style='border:5px solid black'>","40","all_complex","images/complex/6.png","images/complex/16.png","images/complex/9.png,images/complex/5.png,images/complex/3.png,images/complex/8.png,images/complex/14.png,images/complex/1.png,images/complex/4.png","2","null","","200","362.66500001074746","","","","background","",""
"","null","html-keyboard-response","279","246042","0.0-19.0-0.33","SS1602802640714","","null","","","","","","","","","","","","<img src=images/blank.png width =""500"" height = ""500"" style=""border:5px solid black"">","","",""
"","201.04000001447275","stimulus-presentation","280","246454","0.0-19.0-1.33","SS1602802640714","<img src='images/complex/16.png' width ='500' height = '500' style='border:5px solid black'>","40","all_complex","images/complex/6.png","images/complex/16.png","images/complex/9.png,images/complex/5.png,images/complex/3.png,images/complex/8.png,images/complex/14.png,images/complex/1.png,images/complex/4.png","2","null","","200","401.04000001447275","","","","background","",""
"","null","html-keyboard-response","281","247276","0.0-19.0-0.34","SS1602802640714","","null","","","","","","","","","","","","<img src=images/blank.png width =""500"" height = ""500"" style=""border:5px solid black"">","","",""
"","236.03999998886138","stimulus-presentation","282","247722","0.0-19.0-1.34","SS1602802640714","<img src='images/complex/16.png' width ='500' height = '500' style='border:5px solid black'>","40","all_complex","images/complex/6.png","images/complex/16.png","images/complex/9.png,images/complex/5.png,images/complex/3.png,images/complex/8.png,images/complex/14.png,images/complex/1.png,images/complex/4.png","2","null","","200","436.0399999888614","","","","background","",""
"","null","html-keyboard-response","283","248628","0.0-19.0-0.35","SS1602802640714","","null","","","","","","","","","","","","<img src=images/blank.png width =""500"" height = ""500"" style=""border:5px solid black"">","","",""
"","836.9199999724515","stimulus-presentation","284","249676","0.0-19.0-1.35","SS1602802640714","<img src='images/complex/6.png' width ='500' height = '500' style='border:5px solid black'>","40","all_complex","images/complex/6.png","images/complex/16.png","images/complex/9.png,images/complex/5.png,images/complex/3.png,images/complex/8.png,images/complex/14.png,images/complex/1.png,images/complex/4.png","2","null","","200","1036.9199999724515","yes","286.8799999705516","","target","",""
"","null","html-keyboard-response","285","250755","0.0-19.0-0.36","SS1602802640714","","null","","","","","","","","","","","","<img src=images/blank.png width =""500"" height = ""500"" style=""border:5px solid black"">","","",""
